Data from 12-12-AQDScycling_Absorbance__833__00833.txt Node

Date: Tue Dec 12 14:24:59 EST 2023
User: kyuminlee
Spectrometer: FLMS00943
Trigger mode: 0
Integration Time (sec): 1.000000E-1
Scans to average: 1
Electric dark correction enabled: true
Nonlinearity correction enabled: false
Boxcar width: 0
XAxis mode: Wavelengths
Number of Pixels in Spectrum: 2048
>>>>>Begin Spectral Data<<<<<
179.651	0.01
180.037	0.01
180.424	0.01
180.81	-0
181.197	0.42
181.583	-0.49
181.97	-0.31
182.356	-0
182.743	-0
183.129	0.08
183.515	0.4
183.901	-2.76
184.288	0.34
184.674	-0
185.06	0.56
185.446	-0
185.832	-1.57
186.218	0.07
186.604	-0
186.99	-0
187.376	-0
187.762	0.02
188.148	-0
188.534	-0.34
188.92	0.18
189.305	0.1
189.691	0.24
190.077	0.1
190.463	0.19
190.848	0.11
191.234	0.01
191.619	0.02
192.005	0.22
192.391	0.29
192.776	0.1
193.161	0.11
193.547	0.01
193.932	-0.03
194.318	0.03
194.703	0.09
195.088	0.1
195.473	0.14
195.859	0.07
196.244	0.09
196.629	0.04
197.014	0.11
197.399	0.13
197.784	0.19
198.169	0.08
198.554	0.08
198.939	0.16
199.324	-0.02
199.709	0.06
200.094	0.04
200.478	0.11
200.863	0.2
201.248	0.17
201.633	0.17
202.017	0.2
202.402	0.24
202.787	0.1
203.171	0.07
203.556	0.16
203.94	0.01
204.325	0.22
204.709	0.11
205.093	-0.02
205.478	0.16
205.862	0.06
206.246	0.04
206.631	0.07
207.015	-0.03
207.399	0.19
207.783	0.14
208.167	0.14
208.551	0.33
208.935	0.22
209.319	0.12
209.703	0.16
210.087	0.2
210.471	0.02
210.855	0.1
211.239	0.22
211.623	0.17
212.007	0.14
212.39	0.13
212.774	0.07
213.158	0.14
213.541	0.11
213.925	0.21
214.309	0.35
214.692	0.2
215.076	0.09
215.459	0.04
215.842	0.07
216.226	0.21
216.609	0.22
216.993	0.16
217.376	0.46
217.759	0.18
218.142	0.28
218.525	0.52
218.909	0.33
219.292	0.31
219.675	0.28
220.058	0.38
220.441	0.38
220.824	0.35
221.207	0.59
221.59	0.36
221.973	0.51
222.355	0.55
222.738	0.62
223.121	0.65
223.504	0.55
223.886	0.7
224.269	0.71
224.652	0.6
225.034	0.73
225.417	0.78
225.799	0.74
226.182	0.86
226.564	0.88
226.947	0.7
227.329	0.82
227.711	0.98
228.094	1.06
228.476	0.84
228.858	0.78
229.24	0.77
229.623	0.77
230.005	0.78
230.387	0.92
230.769	0.8
231.151	0.87
231.533	0.88
231.915	0.85
232.297	0.96
232.679	1.01
233.061	1
233.442	1.05
233.824	1.11
234.206	1.2
234.588	0.98
234.969	1.01
235.351	1
235.733	1.04
236.114	1.07
236.496	0.98
236.877	1.01
237.259	1.07
237.64	1.05
238.022	1
238.403	0.93
238.784	1.1
239.165	0.9
239.547	1.05
239.928	1.06
240.309	0.96
240.69	1.12
241.071	1.06
241.452	1.14
241.834	0.97
242.215	1.02
242.595	0.99
242.976	1.11
243.357	1.03
243.738	1.03
244.119	1.19
244.5	1.03
244.881	1.23
245.261	1.25
245.642	1.1
246.023	1.16
246.403	1.12
246.784	1.18
247.164	1.29
247.545	1.25
247.925	1.3
248.306	1.2
248.686	1.39
249.067	1.29
249.447	1.5
249.827	1.38
250.207	1.28
250.588	1.26
250.968	1.35
251.348	1.31
251.728	1.45
252.108	1.27
252.488	1.36
252.868	1.23
253.248	1.28
253.628	1.4
254.008	1.48
254.388	1.24
254.768	1.22
255.147	1.38
255.527	1.43
255.907	1.39
256.287	1.32
256.666	1.36
257.046	1.37
257.425	1.55
257.805	1.31
258.184	1.32
258.564	1.32
258.943	1.34
259.323	1.53
259.702	1.4
260.081	1.37
260.461	1.47
260.84	1.49
261.219	1.57
261.598	1.47
261.977	1.41
262.356	1.57
262.736	1.46
263.115	1.5
263.494	1.42
263.873	1.43
264.251	1.5
264.63	1.46
265.009	1.35
265.388	1.36
265.767	1.43
266.145	1.41
266.524	1.45
266.903	1.37
267.281	1.33
267.66	1.55
268.039	1.48
268.417	1.38
268.796	1.35
269.174	1.34
269.552	1.25
269.931	1.51
270.309	1.5
270.687	1.47
271.066	1.6
271.444	1.49
271.822	1.48
272.2	1.39
272.578	1.44
272.956	1.35
273.334	1.36
273.712	1.39
274.09	1.49
274.468	1.32
274.846	1.37
275.224	1.36
275.602	1.39
275.98	1.37
276.357	1.39
276.735	1.34
277.113	1.36
277.49	1.32
277.868	1.35
278.246	1.33
278.623	1.32
279.001	1.28
279.378	1.32
279.756	1.37
280.133	1.4
280.51	1.34
280.888	1.38
281.265	1.37
281.642	1.35
282.019	1.48
282.396	1.48
282.773	1.4
283.151	1.41
283.528	1.47
283.905	1.32
284.282	1.47
284.659	1.43
285.035	1.33
285.412	1.34
285.789	1.45
286.166	1.4
286.543	1.53
286.919	1.39
287.296	1.32
287.673	1.41
288.049	1.46
288.426	1.57
288.802	1.43
289.179	1.48
289.555	1.56
289.932	1.45
290.308	1.24
290.684	1.28
291.061	1.29
291.437	1.39
291.813	1.32
292.189	1.36
292.565	1.29
292.942	1.27
293.318	1.41
293.694	1.34
294.07	1.24
294.446	1.31
294.822	1.36
295.197	1.41
295.573	1.43
295.949	1.63
296.325	1.34
296.701	1.41
297.076	1.36
297.452	1.46
297.828	1.37
298.203	1.41
298.579	1.34
298.954	1.33
299.33	1.29
299.705	1.34
300.081	1.3
300.456	1.3
300.831	1.24
301.206	1.22
301.582	1.31
301.957	1.19
302.332	1.2
302.707	1.13
303.082	1.15
303.457	1.18
303.832	1.11
304.207	1.03
304.582	1.04
304.957	1.07
305.332	1.04
305.707	1.01
306.082	1.03
306.456	1.06
306.831	0.98
307.206	0.98
307.58	0.97
307.955	0.9
308.33	0.92
308.704	0.91
309.079	0.85
309.453	0.85
309.828	0.83
310.202	0.85
310.576	0.8
310.951	0.8
311.325	0.78
311.699	0.75
312.073	0.76
312.447	0.73
312.821	0.73
313.196	0.73
313.57	0.7
313.944	0.69
314.317	0.7
314.691	0.7
315.065	0.66
315.439	0.66
315.813	0.64
316.187	0.64
316.56	0.67
316.934	0.63
317.308	0.64
317.681	0.63
318.055	0.62
318.428	0.59
318.802	0.61
319.175	0.59
319.549	0.59
319.922	0.6
320.295	0.61
320.669	0.6
321.042	0.6
321.415	0.64
321.788	0.56
322.162	0.57
322.535	0.58
322.908	0.58
323.281	0.55
323.654	0.57
324.027	0.56
324.4	0.56
324.773	0.56
325.145	0.57
325.518	0.56
325.891	0.56
326.264	0.58
326.636	0.55
327.009	0.56
327.382	0.56
327.754	0.59
328.127	0.58
328.499	0.58
328.872	0.59
329.244	0.6
329.616	0.56
329.989	0.59
330.361	0.59
330.733	0.62
331.106	0.58
331.478	0.63
331.85	0.6
332.222	0.6
332.594	0.63
332.966	0.63
333.338	0.67
333.71	0.66
334.082	0.69
334.454	0.68
334.826	0.7
335.197	0.71
335.569	0.69
335.941	0.72
336.312	0.73
336.684	0.72
337.056	0.74
337.427	0.77
337.799	0.78
338.17	0.79
338.542	0.79
338.913	0.81
339.284	0.77
339.656	0.8
340.027	0.83
340.398	0.82
340.769	0.85
341.141	0.87
341.512	0.84
341.883	0.91
342.254	0.87
342.625	0.9
342.996	0.88
343.367	0.89
343.738	0.89
344.108	0.91
344.479	1
344.85	0.98
345.221	1.03
345.591	0.98
345.962	1
346.333	1
346.703	0.97
347.074	1.05
347.444	1.03
347.815	1.07
348.185	1.06
348.556	1.04
348.926	1.13
349.296	1.11
349.666	1.1
350.037	1.07
350.407	1.11
350.777	1.23
351.147	1.18
351.517	1.16
351.887	1.24
352.257	1.23
352.627	1.16
352.997	1.27
353.367	1.34
353.737	1.32
354.106	1.39
354.476	1.27
354.846	1.45
355.216	1.34
355.585	1.39
355.955	1.36
356.324	1.42
356.694	1.35
357.063	1.42
357.433	1.33
357.802	1.37
358.171	1.41
358.541	1.43
358.91	1.51
359.279	1.47
359.648	1.39
360.017	1.64
360.387	1.63
360.756	1.51
361.125	1.43
361.494	1.6
361.863	1.41
362.231	1.53
362.6	1.56
362.969	1.79
363.338	1.46
363.707	1.66
364.075	1.83
364.444	1.45
364.813	1.46
365.181	1.5
365.55	1.5
365.918	1.61
366.287	1.5
366.655	1.53
367.024	1.65
367.392	1.57
367.76	1.48
368.128	1.55
368.497	1.67
368.865	1.52
369.233	1.51
369.601	1.58
369.969	1.43
370.337	1.54
370.705	1.57
371.073	1.49
371.441	1.44
371.809	1.56
372.177	1.5
372.544	1.5
372.912	1.61
373.28	1.63
373.647	1.63
374.015	1.58
374.383	1.8
374.75	1.74
375.118	1.64
375.485	1.61
375.853	1.7
376.22	1.49
376.587	1.52
376.955	1.55
377.322	1.64
377.689	1.54
378.056	1.42
378.423	1.41
378.79	1.49
379.157	1.46
379.524	1.43
379.891	1.46
380.258	1.62
380.625	1.38
380.992	1.44
381.359	1.52
381.726	1.64
382.092	1.46
382.459	1.5
382.826	1.58
383.192	1.62
383.559	1.48
383.925	1.47
384.292	1.47
384.658	1.65
385.025	1.63
385.391	1.77
385.757	1.64
386.123	1.64
386.49	1.43
386.856	1.49
387.222	1.62
387.588	1.62
387.954	1.73
388.32	1.63
388.686	1.61
389.052	1.54
389.418	1.62
389.784	1.6
390.15	1.67
390.515	1.36
390.881	1.69
391.247	1.54
391.613	1.64
391.978	1.48
392.344	1.62
392.709	1.59
393.075	1.54
393.44	1.52
393.806	1.61
394.171	1.45
394.536	1.58
394.902	1.53
395.267	1.53
395.632	1.39
395.997	1.57
396.362	1.42
396.727	1.67
397.092	1.65
397.457	1.48
397.822	1.46
398.187	1.48
398.552	1.45
398.917	1.68
399.282	1.6
399.646	1.51
400.011	1.57
400.376	1.4
400.74	1.45
401.105	1.48
401.47	1.53
401.834	1.7
402.199	1.55
402.563	1.44
402.927	1.42
403.292	1.57
403.656	1.7
404.02	1.6
404.384	1.94
404.749	1.47
405.113	1.64
405.477	1.64
405.841	1.57
406.205	1.59
406.569	1.58
406.933	1.5
407.296	1.56
407.66	1.63
408.024	1.53
408.388	1.69
408.752	1.62
409.115	1.57
409.479	1.59
409.842	1.51
410.206	1.54
410.569	1.53
410.933	1.56
411.296	1.41
411.66	1.6
412.023	1.49
412.386	1.57
412.749	1.44
413.113	1.6
413.476	1.48
413.839	1.49
414.202	1.64
414.565	1.39
414.928	1.4
415.291	1.47
415.654	1.49
416.017	1.42
416.38	1.54
416.742	1.38
417.105	1.41
417.468	1.47
417.83	1.46
418.193	1.48
418.556	1.42
418.918	1.42
419.281	1.58
419.643	1.62
420.005	1.44
420.368	1.55
420.73	1.54
421.092	1.71
421.455	1.67
421.817	1.32
422.179	1.38
422.541	1.55
422.903	1.57
423.265	1.65
423.627	1.53
423.989	1.51
424.351	1.52
424.713	1.58
425.075	1.45
425.436	1.48
425.798	1.46
426.16	1.63
426.521	1.4
426.883	1.6
427.245	1.52
427.606	1.52
427.967	1.4
428.329	1.43
428.69	1.6
429.052	1.43
429.413	1.72
429.774	1.5
430.135	1.55
430.497	1.55
430.858	1.43
431.219	1.69
431.58	1.47
431.941	1.55
432.302	1.49
432.663	1.56
433.024	1.63
433.384	1.6
433.745	1.44
434.106	1.59
434.467	1.49
434.827	1.54
435.188	1.52
435.548	1.7
435.909	1.55
436.269	1.56
436.63	1.54
436.99	1.49
437.351	1.38
437.711	1.51
438.071	1.41
438.431	1.47
438.792	1.54
439.152	1.46
439.512	1.42
439.872	1.49
440.232	1.5
440.592	1.54
440.952	1.49
441.312	1.49
441.671	1.42
442.031	1.45
442.391	1.45
442.751	1.42
443.11	1.58
443.47	1.48
443.83	1.37
444.189	1.41
444.549	1.43
444.908	1.39
445.267	1.39
445.627	1.48
445.986	1.43
446.345	1.39
446.705	1.38
447.064	1.4
447.423	1.39
447.782	1.39
448.141	1.41
448.5	1.32
448.859	1.36
449.218	1.39
449.577	1.4
449.936	1.38
450.295	1.38
450.653	1.36
451.012	1.36
451.371	1.35
451.729	1.31
452.088	1.38
452.447	1.34
452.805	1.32
453.163	1.34
453.522	1.32
453.88	1.27
454.239	1.29
454.597	1.29
454.955	1.24
455.313	1.22
455.671	1.23
456.029	1.26
456.388	1.2
456.746	1.2
457.104	1.21
457.461	1.18
457.819	1.19
458.177	1.16
458.535	1.14
458.893	1.12
459.25	1.12
459.608	1.12
459.966	1.08
460.323	1.07
460.681	1.05
461.038	1.03
461.396	1.03
461.753	1
462.111	1.01
462.468	0.98
462.825	0.97
463.182	0.96
463.54	0.92
463.897	0.94
464.254	0.93
464.611	0.89
464.968	0.88
465.325	0.89
465.682	0.87
466.039	0.84
466.395	0.84
466.752	0.82
467.109	0.82
467.466	0.81
467.822	0.79
468.179	0.77
468.535	0.78
468.892	0.76
469.248	0.74
469.605	0.74
469.961	0.72
470.318	0.73
470.674	0.69
471.03	0.68
471.386	0.67
471.743	0.65
472.099	0.64
472.455	0.64
472.811	0.63
473.167	0.61
473.523	0.6
473.879	0.6
474.235	0.58
474.59	0.55
474.946	0.56
475.302	0.55
475.657	0.54
476.013	0.53
476.369	0.51
476.724	0.51
477.08	0.51
477.435	0.5
477.791	0.48
478.146	0.47
478.501	0.47
478.857	0.46
479.212	0.45
479.567	0.43
479.922	0.42
480.277	0.41
480.632	0.4
480.987	0.4
481.342	0.39
481.697	0.37
482.052	0.37
482.407	0.37
482.762	0.36
483.116	0.35
483.471	0.35
483.826	0.33
484.18	0.33
484.535	0.32
484.89	0.31
485.244	0.31
485.598	0.3
485.953	0.29
486.307	0.28
486.661	0.28
487.016	0.27
487.37	0.27
487.724	0.26
488.078	0.26
488.432	0.26
488.786	0.25
489.14	0.24
489.494	0.24
489.848	0.23
490.202	0.22
490.556	0.22
490.91	0.22
491.263	0.21
491.617	0.21
491.971	0.2
492.324	0.19
492.678	0.19
493.031	0.19
493.385	0.19
493.738	0.18
494.091	0.18
494.445	0.17
494.798	0.17
495.151	0.16
495.504	0.16
495.857	0.16
496.21	0.16
496.564	0.15
496.916	0.15
497.269	0.14
497.622	0.15
497.975	0.13
498.328	0.14
498.681	0.14
499.033	0.13
499.386	0.12
499.739	0.12
500.091	0.12
500.444	0.11
500.796	0.11
501.149	0.11
501.501	0.11
501.854	0.11
502.206	0.11
502.558	0.1
502.91	0.11
503.263	0.1
503.615	0.1
503.967	0.1
504.319	0.1
504.671	0.09
505.023	0.09
505.375	0.09
505.726	0.08
506.078	0.09
506.43	0.08
506.782	0.08
507.133	0.07
507.485	0.09
507.837	0.09
508.188	0.08
508.54	0.08
508.891	0.09
509.243	0.07
509.594	0.08
509.945	0.07
510.296	0.06
510.648	0.07
510.999	0.06
511.35	0.07
511.701	0.07
512.052	0.07
512.403	0.06
512.754	0.06
513.105	0.06
513.456	0.06
513.807	0.06
514.157	0.06
514.508	0.06
514.859	0.06
515.209	0.06
515.56	0.05
515.91	0.06
516.261	0.06
516.611	0.05
516.962	0.05
517.312	0.05
517.662	0.05
518.013	0.05
518.363	0.06
518.713	0.06
519.063	0.05
519.413	0.05
519.763	0.05
520.113	0.06
520.463	0.06
520.813	0.05
521.163	0.06
521.512	0.05
521.862	0.05
522.212	0.06
522.562	0.05
522.911	0.05
523.261	0.05
523.61	0.06
523.96	0.04
524.309	0.05
524.658	0.05
525.008	0.05
525.357	0.05
525.706	0.05
526.056	0.04
526.405	0.04
526.754	0.05
527.103	0.04
527.452	0.05
527.801	0.04
528.15	0.05
528.499	0.05
528.847	0.05
529.196	0.06
529.545	0.05
529.893	0.06
530.242	0.05
530.591	0.06
530.939	0.06
531.288	0.06
531.636	0.05
531.985	0.05
532.333	0.05
532.681	0.05
533.029	0.05
533.378	0.05
533.726	0.05
534.074	0.05
534.422	0.04
534.77	0.05
535.118	0.05
535.466	0.04
535.814	0.05
536.162	0.05
536.509	0.05
536.857	0.04
537.205	0.05
537.552	0.05
537.9	0.05
538.248	0.05
538.595	0.05
538.943	0.04
539.29	0.05
539.637	0.05
539.985	0.05
540.332	0.05
540.679	0.05
541.026	0.04
541.373	0.05
541.721	0.05
542.068	0.04
542.415	0.04
542.762	0.04
543.108	0.04
543.455	0.03
543.802	0.03
544.149	0.04
544.496	0.03
544.842	0.03
545.189	0.03
545.535	0.04
545.882	0.04
546.228	0.03
546.575	0.02
546.921	0.02
547.267	0.03
547.614	0.03
547.96	0.03
548.306	0.03
548.652	0.03
548.998	0.04
549.344	0.03
549.69	0.03
550.036	0.03
550.382	0.03
550.728	0.03
551.074	0.04
551.42	0.03
551.765	0.04
552.111	0.04
552.457	0.04
552.802	0.04
553.148	0.03
553.493	0.03
553.839	0.04
554.184	0.04
554.529	0.03
554.875	0.04
555.22	0.04
555.565	0.05
555.91	0.04
556.255	0.04
556.6	0.04
556.945	0.03
557.29	0.04
557.635	0.04
557.98	0.04
558.325	0.04
558.67	0.04
559.014	0.04
559.359	0.04
559.704	0.04
560.048	0.03
560.393	0.04
560.737	0.03
561.082	0.03
561.426	0.02
561.77	0.03
562.115	0.03
562.459	0.03
562.803	0.03
563.147	0.03
563.491	0.04
563.835	0.04
564.179	0.03
564.523	0.03
564.867	0.03
565.211	0.04
565.555	0.03
565.899	0.04
566.242	0.03
566.586	0.03
566.93	0.03
567.273	0.05
567.617	0.03
567.96	0.04
568.304	0.04
568.647	0.03
568.99	0.04
569.334	0.05
569.677	0.04
570.02	0.04
570.363	0.04
570.706	0.04
571.049	0.04
571.392	0.04
571.735	0.04
572.078	0.03
572.421	0.05
572.764	0.04
573.106	0.04
573.449	0.04
573.792	0.03
574.134	0.04
574.477	0.04
574.819	0.04
575.162	0.04
575.504	0.03
575.847	0.04
576.189	0.03
576.531	0.04
576.873	0.03
577.215	0.04
577.558	0.04
577.9	0.02
578.242	0.04
578.584	0.03
578.926	0.04
579.267	0.03
579.609	0.03
579.951	0.04
580.293	0.03
580.634	0.03
580.976	0.03
581.318	0.03
581.659	0.03
582.001	0.04
582.342	0.03
582.683	0.04
583.025	0.03
583.366	0.03
583.707	0.04
584.049	0.03
584.39	0.03
584.731	0.03
585.072	0.03
585.413	0.04
585.754	0.03
586.095	0.03
586.435	0.03
586.776	0.04
587.117	0.03
587.458	0.03
587.798	0.03
588.139	0.04
588.48	0.03
588.82	0.03
589.161	0.03
589.501	0.03
589.841	0.03
590.182	0.03
590.522	0.03
590.862	0.03
591.202	0.03
591.542	0.02
591.882	0.03
592.222	0.03
592.562	0.03
592.902	0.03
593.242	0.03
593.582	0.04
593.922	0.03
594.261	0.02
594.601	0.03
594.941	0.03
595.28	0.03
595.62	0.03
595.959	0.03
596.299	0.02
596.638	0.03
596.977	0.03
597.317	0.04
597.656	0.03
597.995	0.03
598.334	0.04
598.673	0.03
599.012	0.04
599.351	0.04
599.69	0.04
600.029	0.05
600.368	0.05
600.707	0.05
601.046	0.04
601.384	0.04
601.723	0.05
602.061	0.03
602.4	0.04
602.738	0.04
603.077	0.04
603.415	0.04
603.754	0.04
604.092	0.04
604.43	0.04
604.768	0.04
605.107	0.04
605.445	0.03
605.783	0.03
606.121	0.03
606.459	0.03
606.796	0.04
607.134	0.03
607.472	0.02
607.81	0.03
608.148	0.03
608.485	0.04
608.823	0.04
609.16	0.03
609.498	0.04
609.835	0.03
610.173	0.04
610.51	0.04
610.847	0.04
611.185	0.04
611.522	0.04
611.859	0.04
612.196	0.04
612.533	0.04
612.87	0.04
613.207	0.04
613.544	0.04
613.881	0.05
614.217	0.04
614.554	0.04
614.891	0.04
615.228	0.04
615.564	0.04
615.901	0.04
616.237	0.05
616.574	0.04
616.91	0.05
617.246	0.05
617.583	0.05
617.919	0.05
618.255	0.05
618.591	0.05
618.927	0.04
619.263	0.05
619.599	0.05
619.935	0.05
620.271	0.05
620.607	0.05
620.943	0.04
621.279	0.05
621.614	0.04
621.95	0.05
622.286	0.04
622.621	0.04
622.957	0.04
623.292	0.04
623.627	0.04
623.963	0.04
624.298	0.05
624.633	0.04
624.968	0.04
625.304	0.04
625.639	0.04
625.974	0.04
626.309	0.04
626.644	0.04
626.979	0.05
627.313	0.04
627.648	0.04
627.983	0.04
628.318	0.03
628.652	0.04
628.987	0.04
629.321	0.04
629.656	0.04
629.99	0.03
630.325	0.03
630.659	0.04
630.993	0.03
631.327	0.04
631.662	0.03
631.996	0.03
632.33	0.03
632.664	0.03
632.998	0.03
633.332	0.02
633.666	0.03
633.999	0.03
634.333	0.02
634.667	0.03
635.001	0.03
635.334	0.03
635.668	0.03
636.001	0.02
636.335	0.03
636.668	0.03
637.001	0.03
637.335	0.02
637.668	0.03
638.001	0.02
638.334	0.03
638.668	0.03
639.001	0.03
639.334	0.02
639.667	0.03
639.999	0.03
640.332	0.02
640.665	0.02
640.998	0.03
641.331	0.03
641.663	0.03
641.996	0.03
642.328	0.03
642.661	0.03
642.993	0.03
643.326	0.03
643.658	0.04
643.99	0.03
644.323	0.04
644.655	0.04
644.987	0.04
645.319	0.04
645.651	0.04
645.983	0.04
646.315	0.04
646.647	0.04
646.979	0.05
647.31	0.05
647.642	0.04
647.974	0.04
648.305	0.05
648.637	0.04
648.968	0.04
649.3	0.04
649.631	0.04
649.963	0.04
650.294	0.04
650.625	0.04
650.957	0.04
651.288	0.04
651.619	0.04
651.95	0.04
652.281	0.04
652.612	0.04
652.943	0.05
653.274	0.05
653.604	0.04
653.935	0.04
654.266	0.04
654.596	0.04
654.927	0.04
655.258	0.05
655.588	0.05
655.918	0.05
656.249	0.03
656.579	0.04
656.909	0.04
657.24	0.04
657.57	0.05
657.9	0.04
658.23	0.04
658.56	0.04
658.89	0.04
659.22	0.04
659.55	0.04
659.88	0.04
660.209	0.04
660.539	0.05
660.869	0.04
661.198	0.04
661.528	0.04
661.857	0.04
662.187	0.04
662.516	0.04
662.846	0.04
663.175	0.04
663.504	0.04
663.833	0.04
664.163	0.04
664.492	0.03
664.821	0.04
665.15	0.04
665.479	0.04
665.807	0.04
666.136	0.04
666.465	0.04
666.794	0.04
667.122	0.04
667.451	0.04
667.78	0.04
668.108	0.05
668.437	0.05
668.765	0.05
669.093	0.05
669.422	0.05
669.75	0.05
670.078	0.04
670.406	0.04
670.734	0.05
671.062	0.05
671.39	0.04
671.718	0.05
672.046	0.05
672.374	0.04
672.702	0.04
673.029	0.04
673.357	0.04
673.685	0.05
674.012	0.05
674.34	0.04
674.667	0.05
674.995	0.04
675.322	0.04
675.649	0.04
675.977	0.04
676.304	0.05
676.631	0.04
676.958	0.04
677.285	0.04
677.612	0.04
677.939	0.04
678.266	0.05
678.593	0.05
678.92	0.04
679.246	0.04
679.573	0.04
679.9	0.04
680.226	0.04
680.553	0.04
680.879	0.04
681.206	0.04
681.532	0.05
681.858	0.05
682.184	0.04
682.511	0.04
682.837	0.04
683.163	0.05
683.489	0.04
683.815	0.05
684.141	0.05
684.467	0.05
684.793	0.05
685.118	0.04
685.444	0.05
685.77	0.05
686.095	0.04
686.421	0.05
686.746	0.05
687.072	0.05
687.397	0.04
687.723	0.05
688.048	0.05
688.373	0.04
688.698	0.04
689.023	0.04
689.349	0.04
689.674	0.04
689.999	0.04
690.323	0.03
690.648	0.04
690.973	0.03
691.298	0.04
691.623	0.04
691.947	0.04
692.272	0.04
692.596	0.04
692.921	0.04
693.245	0.04
693.57	0.04
693.894	0.05
694.218	0.05
694.543	0.04
694.867	0.04
695.191	0.04
695.515	0.05
695.839	0.04
696.163	0.05
696.487	0.05
696.811	0.05
697.135	0.05
697.458	0.05
697.782	0.04
698.106	0.04
698.429	0.04
698.753	0.04
699.076	0.04
699.4	0.04
699.723	0.04
700.046	0.04
700.37	0.05
700.693	0.04
701.016	0.05
701.339	0.05
701.662	0.05
701.985	0.05
702.308	0.04
702.631	0.05
702.954	0.04
703.277	0.04
703.599	0.04
703.922	0.04
704.245	0.04
704.567	0.04
704.89	0.04
705.212	0.04
705.535	0.03
705.857	0.03
706.179	0.03
706.502	0.03
706.824	0.03
707.146	0.03
707.468	0.04
707.79	0.04
708.112	0.04
708.434	0.04
708.756	0.04
709.078	0.04
709.399	0.03
709.721	0.04
710.043	0.05
710.364	0.04
710.686	0.04
711.007	0.04
711.329	0.05
711.65	0.04
711.972	0.04
712.293	0.05
712.614	0.05
712.935	0.05
713.256	0.05
713.577	0.05
713.898	0.05
714.219	0.04
714.54	0.04
714.861	0.04
715.182	0.05
715.503	0.04
715.823	0.04
716.144	0.04
716.464	0.03
716.785	0.04
717.105	0.04
717.426	0.04
717.746	0.04
718.066	0.04
718.387	0.04
718.707	0.03
719.027	0.04
719.347	0.03
719.667	0.04
719.987	0.03
720.307	0.03
720.627	0.03
720.947	0.04
721.266	0.03
721.586	0.04
721.906	0.04
722.225	0.03
722.545	0.03
722.864	0.03
723.184	0.04
723.503	0.03
723.823	0.05
724.142	0.03
724.461	0.04
724.78	0.04
725.099	0.04
725.418	0.04
725.737	0.04
726.056	0.04
726.375	0.04
726.694	0.05
727.013	0.04
727.331	0.03
727.65	0.03
727.969	0.04
728.287	0.04
728.606	0.04
728.924	0.03
729.242	0.04
729.561	0.04
729.879	0.04
730.197	0.04
730.515	0.03
730.834	0.04
731.152	0.03
731.47	0.04
731.788	0.04
732.105	0.03
732.423	0.04
732.741	0.04
733.059	0.04
733.376	0.05
733.694	0.03
734.012	0.04
734.329	0.05
734.647	0.04
734.964	0.05
735.281	0.05
735.599	0.06
735.916	0.05
736.233	0.04
736.55	0.05
736.867	0.04
737.184	0.05
737.501	0.05
737.818	0.05
738.135	0.06
738.452	0.04
738.768	0.05
739.085	0.04
739.402	0.04
739.718	0.05
740.035	0.05
740.351	0.05
740.668	0.05
740.984	0.04
741.3	0.04
741.617	0.04
741.933	0.04
742.249	0.05
742.565	0.05
742.881	0.04
743.197	0.05
743.513	0.04
743.829	0.03
744.144	0.04
744.46	0.04
744.776	0.04
745.091	0.04
745.407	0.04
745.722	0.04
746.038	0.04
746.353	0.03
746.669	0.04
746.984	0.04
747.299	0.04
747.614	0.04
747.93	0.05
748.245	0.03
748.56	0.04
748.875	0.03
749.189	0.04
749.504	0.04
749.819	0.04
750.134	0.04
750.448	0.03
750.763	0.03
751.078	0.03
751.392	0.03
751.707	0.04
752.021	0.05
752.335	0.04
752.65	0.04
752.964	0.04
753.278	0.04
753.592	0.04
753.906	0.03
754.22	0.04
754.534	0.04
754.848	0.04
755.162	0.04
755.476	0.04
755.789	0.05
756.103	0.04
756.417	0.04
756.73	0.04
757.044	0.04
757.357	0.03
757.671	0.04
757.984	0.05
758.297	0.04
758.61	0.05
758.924	0.04
759.237	0.03
759.55	0.04
759.863	0.03
760.176	0.04
760.488	0.04
760.801	0.04
761.114	0.04
761.427	0.03
761.739	0.04
762.052	0.04
762.365	0.04
762.677	0.04
762.99	0.03
763.302	0.04
763.614	0.04
763.926	0.04
764.239	0.04
764.551	0.04
764.863	0.04
765.175	0.04
765.487	0.04
765.799	0.04
766.111	0.03
766.423	0.04
766.734	0.04
767.046	0.03
767.358	0.04
767.669	0.04
767.981	0.04
768.292	0.04
768.604	0.04
768.915	0.04
769.226	0.05
769.537	0.03
769.849	0.04
770.16	0.03
770.471	0.03
770.782	0.04
771.093	0.04
771.404	0.03
771.715	0.03
772.025	0.03
772.336	0.03
772.647	0.03
772.957	0.03
773.268	0.04
773.578	0.03
773.889	0.04
774.199	0.05
774.51	0.04
774.82	0.04
775.13	0.04
775.44	0.04
775.75	0.04
776.06	0.04
776.37	0.05
776.68	0.04
776.99	0.04
777.3	0.04
777.61	0.05
777.92	0.05
778.229	0.04
778.539	0.04
778.848	0.04
779.158	0.05
779.467	0.05
779.777	0.04
780.086	0.05
780.395	0.04
780.704	0.04
781.013	0.03
781.323	0.04
781.632	0.04
781.941	0.04
782.249	0.04
782.558	0.04
782.867	0.04
783.176	0.03
783.485	0.05
783.793	0.05
784.102	0.04
784.41	0.03
784.719	0.04
785.027	0.03
785.335	0.05
785.644	0.04
785.952	0.04
786.26	0.03
786.568	0.03
786.876	0.03
787.184	0.04
787.492	0.04
787.8	0.04
788.108	0.04
788.416	0.04
788.723	0.04
789.031	0.03
789.338	0.04
789.646	0.04
789.953	0.04
790.261	0.05
790.568	0.05
790.876	0.04
791.183	0.05
791.49	0.04
791.797	0.04
792.104	0.04
792.411	0.04
792.718	0.04
793.025	0.04
793.332	0.04
793.639	0.05
793.945	0.05
794.252	0.05
794.559	0.05
794.865	0.05
795.172	0.04
795.478	0.04
795.784	0.05
796.091	0.05
796.397	0.05
796.703	0.06
797.009	0.05
797.315	0.05
797.622	0.05
797.927	0.05
798.233	0.05
798.539	0.05
798.845	0.05
799.151	0.05
799.456	0.06
799.762	0.05
800.068	0.05
800.373	0.05
800.679	0.05
800.984	0.04
801.289	0.04
801.595	0.05
801.9	0.04
802.205	0.05
802.51	0.05
802.815	0.04
803.12	0.05
803.425	0.05
803.73	0.05
804.035	0.05
804.339	0.05
804.644	0.05
804.949	0.04
805.253	0.04
805.558	0.05
805.862	0.05
806.167	0.05
806.471	0.04
806.775	0.05
807.08	0.05
807.384	0.05
807.688	0.04
807.992	0.05
808.296	0.04
808.6	0.05
808.904	0.05
809.207	0.05
809.511	0.05
809.815	0.06
810.119	0.05
810.422	0.05
810.726	0.06
811.029	0.06
811.332	0.06
811.636	0.06
811.939	0.05
812.242	0.06
812.546	0.05
812.849	0.05
813.152	0.06
813.455	0.05
813.758	0.05
814.06	0.06
814.363	0.05
814.666	0.06
814.969	0.06
815.271	0.05
815.574	0.05
815.877	0.05
816.179	0.04
816.481	0.05
816.784	0.05
817.086	0.04
817.388	0.04
817.69	0.04
817.993	0.03
818.295	0.04
818.597	0.04
818.899	0.03
819.2	0.03
819.502	0.04
819.804	0.04
820.106	0.03
820.407	0.03
820.709	0.04
821.01	0.04
821.312	0.04
821.613	0.04
821.915	0.04
822.216	0.03
822.517	0.03
822.818	0.03
823.119	0.04
823.42	0.03
823.721	0.03
824.022	0.03
824.323	0.03
824.624	0.03
824.925	0.04
825.226	0.04
825.526	0.03
825.827	0.04
826.127	0.04
826.428	0.04
826.728	0.03
827.028	0.03
827.329	0.02
827.629	0.02
827.929	0.03
828.229	0.04
828.529	0.03
828.829	0.03
829.129	0.03
829.429	0.02
829.729	0.03
830.029	0.03
830.328	0.03
830.628	0.02
830.927	0.02
831.227	0.02
831.526	0.03
831.826	0.02
832.125	0.02
832.424	0.02
832.724	0.03
833.023	0.02
833.322	0.03
833.621	0.02
833.92	0.02
834.219	0.03
834.518	0.02
834.816	0.01
835.115	0.02
835.414	0.02
835.712	0.02
836.011	0.01
836.309	0.01
836.608	0.01
836.906	-0
837.205	-0
837.503	-0
837.801	0
838.099	-0.01
838.397	-0.01
838.695	-0.01
838.993	-0.01
839.291	-0.02
839.589	-0
839.887	-0.01
840.184	-0.01
840.482	-0.02
840.78	-0.01
841.077	-0.01
841.375	-0.02
841.672	-0.01
841.969	-0.01
842.267	-0.02
842.564	-0.01
842.861	-0.01
843.158	-0.02
843.455	-0.03
843.752	-0.01
844.049	-0.03
844.346	-0.01
844.643	-0.03
844.94	-0.03
845.236	-0.01
845.533	-0.02
845.83	-0.03
846.126	-0.02
846.423	-0.02
846.719	-0.03
847.015	-0.03
847.312	-0.03
847.608	-0.04
847.904	-0.04
848.2	-0.04
848.496	-0.03
848.792	-0.03
849.088	-0.03
849.384	-0.03
849.68	-0.05
849.975	-0.04
850.271	-0.04
850.567	-0.05
850.862	-0.06
851.158	-0.05
851.453	-0.05
851.748	-0.06
852.044	-0.05
852.339	-0.05
852.634	-0.07
852.929	-0.06
853.224	-0.06
853.519	-0.06
853.814	-0.06
854.109	-0.06
854.404	-0.06
854.699	-0.07
854.994	-0.06
855.288	-0.05
855.583	-0.05
855.877	-0.06
856.172	-0.06
856.466	-0.07
856.76	-0.07
857.055	-0.07
857.349	-0.08
857.643	-0.07
857.937	-0.08
858.231	-0.08
858.525	-0.09
858.819	-0.09
859.113	-0.1
859.407	-0.09
859.701	-0.1
859.994	-0.1
860.288	-0.09
860.581	-0.1
860.875	-0.09
861.168	-0.1
861.462	-0.11
861.755	-0.1
862.048	-0.11
862.341	-0.1
862.634	-0.11
862.928	-0.1
863.221	-0.11
863.513	-0.12
863.806	-0.11
864.099	-0.11
864.392	-0.12
864.685	-0.11
864.977	-0.11
865.27	-0.1
865.562	-0.11
865.855	-0.11
866.147	-0.12
866.44	-0.11
866.732	-0.13
867.024	-0.12
867.316	-0.13
867.608	-0.13
867.9	-0.11
868.192	-0.12
868.484	-0.13
868.776	-0.13
869.068	-0.13
869.359	-0.13
869.651	-0.14
869.943	-0.14
870.234	-0.14
870.526	-0.14
870.817	-0.15
871.108	-0.14
871.4	-0.13
871.691	-0.15
871.982	-0.15
872.273	-0.15
872.564	-0.15
872.855	-0.15
873.146	-0.16
873.437	-0.16
873.728	-0.16
874.019	-0.16
874.309	-0.15
874.6	-0.16
874.89	-0.16
875.181	-0.15
875.471	-0.15
875.762	-0.16
876.052	-0.15
876.342	-0.15
876.632	-0.16
876.922	-0.16
877.213	-0.16
877.503	-0.18
877.792	-0.17
878.082	-0.18
878.372	-0.17
878.662	-0.19
878.952	-0.17
879.241	-0.17
879.531	-0.17
879.82	-0.17
880.11	-0.16
880.399	-0.17
880.688	-0.17
880.978	-0.17
881.267	-0.17
