Data from 12-12-AQDScycling_Absorbance__63__00063.txt Node

Date: Tue Dec 12 11:12:29 EST 2023
User: kyuminlee
Spectrometer: FLMS00943
Trigger mode: 0
Integration Time (sec): 1.000000E-1
Scans to average: 1
Electric dark correction enabled: true
Nonlinearity correction enabled: false
Boxcar width: 0
XAxis mode: Wavelengths
Number of Pixels in Spectrum: 2048
>>>>>Begin Spectral Data<<<<<
179.651	-0
180.037	-0
180.424	-0
180.81	-0.3
181.197	0.21
181.583	-0.45
181.97	0.04
182.356	-0
182.743	-0
183.129	-0.18
183.515	0.11
183.901	-2.73
184.288	0.24
184.674	-0
185.06	-1.06
185.446	-0.48
185.832	-0
186.218	0.24
186.604	-0.11
186.99	-0
187.376	-0
187.762	-0
188.148	0.55
188.534	-0.3
188.92	0.11
189.305	0.02
189.691	0.18
190.077	0.15
190.463	0.2
190.848	0.25
191.234	0.06
191.619	0.18
192.005	0.07
192.391	0.13
192.776	0.17
193.161	0.25
193.547	0.12
193.932	0.2
194.318	0.04
194.703	0.27
195.088	0.19
195.473	0.25
195.859	0.24
196.244	0.19
196.629	0.18
197.014	0.18
197.399	0.37
197.784	0.07
198.169	0.16
198.554	0.17
198.939	0.11
199.324	0.22
199.709	0.12
200.094	0.14
200.478	0.28
200.863	0.17
201.248	0.07
201.633	0.07
202.017	0.17
202.402	0.5
202.787	0.17
203.171	0.25
203.556	0.35
203.94	0.3
204.325	0.19
204.709	0.26
205.093	0.07
205.478	0.1
205.862	0.03
206.246	0.18
206.631	0.16
207.015	0.2
207.399	0.24
207.783	0.19
208.167	0.16
208.551	0.28
208.935	0.11
209.319	0.14
209.703	0.03
210.087	0.29
210.471	0.12
210.855	0.17
211.239	0.13
211.623	0.21
212.007	0.19
212.39	0.26
212.774	0.2
213.158	0.12
213.541	0.31
213.925	0.23
214.309	0.31
214.692	0.32
215.076	0.15
215.459	0.22
215.842	0.18
216.226	0.28
216.609	0.3
216.993	0.23
217.376	0.44
217.759	0.17
218.142	0.4
218.525	0.54
218.909	0.47
219.292	0.41
219.675	0.52
220.058	0.39
220.441	0.46
220.824	0.42
221.207	0.57
221.59	0.45
221.973	0.52
222.355	0.55
222.738	0.8
223.121	0.52
223.504	0.56
223.886	0.68
224.269	0.71
224.652	0.6
225.034	0.8
225.417	0.67
225.799	0.64
226.182	0.9
226.564	0.79
226.947	0.86
227.329	0.8
227.711	1.06
228.094	0.98
228.476	0.97
228.858	0.77
229.24	0.87
229.623	0.85
230.005	0.88
230.387	0.88
230.769	0.8
231.151	0.96
231.533	0.93
231.915	0.93
232.297	0.96
232.679	0.96
233.061	1.14
233.442	1.03
233.824	1.01
234.206	1.08
234.588	1.05
234.969	1.21
235.351	1.08
235.733	1.17
236.114	1.23
236.496	1.04
236.877	1.01
237.259	1.06
237.64	1.07
238.022	0.94
238.403	0.98
238.784	1
239.165	0.98
239.547	1.18
239.928	1.18
240.309	1.03
240.69	1.05
241.071	1.19
241.452	1.13
241.834	0.98
242.215	1.07
242.595	1.03
242.976	1.19
243.357	1.16
243.738	1.14
244.119	1.35
244.5	1.16
244.881	1.28
245.261	1.2
245.642	1.09
246.023	1.29
246.403	1.21
246.784	1.34
247.164	1.3
247.545	1.28
247.925	1.26
248.306	1.3
248.686	1.36
249.067	1.4
249.447	1.41
249.827	1.45
250.207	1.36
250.588	1.3
250.968	1.42
251.348	1.36
251.728	1.35
252.108	1.41
252.488	1.42
252.868	1.39
253.248	1.41
253.628	1.4
254.008	1.49
254.388	1.32
254.768	1.38
255.147	1.41
255.527	1.53
255.907	1.38
256.287	1.34
256.666	1.36
257.046	1.33
257.425	1.55
257.805	1.33
258.184	1.41
258.564	1.44
258.943	1.33
259.323	1.5
259.702	1.48
260.081	1.45
260.461	1.48
260.84	1.48
261.219	1.67
261.598	1.47
261.977	1.34
262.356	1.62
262.736	1.61
263.115	1.5
263.494	1.46
263.873	1.54
264.251	1.52
264.63	1.64
265.009	1.52
265.388	1.35
265.767	1.34
266.145	1.45
266.524	1.41
266.903	1.44
267.281	1.42
267.66	1.57
268.039	1.42
268.417	1.36
268.796	1.42
269.174	1.55
269.552	1.33
269.931	1.48
270.309	1.48
270.687	1.45
271.066	1.68
271.444	1.31
271.822	1.49
272.2	1.4
272.578	1.45
272.956	1.39
273.334	1.37
273.712	1.49
274.09	1.44
274.468	1.47
274.846	1.24
275.224	1.36
275.602	1.49
275.98	1.46
276.357	1.44
276.735	1.4
277.113	1.64
277.49	1.47
277.868	1.28
278.246	1.42
278.623	1.41
279.001	1.27
279.378	1.43
279.756	1.39
280.133	1.64
280.51	1.37
280.888	1.42
281.265	1.37
281.642	1.43
282.019	1.6
282.396	1.8
282.773	1.45
283.151	1.56
283.528	1.57
283.905	1.4
284.282	1.52
284.659	1.67
285.035	1.32
285.412	1.43
285.789	1.47
286.166	1.42
286.543	1.38
286.919	1.59
287.296	1.39
287.673	1.58
288.049	1.6
288.426	1.71
288.802	1.48
289.179	1.5
289.555	1.77
289.932	1.61
290.308	1.35
290.684	1.51
291.061	1.34
291.437	1.54
291.813	1.38
292.189	1.3
292.565	1.33
292.942	1.34
293.318	1.5
293.694	1.52
294.07	1.33
294.446	1.39
294.822	1.54
295.197	1.36
295.573	1.43
295.949	1.55
296.325	1.54
296.701	1.6
297.076	1.59
297.452	1.48
297.828	1.36
298.203	1.65
298.579	1.35
298.954	1.4
299.33	1.33
299.705	1.4
300.081	1.62
300.456	1.51
300.831	1.46
301.206	1.42
301.582	1.61
301.957	1.43
302.332	1.46
302.707	1.43
303.082	1.49
303.457	1.41
303.832	1.4
304.207	1.39
304.582	1.43
304.957	1.39
305.332	1.43
305.707	1.35
306.082	1.41
306.456	1.42
306.831	1.29
307.206	1.39
307.58	1.42
307.955	1.32
308.33	1.51
308.704	1.3
309.079	1.33
309.453	1.47
309.828	1.4
310.202	1.29
310.576	1.32
310.951	1.34
311.325	1.32
311.699	1.33
312.073	1.29
312.447	1.39
312.821	1.27
313.196	1.37
313.57	1.28
313.944	1.26
314.317	1.3
314.691	1.34
315.065	1.28
315.439	1.47
315.813	1.37
316.187	1.26
316.56	1.43
316.934	1.4
317.308	1.3
317.681	1.44
318.055	1.34
318.428	1.4
318.802	1.45
319.175	1.31
319.549	1.37
319.922	1.27
320.295	1.37
320.669	1.49
321.042	1.53
321.415	1.39
321.788	1.33
322.162	1.37
322.535	1.36
322.908	1.46
323.281	1.36
323.654	1.5
324.027	1.31
324.4	1.45
324.773	1.48
325.145	1.32
325.518	1.31
325.891	1.35
326.264	1.45
326.636	1.28
327.009	1.39
327.382	1.43
327.754	1.44
328.127	1.42
328.499	1.42
328.872	1.43
329.244	1.47
329.616	1.37
329.989	1.34
330.361	1.46
330.733	1.34
331.106	1.39
331.478	1.44
331.85	1.38
332.222	1.31
332.594	1.44
332.966	1.4
333.338	1.62
333.71	1.47
334.082	1.49
334.454	1.35
334.826	1.42
335.197	1.45
335.569	1.36
335.941	1.32
336.312	1.32
336.684	1.44
337.056	1.36
337.427	1.52
337.799	1.46
338.17	1.48
338.542	1.39
338.913	1.38
339.284	1.39
339.656	1.45
340.027	1.5
340.398	1.44
340.769	1.33
341.141	1.61
341.512	1.47
341.883	1.55
342.254	1.56
342.625	1.44
342.996	1.41
343.367	1.52
343.738	1.41
344.108	1.37
344.479	1.52
344.85	1.34
345.221	1.51
345.591	1.4
345.962	1.29
346.333	1.29
346.703	1.27
347.074	1.31
347.444	1.32
347.815	1.28
348.185	1.3
348.556	1.34
348.926	1.27
349.296	1.33
349.666	1.35
350.037	1.31
350.407	1.18
350.777	1.26
351.147	1.35
351.517	1.35
351.887	1.29
352.257	1.34
352.627	1.27
352.997	1.22
353.367	1.44
353.737	1.34
354.106	1.3
354.476	1.31
354.846	1.38
355.216	1.39
355.585	1.43
355.955	1.31
356.324	1.36
356.694	1.49
357.063	1.34
357.433	1.36
357.802	1.34
358.171	1.46
358.541	1.34
358.91	1.36
359.279	1.37
359.648	1.33
360.017	1.35
360.387	1.45
360.756	1.32
361.125	1.45
361.494	1.33
361.863	1.27
362.231	1.35
362.6	1.38
362.969	1.38
363.338	1.34
363.707	1.46
364.075	1.37
364.444	1.28
364.813	1.36
365.181	1.33
365.55	1.31
365.918	1.42
366.287	1.4
366.655	1.42
367.024	1.54
367.392	1.43
367.76	1.32
368.128	1.37
368.497	1.35
368.865	1.35
369.233	1.34
369.601	1.37
369.969	1.44
370.337	1.48
370.705	1.44
371.073	1.46
371.441	1.32
371.809	1.51
372.177	1.34
372.544	1.37
372.912	1.4
373.28	1.42
373.647	1.46
374.015	1.58
374.383	1.62
374.75	1.53
375.118	1.44
375.485	1.46
375.853	1.48
376.22	1.48
376.587	1.38
376.955	1.48
377.322	1.49
377.689	1.58
378.056	1.46
378.423	1.41
378.79	1.6
379.157	1.46
379.524	1.5
379.891	1.44
380.258	1.53
380.625	1.42
380.992	1.45
381.359	1.53
381.726	1.84
382.092	1.43
382.459	1.49
382.826	1.49
383.192	1.72
383.559	1.67
383.925	1.69
384.292	1.61
384.658	1.75
385.025	1.68
385.391	1.78
385.757	1.62
386.123	1.53
386.49	1.52
386.856	1.61
387.222	1.65
387.588	1.53
387.954	1.65
388.32	1.56
388.686	1.7
389.052	1.56
389.418	1.64
389.784	1.49
390.15	1.6
390.515	1.42
390.881	1.61
391.247	1.44
391.613	1.61
391.978	1.53
392.344	1.62
392.709	1.55
393.075	1.58
393.44	1.82
393.806	1.59
394.171	1.46
394.536	1.48
394.902	1.68
395.267	1.47
395.632	1.54
395.997	1.48
396.362	1.37
396.727	1.59
397.092	1.48
397.457	1.51
397.822	1.46
398.187	1.62
398.552	1.5
398.917	1.6
399.282	1.46
399.646	1.5
400.011	1.68
400.376	1.36
400.74	1.48
401.105	1.47
401.47	1.55
401.834	1.58
402.199	1.4
402.563	1.46
402.927	1.37
403.292	1.5
403.656	1.58
404.02	1.46
404.384	1.68
404.749	1.44
405.113	1.48
405.477	1.51
405.841	1.48
406.205	1.5
406.569	1.52
406.933	1.42
407.296	1.54
407.66	1.41
408.024	1.38
408.388	1.61
408.752	1.52
409.115	1.48
409.479	1.54
409.842	1.35
410.206	1.36
410.569	1.45
410.933	1.4
411.296	1.4
411.66	1.52
412.023	1.34
412.386	1.43
412.749	1.29
413.113	1.26
413.476	1.34
413.839	1.35
414.202	1.42
414.565	1.27
414.928	1.35
415.291	1.22
415.654	1.3
416.017	1.43
416.38	1.27
416.742	1.22
417.105	1.23
417.468	1.22
417.83	1.31
418.193	1.34
418.556	1.26
418.918	1.16
419.281	1.35
419.643	1.33
420.005	1.36
420.368	1.27
420.73	1.22
421.092	1.26
421.455	1.34
421.817	1.19
422.179	1.25
422.541	1.27
422.903	1.41
423.265	1.27
423.627	1.21
423.989	1.26
424.351	1.21
424.713	1.31
425.075	1.23
425.436	1.18
425.798	1.25
426.16	1.25
426.521	1.21
426.883	1.33
427.245	1.26
427.606	1.22
427.967	1.2
428.329	1.24
428.69	1.28
429.052	1.21
429.413	1.27
429.774	1.26
430.135	1.26
430.497	1.22
430.858	1.18
431.219	1.31
431.58	1.14
431.941	1.19
432.302	1.17
432.663	1.19
433.024	1.24
433.384	1.2
433.745	1.16
434.106	1.2
434.467	1.15
434.827	1.15
435.188	1.2
435.548	1.22
435.909	1.15
436.269	1.19
436.63	1.17
436.99	1.14
437.351	1.09
437.711	1.17
438.071	1.1
438.431	1.07
438.792	1.1
439.152	1.08
439.512	1.08
439.872	1.08
440.232	1.13
440.592	1.09
440.952	1.1
441.312	1.07
441.671	1.07
442.031	1.09
442.391	1.05
442.751	1.05
443.11	1.07
443.47	1.02
443.83	1.01
444.189	1
444.549	1.01
444.908	1.02
445.267	1.02
445.627	1.02
445.986	0.99
446.345	0.99
446.705	0.98
447.064	0.97
447.423	0.99
447.782	0.97
448.141	0.97
448.5	0.93
448.859	0.94
449.218	0.93
449.577	0.97
449.936	0.94
450.295	0.93
450.653	0.94
451.012	0.94
451.371	0.92
451.729	0.9
452.088	0.92
452.447	0.91
452.805	0.9
453.163	0.89
453.522	0.88
453.88	0.86
454.239	0.87
454.597	0.86
454.955	0.84
455.313	0.84
455.671	0.84
456.029	0.83
456.388	0.81
456.746	0.81
457.104	0.81
457.461	0.78
457.819	0.78
458.177	0.76
458.535	0.76
458.893	0.75
459.25	0.76
459.608	0.75
459.966	0.74
460.323	0.73
460.681	0.72
461.038	0.72
461.396	0.7
461.753	0.68
462.111	0.7
462.468	0.67
462.825	0.66
463.182	0.66
463.54	0.65
463.897	0.65
464.254	0.64
464.611	0.64
464.968	0.62
465.325	0.62
465.682	0.6
466.039	0.61
466.395	0.58
466.752	0.6
467.109	0.57
467.466	0.57
467.822	0.57
468.179	0.55
468.535	0.54
468.892	0.54
469.248	0.53
469.605	0.53
469.961	0.53
470.318	0.53
470.674	0.51
471.03	0.5
471.386	0.5
471.743	0.49
472.099	0.48
472.455	0.47
472.811	0.46
473.167	0.45
473.523	0.45
473.879	0.45
474.235	0.44
474.59	0.44
474.946	0.43
475.302	0.43
475.657	0.41
476.013	0.42
476.369	0.4
476.724	0.41
477.08	0.4
477.435	0.39
477.791	0.39
478.146	0.39
478.501	0.39
478.857	0.37
479.212	0.37
479.567	0.37
479.922	0.35
480.277	0.35
480.632	0.35
480.987	0.34
481.342	0.34
481.697	0.33
482.052	0.33
482.407	0.32
482.762	0.32
483.116	0.32
483.471	0.31
483.826	0.3
484.18	0.3
484.535	0.29
484.89	0.29
485.244	0.29
485.598	0.29
485.953	0.28
486.307	0.28
486.661	0.28
487.016	0.28
487.37	0.27
487.724	0.27
488.078	0.26
488.432	0.26
488.786	0.26
489.14	0.26
489.494	0.25
489.848	0.25
490.202	0.24
490.556	0.25
490.91	0.25
491.263	0.23
491.617	0.24
491.971	0.24
492.324	0.23
492.678	0.23
493.031	0.24
493.385	0.22
493.738	0.22
494.091	0.23
494.445	0.22
494.798	0.22
495.151	0.22
495.504	0.22
495.857	0.21
496.21	0.21
496.564	0.21
496.916	0.22
497.269	0.2
497.622	0.21
497.975	0.21
498.328	0.21
498.681	0.2
499.033	0.21
499.386	0.2
499.739	0.2
500.091	0.2
500.444	0.2
500.796	0.2
501.149	0.19
501.501	0.2
501.854	0.2
502.206	0.2
502.558	0.19
502.91	0.19
503.263	0.19
503.615	0.19
503.967	0.19
504.319	0.19
504.671	0.19
505.023	0.18
505.375	0.18
505.726	0.18
506.078	0.18
506.43	0.18
506.782	0.18
507.133	0.18
507.485	0.18
507.837	0.19
508.188	0.18
508.54	0.18
508.891	0.19
509.243	0.17
509.594	0.18
509.945	0.18
510.296	0.17
510.648	0.17
510.999	0.16
511.35	0.17
511.701	0.17
512.052	0.17
512.403	0.17
512.754	0.16
513.105	0.16
513.456	0.16
513.807	0.16
514.157	0.16
514.508	0.16
514.859	0.15
515.209	0.16
515.56	0.15
515.91	0.16
516.261	0.16
516.611	0.16
516.962	0.17
517.312	0.16
517.662	0.16
518.013	0.16
518.363	0.17
518.713	0.17
519.063	0.16
519.413	0.16
519.763	0.16
520.113	0.16
520.463	0.17
520.813	0.17
521.163	0.17
521.512	0.16
521.862	0.16
522.212	0.16
522.562	0.17
522.911	0.16
523.261	0.16
523.61	0.17
523.96	0.16
524.309	0.17
524.658	0.16
525.008	0.16
525.357	0.16
525.706	0.17
526.056	0.17
526.405	0.16
526.754	0.17
527.103	0.16
527.452	0.16
527.801	0.16
528.15	0.17
528.499	0.17
528.847	0.17
529.196	0.17
529.545	0.17
529.893	0.17
530.242	0.16
530.591	0.17
530.939	0.17
531.288	0.16
531.636	0.16
531.985	0.16
532.333	0.17
532.681	0.17
533.029	0.16
533.378	0.17
533.726	0.17
534.074	0.17
534.422	0.16
534.77	0.17
535.118	0.17
535.466	0.16
535.814	0.17
536.162	0.17
536.509	0.17
536.857	0.17
537.205	0.17
537.552	0.17
537.9	0.17
538.248	0.16
538.595	0.18
538.943	0.17
539.29	0.16
539.637	0.16
539.985	0.16
540.332	0.16
540.679	0.17
541.026	0.15
541.373	0.17
541.721	0.16
542.068	0.16
542.415	0.16
542.762	0.16
543.108	0.16
543.455	0.15
543.802	0.16
544.149	0.16
544.496	0.17
544.842	0.17
545.189	0.16
545.535	0.17
545.882	0.16
546.228	0.16
546.575	0.16
546.921	0.16
547.267	0.16
547.614	0.16
547.96	0.17
548.306	0.17
548.652	0.16
548.998	0.17
549.344	0.16
549.69	0.16
550.036	0.16
550.382	0.17
550.728	0.16
551.074	0.17
551.42	0.17
551.765	0.17
552.111	0.17
552.457	0.17
552.802	0.16
553.148	0.16
553.493	0.17
553.839	0.18
554.184	0.17
554.529	0.16
554.875	0.17
555.22	0.18
555.565	0.17
555.91	0.17
556.255	0.17
556.6	0.18
556.945	0.17
557.29	0.17
557.635	0.17
557.98	0.17
558.325	0.16
558.67	0.17
559.014	0.17
559.359	0.17
559.704	0.16
560.048	0.16
560.393	0.16
560.737	0.16
561.082	0.16
561.426	0.15
561.77	0.16
562.115	0.16
562.459	0.16
562.803	0.16
563.147	0.16
563.491	0.16
563.835	0.17
564.179	0.16
564.523	0.16
564.867	0.15
565.211	0.16
565.555	0.17
565.899	0.17
566.242	0.17
566.586	0.16
566.93	0.16
567.273	0.17
567.617	0.16
567.96	0.18
568.304	0.17
568.647	0.16
568.99	0.17
569.334	0.17
569.677	0.17
570.02	0.17
570.363	0.17
570.706	0.17
571.049	0.17
571.392	0.18
571.735	0.17
572.078	0.17
572.421	0.18
572.764	0.17
573.106	0.17
573.449	0.17
573.792	0.17
574.134	0.17
574.477	0.18
574.819	0.17
575.162	0.17
575.504	0.17
575.847	0.17
576.189	0.17
576.531	0.17
576.873	0.17
577.215	0.17
577.558	0.17
577.9	0.16
578.242	0.17
578.584	0.17
578.926	0.16
579.267	0.16
579.609	0.16
579.951	0.16
580.293	0.16
580.634	0.17
580.976	0.17
581.318	0.16
581.659	0.16
582.001	0.17
582.342	0.16
582.683	0.16
583.025	0.16
583.366	0.16
583.707	0.17
584.049	0.17
584.39	0.17
584.731	0.17
585.072	0.16
585.413	0.18
585.754	0.16
586.095	0.16
586.435	0.16
586.776	0.16
587.117	0.16
587.458	0.16
587.798	0.16
588.139	0.17
588.48	0.15
588.82	0.17
589.161	0.15
589.501	0.15
589.841	0.16
590.182	0.15
590.522	0.15
590.862	0.16
591.202	0.16
591.542	0.16
591.882	0.16
592.222	0.16
592.562	0.16
592.902	0.16
593.242	0.15
593.582	0.16
593.922	0.16
594.261	0.15
594.601	0.15
594.941	0.16
595.28	0.16
595.62	0.16
595.959	0.15
596.299	0.15
596.638	0.15
596.977	0.16
597.317	0.17
597.656	0.16
597.995	0.15
598.334	0.16
598.673	0.16
599.012	0.15
599.351	0.16
599.69	0.15
600.029	0.16
600.368	0.16
600.707	0.16
601.046	0.16
601.384	0.16
601.723	0.16
602.061	0.15
602.4	0.16
602.738	0.16
603.077	0.16
603.415	0.15
603.754	0.16
604.092	0.16
604.43	0.16
604.768	0.15
605.107	0.16
605.445	0.15
605.783	0.16
606.121	0.15
606.459	0.16
606.796	0.17
607.134	0.15
607.472	0.16
607.81	0.16
608.148	0.15
608.485	0.17
608.823	0.16
609.16	0.16
609.498	0.16
609.835	0.16
610.173	0.16
610.51	0.17
610.847	0.17
611.185	0.16
611.522	0.17
611.859	0.17
612.196	0.17
612.533	0.17
612.87	0.17
613.207	0.18
613.544	0.17
613.881	0.18
614.217	0.17
614.554	0.17
614.891	0.17
615.228	0.17
615.564	0.17
615.901	0.17
616.237	0.16
616.574	0.17
616.91	0.17
617.246	0.16
617.583	0.16
617.919	0.17
618.255	0.16
618.591	0.17
618.927	0.16
619.263	0.16
619.599	0.17
619.935	0.16
620.271	0.16
620.607	0.16
620.943	0.16
621.279	0.17
621.614	0.16
621.95	0.17
622.286	0.16
622.621	0.15
622.957	0.15
623.292	0.15
623.627	0.16
623.963	0.15
624.298	0.16
624.633	0.16
624.968	0.15
625.304	0.16
625.639	0.16
625.974	0.15
626.309	0.16
626.644	0.16
626.979	0.16
627.313	0.16
627.648	0.15
627.983	0.16
628.318	0.15
628.652	0.15
628.987	0.15
629.321	0.16
629.656	0.15
629.99	0.15
630.325	0.15
630.659	0.14
630.993	0.15
631.327	0.15
631.662	0.15
631.996	0.14
632.33	0.15
632.664	0.14
632.998	0.14
633.332	0.14
633.666	0.15
633.999	0.15
634.333	0.14
634.667	0.14
635.001	0.13
635.334	0.14
635.668	0.13
636.001	0.13
636.335	0.14
636.668	0.14
637.001	0.13
637.335	0.14
637.668	0.14
638.001	0.13
638.334	0.14
638.668	0.13
639.001	0.14
639.334	0.13
639.667	0.13
639.999	0.14
640.332	0.13
640.665	0.14
640.998	0.14
641.331	0.14
641.663	0.13
641.996	0.14
642.328	0.14
642.661	0.14
642.993	0.14
643.326	0.14
643.658	0.14
643.99	0.14
644.323	0.13
644.655	0.14
644.987	0.14
645.319	0.14
645.651	0.14
645.983	0.14
646.315	0.14
646.647	0.14
646.979	0.15
647.31	0.14
647.642	0.14
647.974	0.13
648.305	0.14
648.637	0.15
648.968	0.14
649.3	0.14
649.631	0.15
649.963	0.13
650.294	0.14
650.625	0.14
650.957	0.15
651.288	0.14
651.619	0.15
651.95	0.13
652.281	0.14
652.612	0.13
652.943	0.14
653.274	0.14
653.604	0.13
653.935	0.13
654.266	0.13
654.596	0.13
654.927	0.13
655.258	0.14
655.588	0.14
655.918	0.14
656.249	0.12
656.579	0.13
656.909	0.13
657.24	0.13
657.57	0.14
657.9	0.14
658.23	0.13
658.56	0.14
658.89	0.14
659.22	0.13
659.55	0.13
659.88	0.13
660.209	0.13
660.539	0.14
660.869	0.14
661.198	0.14
661.528	0.13
661.857	0.13
662.187	0.13
662.516	0.14
662.846	0.12
663.175	0.13
663.504	0.13
663.833	0.13
664.163	0.13
664.492	0.13
664.821	0.13
665.15	0.13
665.479	0.13
665.807	0.12
666.136	0.13
666.465	0.13
666.794	0.12
667.122	0.12
667.451	0.13
667.78	0.13
668.108	0.12
668.437	0.13
668.765	0.12
669.093	0.12
669.422	0.12
669.75	0.13
670.078	0.12
670.406	0.12
670.734	0.13
671.062	0.13
671.39	0.13
671.718	0.12
672.046	0.12
672.374	0.12
672.702	0.12
673.029	0.12
673.357	0.12
673.685	0.12
674.012	0.12
674.34	0.12
674.667	0.13
674.995	0.12
675.322	0.13
675.649	0.12
675.977	0.12
676.304	0.11
676.631	0.12
676.958	0.11
677.285	0.11
677.612	0.1
677.939	0.11
678.266	0.11
678.593	0.11
678.92	0.11
679.246	0.1
679.573	0.11
679.9	0.11
680.226	0.11
680.553	0.11
680.879	0.11
681.206	0.11
681.532	0.1
681.858	0.1
682.184	0.11
682.511	0.11
682.837	0.1
683.163	0.1
683.489	0.1
683.815	0.11
684.141	0.1
684.467	0.11
684.793	0.1
685.118	0.11
685.444	0.1
685.77	0.11
686.095	0.11
686.421	0.1
686.746	0.1
687.072	0.11
687.397	0.1
687.723	0.11
688.048	0.11
688.373	0.1
688.698	0.1
689.023	0.1
689.349	0.1
689.674	0.1
689.999	0.1
690.323	0.09
690.648	0.09
690.973	0.09
691.298	0.09
691.623	0.09
691.947	0.09
692.272	0.09
692.596	0.09
692.921	0.1
693.245	0.09
693.57	0.1
693.894	0.09
694.218	0.09
694.543	0.09
694.867	0.09
695.191	0.08
695.515	0.1
695.839	0.09
696.163	0.09
696.487	0.09
696.811	0.09
697.135	0.09
697.458	0.09
697.782	0.09
698.106	0.09
698.429	0.09
698.753	0.09
699.076	0.1
699.4	0.09
699.723	0.09
700.046	0.09
700.37	0.1
700.693	0.09
701.016	0.08
701.339	0.09
701.662	0.1
701.985	0.1
702.308	0.09
702.631	0.1
702.954	0.1
703.277	0.09
703.599	0.09
703.922	0.09
704.245	0.08
704.567	0.08
704.89	0.09
705.212	0.09
705.535	0.08
705.857	0.08
706.179	0.07
706.502	0.07
706.824	0.07
707.146	0.08
707.468	0.09
707.79	0.08
708.112	0.08
708.434	0.08
708.756	0.08
709.078	0.08
709.399	0.07
709.721	0.07
710.043	0.08
710.364	0.08
710.686	0.07
711.007	0.07
711.329	0.08
711.65	0.07
711.972	0.08
712.293	0.07
712.614	0.08
712.935	0.08
713.256	0.08
713.577	0.08
713.898	0.08
714.219	0.07
714.54	0.08
714.861	0.08
715.182	0.08
715.503	0.07
715.823	0.08
716.144	0.07
716.464	0.07
716.785	0.08
717.105	0.08
717.426	0.08
717.746	0.08
718.066	0.07
718.387	0.07
718.707	0.07
719.027	0.07
719.347	0.06
719.667	0.07
719.987	0.06
720.307	0.06
720.627	0.06
720.947	0.07
721.266	0.07
721.586	0.06
721.906	0.07
722.225	0.06
722.545	0.07
722.864	0.06
723.184	0.06
723.503	0.07
723.823	0.07
724.142	0.06
724.461	0.06
724.78	0.06
725.099	0.06
725.418	0.06
725.737	0.07
726.056	0.07
726.375	0.06
726.694	0.07
727.013	0.07
727.331	0.06
727.65	0.06
727.969	0.07
728.287	0.07
728.606	0.06
728.924	0.06
729.242	0.06
729.561	0.06
729.879	0.06
730.197	0.06
730.515	0.06
730.834	0.06
731.152	0.06
731.47	0.06
731.788	0.06
732.105	0.05
732.423	0.05
732.741	0.05
733.059	0.06
733.376	0.06
733.694	0.05
734.012	0.05
734.329	0.06
734.647	0.06
734.964	0.06
735.281	0.05
735.599	0.06
735.916	0.06
736.233	0.05
736.55	0.06
736.867	0.05
737.184	0.07
737.501	0.06
737.818	0.06
738.135	0.07
738.452	0.06
738.768	0.06
739.085	0.07
739.402	0.05
739.718	0.06
740.035	0.06
740.351	0.07
740.668	0.07
740.984	0.06
741.3	0.05
741.617	0.07
741.933	0.06
742.249	0.07
742.565	0.06
742.881	0.07
743.197	0.07
743.513	0.06
743.829	0.06
744.144	0.05
744.46	0.06
744.776	0.07
745.091	0.05
745.407	0.06
745.722	0.06
746.038	0.05
746.353	0.04
746.669	0.05
746.984	0.05
747.299	0.05
747.614	0.06
747.93	0.06
748.245	0.06
748.56	0.06
748.875	0.05
749.189	0.06
749.504	0.05
749.819	0.06
750.134	0.05
750.448	0.05
750.763	0.04
751.078	0.04
751.392	0.05
751.707	0.06
752.021	0.06
752.335	0.06
752.65	0.06
752.964	0.06
753.278	0.05
753.592	0.06
753.906	0.05
754.22	0.06
754.534	0.06
754.848	0.07
755.162	0.06
755.476	0.06
755.789	0.06
756.103	0.05
756.417	0.06
756.73	0.06
757.044	0.06
757.357	0.06
757.671	0.06
757.984	0.05
758.297	0.06
758.61	0.06
758.924	0.06
759.237	0.06
759.55	0.06
759.863	0.05
760.176	0.06
760.488	0.06
760.801	0.05
761.114	0.05
761.427	0.05
761.739	0.06
762.052	0.05
762.365	0.06
762.677	0.05
762.99	0.05
763.302	0.05
763.614	0.05
763.926	0.05
764.239	0.06
764.551	0.05
764.863	0.05
765.175	0.06
765.487	0.05
765.799	0.04
766.111	0.04
766.423	0.05
766.734	0.05
767.046	0.04
767.358	0.05
767.669	0.05
767.981	0.05
768.292	0.05
768.604	0.04
768.915	0.05
769.226	0.05
769.537	0.03
769.849	0.05
770.16	0.04
770.471	0.04
770.782	0.04
771.093	0.05
771.404	0.03
771.715	0.04
772.025	0.04
772.336	0.04
772.647	0.03
772.957	0.04
773.268	0.04
773.578	0.03
773.889	0.04
774.199	0.05
774.51	0.04
774.82	0.04
775.13	0.05
775.44	0.04
775.75	0.04
776.06	0.04
776.37	0.04
776.68	0.04
776.99	0.04
777.3	0.04
777.61	0.05
777.92	0.04
778.229	0.04
778.539	0.04
778.848	0.04
779.158	0.05
779.467	0.05
779.777	0.04
780.086	0.04
780.395	0.04
780.704	0.04
781.013	0.03
781.323	0.04
781.632	0.04
781.941	0.04
782.249	0.04
782.558	0.03
782.867	0.04
783.176	0.02
783.485	0.03
783.793	0.03
784.102	0.03
784.41	0.04
784.719	0.04
785.027	0.03
785.335	0.03
785.644	0.05
785.952	0.04
786.26	0.04
786.568	0.03
786.876	0.03
787.184	0.04
787.492	0.04
787.8	0.05
788.108	0.04
788.416	0.03
788.723	0.04
789.031	0.04
789.338	0.04
789.646	0.04
789.953	0.05
790.261	0.04
790.568	0.04
790.876	0.04
791.183	0.05
791.49	0.04
791.797	0.04
792.104	0.03
792.411	0.05
792.718	0.03
793.025	0.05
793.332	0.04
793.639	0.06
793.945	0.04
794.252	0.05
794.559	0.05
794.865	0.05
795.172	0.05
795.478	0.05
795.784	0.05
796.091	0.05
796.397	0.05
796.703	0.05
797.009	0.05
797.315	0.04
797.622	0.05
797.927	0.04
798.233	0.04
798.539	0.05
798.845	0.04
799.151	0.04
799.456	0.04
799.762	0.04
800.068	0.03
800.373	0.05
800.679	0.04
800.984	0.04
801.289	0.03
801.595	0.04
801.9	0.03
802.205	0.03
802.51	0.04
802.815	0.04
803.12	0.04
803.425	0.04
803.73	0.03
804.035	0.03
804.339	0.03
804.644	0.04
804.949	0.03
805.253	0.03
805.558	0.04
805.862	0.03
806.167	0.03
806.471	0.03
806.775	0.04
807.08	0.04
807.384	0.03
807.688	0.04
807.992	0.03
808.296	0.04
808.6	0.04
808.904	0.05
809.207	0.04
809.511	0.05
809.815	0.05
810.119	0.04
810.422	0.05
810.726	0.05
811.029	0.05
811.332	0.04
811.636	0.05
811.939	0.04
812.242	0.04
812.546	0.05
812.849	0.04
813.152	0.05
813.455	0.05
813.758	0.04
814.06	0.04
814.363	0.04
814.666	0.05
814.969	0.04
815.271	0.05
815.574	0.05
815.877	0.04
816.179	0.05
816.481	0.04
816.784	0.04
817.086	0.03
817.388	0.04
817.69	0.03
817.993	0.03
818.295	0.04
818.597	0.04
818.899	0.03
819.2	0.03
819.502	0.03
819.804	0.04
820.106	0.03
820.407	0.03
820.709	0.03
821.01	0.03
821.312	0.04
821.613	0.03
821.915	0.02
822.216	0.03
822.517	0.02
822.818	0.03
823.119	0.03
823.42	0.03
823.721	0.02
824.022	0.02
824.323	0.03
824.624	0.02
824.925	0.02
825.226	0.02
825.526	0.02
825.827	0.02
826.127	0.02
826.428	0.03
826.728	0.02
827.028	0.02
827.329	0.01
827.629	0.01
827.929	0.01
828.229	0.02
828.529	0.03
828.829	0.01
829.129	0.02
829.429	0.02
829.729	0.02
830.029	0.01
830.328	0.03
830.628	0.02
830.927	0.01
831.227	0.02
831.526	0.01
831.826	0.02
832.125	0.02
832.424	0.01
832.724	0.01
833.023	0.02
833.322	0.02
833.621	0.01
833.92	0
834.219	0.01
834.518	0.01
834.816	0.01
835.115	0.01
835.414	0
835.712	0.01
836.011	0.01
836.309	-0
836.608	-0
836.906	-0.01
837.205	-0.02
837.503	-0.01
837.801	-0.01
838.099	-0.01
838.397	-0.02
838.695	-0.02
838.993	-0.02
839.291	-0.03
839.589	-0.02
839.887	-0.02
840.184	-0.04
840.482	-0.04
840.78	-0.03
841.077	-0.04
841.375	-0.04
841.672	-0.03
841.969	-0.04
842.267	-0.04
842.564	-0.04
842.861	-0.03
843.158	-0.05
843.455	-0.05
843.752	-0.05
844.049	-0.05
844.346	-0.05
844.643	-0.05
844.94	-0.05
845.236	-0.03
845.533	-0.05
845.83	-0.05
846.126	-0.05
846.423	-0.05
846.719	-0.06
847.015	-0.05
847.312	-0.05
847.608	-0.05
847.904	-0.06
848.2	-0.06
848.496	-0.06
848.792	-0.05
849.088	-0.05
849.384	-0.07
849.68	-0.07
849.975	-0.06
850.271	-0.08
850.567	-0.07
850.862	-0.08
851.158	-0.08
851.453	-0.07
851.748	-0.09
852.044	-0.08
852.339	-0.09
852.634	-0.1
852.929	-0.09
853.224	-0.09
853.519	-0.1
853.814	-0.09
854.109	-0.11
854.404	-0.11
854.699	-0.11
854.994	-0.1
855.288	-0.1
855.583	-0.09
855.877	-0.11
856.172	-0.1
856.466	-0.1
856.76	-0.11
857.055	-0.11
857.349	-0.12
857.643	-0.13
857.937	-0.12
858.231	-0.13
858.525	-0.13
858.819	-0.12
859.113	-0.13
859.407	-0.14
859.701	-0.13
859.994	-0.14
860.288	-0.12
860.581	-0.13
860.875	-0.13
861.168	-0.13
861.462	-0.13
861.755	-0.13
862.048	-0.14
862.341	-0.13
862.634	-0.14
862.928	-0.13
863.221	-0.13
863.513	-0.14
863.806	-0.14
864.099	-0.13
864.392	-0.15
864.685	-0.13
864.977	-0.13
865.27	-0.13
865.562	-0.12
865.855	-0.13
866.147	-0.14
866.44	-0.13
866.732	-0.14
867.024	-0.14
867.316	-0.14
867.608	-0.13
867.9	-0.14
868.192	-0.14
868.484	-0.14
868.776	-0.14
869.068	-0.14
869.359	-0.14
869.651	-0.15
869.943	-0.15
870.234	-0.16
870.526	-0.15
870.817	-0.16
871.108	-0.14
871.4	-0.14
871.691	-0.15
871.982	-0.16
872.273	-0.17
872.564	-0.16
872.855	-0.16
873.146	-0.16
873.437	-0.16
873.728	-0.17
874.019	-0.17
874.309	-0.16
874.6	-0.16
874.89	-0.17
875.181	-0.18
875.471	-0.16
875.762	-0.16
876.052	-0.17
876.342	-0.14
876.632	-0.17
876.922	-0.18
877.213	-0.17
877.503	-0.18
877.792	-0.17
878.082	-0.17
878.372	-0.16
878.662	-0.19
878.952	-0.18
879.241	-0.17
879.531	-0.17
879.82	-0.17
880.11	-0.17
880.399	-0.18
880.688	-0.16
880.978	-0.16
881.267	-0.16
