Data from 12-12-AQDScycling_Absorbance__534__00534.txt Node

Date: Tue Dec 12 13:10:14 EST 2023
User: kyuminlee
Spectrometer: FLMS00943
Trigger mode: 0
Integration Time (sec): 1.000000E-1
Scans to average: 1
Electric dark correction enabled: true
Nonlinearity correction enabled: false
Boxcar width: 0
XAxis mode: Wavelengths
Number of Pixels in Spectrum: 2048
>>>>>Begin Spectral Data<<<<<
179.651	-0.17
180.037	-0.17
180.424	-0.17
180.81	-0
181.197	0.12
181.583	-0
181.97	-0.4
182.356	-1.32
182.743	-1.58
183.129	0.2
183.515	0.62
183.901	-2.39
184.288	0.42
184.674	-0
185.06	-0.7
185.446	-0
185.832	-0
186.218	0.36
186.604	-0
186.99	-0
187.376	-0
187.762	-0.05
188.148	0.36
188.534	1.13
188.92	0.11
189.305	0.19
189.691	0.15
190.077	0.08
190.463	0.08
190.848	0.13
191.234	0.07
191.619	0.05
192.005	0.11
192.391	0.19
192.776	0.21
193.161	0.05
193.547	0.26
193.932	0.08
194.318	0.11
194.703	0.24
195.088	0.3
195.473	0.25
195.859	0.06
196.244	0.21
196.629	0.37
197.014	0.07
197.399	0.18
197.784	0.13
198.169	0.03
198.554	0.24
198.939	0.07
199.324	0.26
199.709	0.09
200.094	0.02
200.478	0.19
200.863	0.17
201.248	0.08
201.633	0.11
202.017	0.12
202.402	0.31
202.787	0.08
203.171	0.05
203.556	0.32
203.94	0.29
204.325	0.15
204.709	0.19
205.093	0.13
205.478	0.14
205.862	0.07
206.246	0.28
206.631	0.16
207.015	0.16
207.399	0.08
207.783	0.13
208.167	0.32
208.551	0.32
208.935	0.16
209.319	0.08
209.703	0.2
210.087	0.31
210.471	0.05
210.855	0.07
211.239	0.25
211.623	0.29
212.007	0.25
212.39	0.24
212.774	0.3
213.158	0.16
213.541	0.26
213.925	0.38
214.309	0.35
214.692	0.48
215.076	0.29
215.459	0.16
215.842	0.12
216.226	0.17
216.609	0.42
216.993	0.24
217.376	0.5
217.759	0.23
218.142	0.28
218.525	0.71
218.909	0.57
219.292	0.37
219.675	0.59
220.058	0.48
220.441	0.53
220.824	0.44
221.207	0.72
221.59	0.46
221.973	0.47
222.355	0.76
222.738	0.68
223.121	0.62
223.504	0.5
223.886	0.79
224.269	0.67
224.652	0.64
225.034	0.7
225.417	0.76
225.799	0.72
226.182	0.92
226.564	0.77
226.947	0.79
227.329	0.81
227.711	1.01
228.094	1.11
228.476	1.22
228.858	0.86
229.24	0.84
229.623	1.09
230.005	0.87
230.387	0.92
230.769	0.79
231.151	1
231.533	1.07
231.915	0.94
232.297	1.14
232.679	0.9
233.061	0.99
233.442	1.13
233.824	1.06
234.206	1.13
234.588	0.99
234.969	1.04
235.351	0.91
235.733	1.16
236.114	1.08
236.496	1.22
236.877	1.1
237.259	1.11
237.64	1.07
238.022	1
238.403	1.03
238.784	1.03
239.165	1.1
239.547	1.13
239.928	1.09
240.309	0.99
240.69	1.03
241.071	1.03
241.452	1
241.834	0.97
242.215	1.12
242.595	1.17
242.976	1.31
243.357	1
243.738	1.03
244.119	1.11
244.5	1.09
244.881	1.25
245.261	1.17
245.642	1.28
246.023	1.22
246.403	1.12
246.784	1.19
247.164	1.33
247.545	1.27
247.925	1.3
248.306	1.14
248.686	1.32
249.067	1.32
249.447	1.59
249.827	1.37
250.207	1.36
250.588	1.29
250.968	1.49
251.348	1.45
251.728	1.41
252.108	1.34
252.488	1.34
252.868	1.3
253.248	1.37
253.628	1.52
254.008	1.44
254.388	1.26
254.768	1.31
255.147	1.33
255.527	1.57
255.907	1.33
256.287	1.31
256.666	1.54
257.046	1.35
257.425	1.5
257.805	1.23
258.184	1.35
258.564	1.4
258.943	1.48
259.323	1.52
259.702	1.57
260.081	1.53
260.461	1.47
260.84	1.51
261.219	1.71
261.598	1.52
261.977	1.4
262.356	1.5
262.736	1.51
263.115	1.5
263.494	1.43
263.873	1.46
264.251	1.49
264.63	1.53
265.009	1.48
265.388	1.41
265.767	1.42
266.145	1.42
266.524	1.54
266.903	1.42
267.281	1.52
267.66	1.51
268.039	1.56
268.417	1.38
268.796	1.46
269.174	1.44
269.552	1.45
269.931	1.51
270.309	1.4
270.687	1.59
271.066	1.58
271.444	1.48
271.822	1.53
272.2	1.38
272.578	1.37
272.956	1.64
273.334	1.52
273.712	1.53
274.09	1.47
274.468	1.45
274.846	1.29
275.224	1.32
275.602	1.45
275.98	1.5
276.357	1.43
276.735	1.47
277.113	1.41
277.49	1.4
277.868	1.45
278.246	1.46
278.623	1.36
279.001	1.51
279.378	1.49
279.756	1.45
280.133	1.76
280.51	1.35
280.888	1.45
281.265	1.31
281.642	1.48
282.019	1.56
282.396	1.51
282.773	1.38
283.151	1.51
283.528	1.68
283.905	1.33
284.282	1.57
284.659	1.62
285.035	1.46
285.412	1.3
285.789	1.76
286.166	1.45
286.543	1.55
286.919	1.46
287.296	1.45
287.673	1.64
288.049	1.54
288.426	1.64
288.802	1.56
289.179	1.51
289.555	1.78
289.932	1.51
290.308	1.31
290.684	1.38
291.061	1.34
291.437	1.58
291.813	1.54
292.189	1.26
292.565	1.35
292.942	1.32
293.318	1.34
293.694	1.48
294.07	1.26
294.446	1.49
294.822	1.49
295.197	1.45
295.573	1.4
295.949	1.47
296.325	1.43
296.701	1.57
297.076	1.53
297.452	1.54
297.828	1.36
298.203	1.63
298.579	1.36
298.954	1.42
299.33	1.38
299.705	1.47
300.081	1.51
300.456	1.43
300.831	1.4
301.206	1.38
301.582	1.54
301.957	1.44
302.332	1.57
302.707	1.42
303.082	1.29
303.457	1.5
303.832	1.38
304.207	1.36
304.582	1.39
304.957	1.36
305.332	1.39
305.707	1.37
306.082	1.4
306.456	1.4
306.831	1.25
307.206	1.32
307.58	1.38
307.955	1.34
308.33	1.33
308.704	1.31
309.079	1.32
309.453	1.4
309.828	1.26
310.202	1.24
310.576	1.29
310.951	1.31
311.325	1.28
311.699	1.3
312.073	1.21
312.447	1.28
312.821	1.24
313.196	1.28
313.57	1.24
313.944	1.15
314.317	1.18
314.691	1.25
315.065	1.26
315.439	1.29
315.813	1.35
316.187	1.23
316.56	1.3
316.934	1.3
317.308	1.19
317.681	1.28
318.055	1.19
318.428	1.3
318.802	1.31
319.175	1.22
319.549	1.23
319.922	1.27
320.295	1.23
320.669	1.32
321.042	1.28
321.415	1.34
321.788	1.29
322.162	1.35
322.535	1.34
322.908	1.32
323.281	1.23
323.654	1.46
324.027	1.29
324.4	1.38
324.773	1.33
325.145	1.27
325.518	1.23
325.891	1.22
326.264	1.38
326.636	1.32
327.009	1.32
327.382	1.3
327.754	1.42
328.127	1.28
328.499	1.27
328.872	1.38
329.244	1.31
329.616	1.26
329.989	1.34
330.361	1.28
330.733	1.32
331.106	1.29
331.478	1.41
331.85	1.3
332.222	1.33
332.594	1.34
332.966	1.31
333.338	1.44
333.71	1.36
334.082	1.38
334.454	1.34
334.826	1.33
335.197	1.54
335.569	1.32
335.941	1.26
336.312	1.57
336.684	1.44
337.056	1.3
337.427	1.4
337.799	1.31
338.17	1.4
338.542	1.29
338.913	1.39
339.284	1.44
339.656	1.3
340.027	1.4
340.398	1.47
340.769	1.36
341.141	1.41
341.512	1.35
341.883	1.38
342.254	1.42
342.625	1.37
342.996	1.35
343.367	1.31
343.738	1.46
344.108	1.34
344.479	1.42
344.85	1.31
345.221	1.42
345.591	1.32
345.962	1.32
346.333	1.38
346.703	1.19
347.074	1.3
347.444	1.35
347.815	1.38
348.185	1.29
348.556	1.28
348.926	1.26
349.296	1.38
349.666	1.26
350.037	1.25
350.407	1.31
350.777	1.3
351.147	1.25
351.517	1.33
351.887	1.24
352.257	1.33
352.627	1.28
352.997	1.32
353.367	1.37
353.737	1.4
354.106	1.46
354.476	1.4
354.846	1.39
355.216	1.37
355.585	1.44
355.955	1.52
356.324	1.41
356.694	1.49
357.063	1.34
357.433	1.31
357.802	1.39
358.171	1.48
358.541	1.34
358.91	1.41
359.279	1.39
359.648	1.42
360.017	1.39
360.387	1.48
360.756	1.38
361.125	1.49
361.494	1.51
361.863	1.41
362.231	1.37
362.6	1.43
362.969	1.6
363.338	1.51
363.707	1.55
364.075	1.59
364.444	1.35
364.813	1.51
365.181	1.42
365.55	1.45
365.918	1.52
366.287	1.44
366.655	1.47
367.024	1.49
367.392	1.51
367.76	1.51
368.128	1.69
368.497	1.5
368.865	1.43
369.233	1.45
369.601	1.42
369.969	1.42
370.337	1.51
370.705	1.44
371.073	1.49
371.441	1.52
371.809	1.49
372.177	1.35
372.544	1.56
372.912	1.57
373.28	1.43
373.647	1.48
374.015	1.59
374.383	1.76
374.75	1.59
375.118	1.48
375.485	1.7
375.853	1.49
376.22	1.58
376.587	1.47
376.955	1.52
377.322	1.66
377.689	1.55
378.056	1.41
378.423	1.43
378.79	1.55
379.157	1.67
379.524	1.61
379.891	1.54
380.258	1.61
380.625	1.55
380.992	1.64
381.359	1.68
381.726	1.9
382.092	1.59
382.459	1.53
382.826	1.53
383.192	1.55
383.559	1.62
383.925	1.82
384.292	1.48
384.658	1.6
385.025	1.58
385.391	1.66
385.757	1.59
386.123	1.63
386.49	1.52
386.856	1.59
387.222	1.64
387.588	1.81
387.954	1.68
388.32	1.66
388.686	1.59
389.052	1.6
389.418	1.66
389.784	1.48
390.15	1.54
390.515	1.47
390.881	1.63
391.247	1.58
391.613	1.73
391.978	1.55
392.344	1.71
392.709	1.59
393.075	1.58
393.44	1.58
393.806	1.71
394.171	1.49
394.536	1.48
394.902	1.54
395.267	1.69
395.632	1.58
395.997	1.52
396.362	1.53
396.727	1.6
397.092	1.76
397.457	1.62
397.822	1.58
398.187	1.76
398.552	1.59
398.917	1.66
399.282	1.5
399.646	1.47
400.011	1.69
400.376	1.47
400.74	1.5
401.105	1.58
401.47	1.56
401.834	1.56
402.199	1.75
402.563	1.53
402.927	1.5
403.292	1.58
403.656	1.57
404.02	1.6
404.384	1.64
404.749	1.55
405.113	1.58
405.477	1.69
405.841	1.53
406.205	1.49
406.569	1.4
406.933	1.48
407.296	1.53
407.66	1.58
408.024	1.51
408.388	1.79
408.752	1.5
409.115	1.72
409.479	1.54
409.842	1.61
410.206	1.6
410.569	1.47
410.933	1.42
411.296	1.4
411.66	1.49
412.023	1.37
412.386	1.37
412.749	1.52
413.113	1.6
413.476	1.5
413.839	1.39
414.202	1.47
414.565	1.31
414.928	1.56
415.291	1.25
415.654	1.54
416.017	1.57
416.38	1.44
416.742	1.41
417.105	1.37
417.468	1.35
417.83	1.43
418.193	1.53
418.556	1.39
418.918	1.28
419.281	1.38
419.643	1.5
420.005	1.45
420.368	1.44
420.73	1.37
421.092	1.5
421.455	1.5
421.817	1.3
422.179	1.36
422.541	1.45
422.903	1.46
423.265	1.54
423.627	1.43
423.989	1.43
424.351	1.36
424.713	1.48
425.075	1.34
425.436	1.3
425.798	1.4
426.16	1.36
426.521	1.33
426.883	1.41
427.245	1.4
427.606	1.33
427.967	1.25
428.329	1.31
428.69	1.39
429.052	1.27
429.413	1.42
429.774	1.34
430.135	1.49
430.497	1.36
430.858	1.32
431.219	1.42
431.58	1.3
431.941	1.31
432.302	1.25
432.663	1.32
433.024	1.43
433.384	1.32
433.745	1.32
434.106	1.35
434.467	1.3
434.827	1.34
435.188	1.32
435.548	1.51
435.909	1.3
436.269	1.37
436.63	1.25
436.99	1.28
437.351	1.25
437.711	1.29
438.071	1.23
438.431	1.27
438.792	1.28
439.152	1.25
439.512	1.21
439.872	1.24
440.232	1.28
440.592	1.26
440.952	1.25
441.312	1.22
441.671	1.2
442.031	1.2
442.391	1.19
442.751	1.2
443.11	1.2
443.47	1.22
443.83	1.15
444.189	1.16
444.549	1.18
444.908	1.16
445.267	1.13
445.627	1.11
445.986	1.12
446.345	1.11
446.705	1.12
447.064	1.1
447.423	1.11
447.782	1.09
448.141	1.09
448.5	1.09
448.859	1.08
449.218	1.07
449.577	1.08
449.936	1.06
450.295	1.06
450.653	1.08
451.012	1.05
451.371	1.03
451.729	1.06
452.088	1.04
452.447	1.05
452.805	1.03
453.163	1.03
453.522	1
453.88	0.98
454.239	0.98
454.597	0.96
454.955	0.95
455.313	0.95
455.671	0.96
456.029	0.95
456.388	0.92
456.746	0.92
457.104	0.89
457.461	0.89
457.819	0.9
458.177	0.87
458.535	0.86
458.893	0.85
459.25	0.86
459.608	0.83
459.966	0.83
460.323	0.82
460.681	0.81
461.038	0.79
461.396	0.78
461.753	0.78
462.111	0.77
462.468	0.76
462.825	0.74
463.182	0.73
463.54	0.71
463.897	0.73
464.254	0.71
464.611	0.71
464.968	0.69
465.325	0.69
465.682	0.68
466.039	0.68
466.395	0.65
466.752	0.65
467.109	0.64
467.466	0.63
467.822	0.63
468.179	0.62
468.535	0.61
468.892	0.61
469.248	0.59
469.605	0.57
469.961	0.57
470.318	0.58
470.674	0.56
471.03	0.55
471.386	0.54
471.743	0.53
472.099	0.53
472.455	0.53
472.811	0.52
473.167	0.52
473.523	0.5
473.879	0.5
474.235	0.49
474.59	0.48
474.946	0.47
475.302	0.47
475.657	0.46
476.013	0.44
476.369	0.44
476.724	0.44
477.08	0.43
477.435	0.42
477.791	0.42
478.146	0.42
478.501	0.4
478.857	0.4
479.212	0.4
479.567	0.39
479.922	0.38
480.277	0.38
480.632	0.37
480.987	0.37
481.342	0.37
481.697	0.35
482.052	0.36
482.407	0.35
482.762	0.34
483.116	0.33
483.471	0.33
483.826	0.32
484.18	0.33
484.535	0.32
484.89	0.31
485.244	0.3
485.598	0.31
485.953	0.31
486.307	0.3
486.661	0.3
487.016	0.29
487.37	0.29
487.724	0.28
488.078	0.29
488.432	0.28
488.786	0.28
489.14	0.27
489.494	0.27
489.848	0.26
490.202	0.26
490.556	0.26
490.91	0.25
491.263	0.25
491.617	0.25
491.971	0.24
492.324	0.25
492.678	0.24
493.031	0.24
493.385	0.24
493.738	0.24
494.091	0.24
494.445	0.23
494.798	0.23
495.151	0.22
495.504	0.22
495.857	0.22
496.21	0.22
496.564	0.22
496.916	0.22
497.269	0.2
497.622	0.21
497.975	0.21
498.328	0.21
498.681	0.2
499.033	0.2
499.386	0.2
499.739	0.2
500.091	0.2
500.444	0.19
500.796	0.19
501.149	0.19
501.501	0.2
501.854	0.19
502.206	0.19
502.558	0.19
502.91	0.19
503.263	0.19
503.615	0.19
503.967	0.18
504.319	0.19
504.671	0.18
505.023	0.18
505.375	0.18
505.726	0.19
506.078	0.18
506.43	0.18
506.782	0.18
507.133	0.18
507.485	0.18
507.837	0.19
508.188	0.18
508.54	0.18
508.891	0.18
509.243	0.18
509.594	0.17
509.945	0.17
510.296	0.17
510.648	0.18
510.999	0.17
511.35	0.17
511.701	0.17
512.052	0.18
512.403	0.18
512.754	0.17
513.105	0.17
513.456	0.16
513.807	0.17
514.157	0.18
514.508	0.17
514.859	0.16
515.209	0.17
515.56	0.16
515.91	0.17
516.261	0.17
516.611	0.16
516.962	0.17
517.312	0.17
517.662	0.18
518.013	0.17
518.363	0.17
518.713	0.17
519.063	0.17
519.413	0.17
519.763	0.17
520.113	0.17
520.463	0.17
520.813	0.18
521.163	0.17
521.512	0.16
521.862	0.17
522.212	0.17
522.562	0.17
522.911	0.17
523.261	0.17
523.61	0.17
523.96	0.17
524.309	0.17
524.658	0.17
525.008	0.17
525.357	0.17
525.706	0.17
526.056	0.16
526.405	0.17
526.754	0.17
527.103	0.16
527.452	0.17
527.801	0.17
528.15	0.17
528.499	0.17
528.847	0.17
529.196	0.17
529.545	0.17
529.893	0.18
530.242	0.17
530.591	0.18
530.939	0.18
531.288	0.18
531.636	0.18
531.985	0.18
532.333	0.18
532.681	0.17
533.029	0.18
533.378	0.17
533.726	0.18
534.074	0.18
534.422	0.17
534.77	0.19
535.118	0.18
535.466	0.17
535.814	0.17
536.162	0.17
536.509	0.18
536.857	0.18
537.205	0.18
537.552	0.18
537.9	0.18
538.248	0.17
538.595	0.18
538.943	0.18
539.29	0.18
539.637	0.18
539.985	0.18
540.332	0.17
540.679	0.17
541.026	0.17
541.373	0.18
541.721	0.17
542.068	0.17
542.415	0.17
542.762	0.17
543.108	0.16
543.455	0.16
543.802	0.17
544.149	0.17
544.496	0.17
544.842	0.16
545.189	0.16
545.535	0.16
545.882	0.16
546.228	0.17
546.575	0.16
546.921	0.16
547.267	0.16
547.614	0.17
547.96	0.17
548.306	0.17
548.652	0.16
548.998	0.18
549.344	0.17
549.69	0.17
550.036	0.17
550.382	0.17
550.728	0.17
551.074	0.17
551.42	0.17
551.765	0.17
552.111	0.17
552.457	0.18
552.802	0.18
553.148	0.17
553.493	0.17
553.839	0.17
554.184	0.18
554.529	0.16
554.875	0.17
555.22	0.17
555.565	0.17
555.91	0.17
556.255	0.18
556.6	0.17
556.945	0.17
557.29	0.17
557.635	0.18
557.98	0.17
558.325	0.18
558.67	0.17
559.014	0.17
559.359	0.18
559.704	0.17
560.048	0.16
560.393	0.17
560.737	0.16
561.082	0.17
561.426	0.17
561.77	0.17
562.115	0.17
562.459	0.17
562.803	0.17
563.147	0.17
563.491	0.17
563.835	0.18
564.179	0.18
564.523	0.17
564.867	0.17
565.211	0.17
565.555	0.18
565.899	0.18
566.242	0.18
566.586	0.17
566.93	0.17
567.273	0.18
567.617	0.17
567.96	0.18
568.304	0.18
568.647	0.17
568.99	0.18
569.334	0.18
569.677	0.18
570.02	0.18
570.363	0.18
570.706	0.18
571.049	0.17
571.392	0.18
571.735	0.18
572.078	0.17
572.421	0.19
572.764	0.18
573.106	0.18
573.449	0.17
573.792	0.18
574.134	0.17
574.477	0.18
574.819	0.17
575.162	0.18
575.504	0.17
575.847	0.18
576.189	0.17
576.531	0.17
576.873	0.17
577.215	0.17
577.558	0.17
577.9	0.17
578.242	0.18
578.584	0.18
578.926	0.18
579.267	0.17
579.609	0.18
579.951	0.17
580.293	0.17
580.634	0.17
580.976	0.18
581.318	0.18
581.659	0.17
582.001	0.18
582.342	0.17
582.683	0.17
583.025	0.17
583.366	0.17
583.707	0.17
584.049	0.17
584.39	0.17
584.731	0.16
585.072	0.16
585.413	0.18
585.754	0.17
586.095	0.17
586.435	0.17
586.776	0.17
587.117	0.17
587.458	0.17
587.798	0.17
588.139	0.17
588.48	0.17
588.82	0.17
589.161	0.17
589.501	0.16
589.841	0.16
590.182	0.17
590.522	0.17
590.862	0.17
591.202	0.17
591.542	0.17
591.882	0.16
592.222	0.17
592.562	0.17
592.902	0.17
593.242	0.17
593.582	0.18
593.922	0.17
594.261	0.16
594.601	0.16
594.941	0.17
595.28	0.17
595.62	0.17
595.959	0.17
596.299	0.17
596.638	0.17
596.977	0.17
597.317	0.18
597.656	0.18
597.995	0.17
598.334	0.18
598.673	0.17
599.012	0.17
599.351	0.18
599.69	0.17
600.029	0.17
600.368	0.18
600.707	0.18
601.046	0.17
601.384	0.17
601.723	0.18
602.061	0.17
602.4	0.17
602.738	0.17
603.077	0.18
603.415	0.17
603.754	0.17
604.092	0.17
604.43	0.17
604.768	0.17
605.107	0.17
605.445	0.16
605.783	0.16
606.121	0.16
606.459	0.17
606.796	0.17
607.134	0.17
607.472	0.16
607.81	0.17
608.148	0.17
608.485	0.17
608.823	0.17
609.16	0.16
609.498	0.16
609.835	0.16
610.173	0.16
610.51	0.17
610.847	0.16
611.185	0.17
611.522	0.17
611.859	0.17
612.196	0.17
612.533	0.17
612.87	0.17
613.207	0.17
613.544	0.17
613.881	0.18
614.217	0.17
614.554	0.17
614.891	0.18
615.228	0.16
615.564	0.17
615.901	0.17
616.237	0.17
616.574	0.17
616.91	0.18
617.246	0.17
617.583	0.18
617.919	0.17
618.255	0.18
618.591	0.17
618.927	0.17
619.263	0.18
619.599	0.18
619.935	0.17
620.271	0.17
620.607	0.17
620.943	0.17
621.279	0.18
621.614	0.17
621.95	0.17
622.286	0.17
622.621	0.17
622.957	0.17
623.292	0.17
623.627	0.17
623.963	0.16
624.298	0.17
624.633	0.16
624.968	0.16
625.304	0.16
625.639	0.16
625.974	0.16
626.309	0.15
626.644	0.16
626.979	0.17
627.313	0.17
627.648	0.16
627.983	0.16
628.318	0.16
628.652	0.15
628.987	0.16
629.321	0.16
629.656	0.15
629.99	0.15
630.325	0.15
630.659	0.15
630.993	0.15
631.327	0.15
631.662	0.14
631.996	0.15
632.33	0.15
632.664	0.15
632.998	0.14
633.332	0.15
633.666	0.15
633.999	0.15
634.333	0.15
634.667	0.15
635.001	0.14
635.334	0.15
635.668	0.15
636.001	0.15
636.335	0.15
636.668	0.15
637.001	0.14
637.335	0.14
637.668	0.15
638.001	0.14
638.334	0.14
638.668	0.15
639.001	0.15
639.334	0.14
639.667	0.14
639.999	0.15
640.332	0.14
640.665	0.14
640.998	0.15
641.331	0.14
641.663	0.14
641.996	0.14
642.328	0.14
642.661	0.14
642.993	0.14
643.326	0.14
643.658	0.14
643.99	0.14
644.323	0.13
644.655	0.14
644.987	0.14
645.319	0.14
645.651	0.14
645.983	0.14
646.315	0.13
646.647	0.14
646.979	0.15
647.31	0.15
647.642	0.14
647.974	0.13
648.305	0.15
648.637	0.14
648.968	0.14
649.3	0.15
649.631	0.14
649.963	0.14
650.294	0.14
650.625	0.14
650.957	0.14
651.288	0.15
651.619	0.14
651.95	0.15
652.281	0.15
652.612	0.14
652.943	0.15
653.274	0.15
653.604	0.14
653.935	0.13
654.266	0.14
654.596	0.14
654.927	0.14
655.258	0.14
655.588	0.15
655.918	0.14
656.249	0.13
656.579	0.14
656.909	0.14
657.24	0.14
657.57	0.14
657.9	0.13
658.23	0.14
658.56	0.14
658.89	0.14
659.22	0.14
659.55	0.14
659.88	0.14
660.209	0.14
660.539	0.15
660.869	0.14
661.198	0.14
661.528	0.15
661.857	0.13
662.187	0.14
662.516	0.13
662.846	0.13
663.175	0.13
663.504	0.14
663.833	0.13
664.163	0.14
664.492	0.13
664.821	0.13
665.15	0.13
665.479	0.14
665.807	0.14
666.136	0.14
666.465	0.13
666.794	0.14
667.122	0.14
667.451	0.13
667.78	0.13
668.108	0.14
668.437	0.13
668.765	0.13
669.093	0.14
669.422	0.13
669.75	0.14
670.078	0.13
670.406	0.13
670.734	0.14
671.062	0.13
671.39	0.13
671.718	0.12
672.046	0.12
672.374	0.12
672.702	0.13
673.029	0.12
673.357	0.13
673.685	0.13
674.012	0.13
674.34	0.12
674.667	0.13
674.995	0.13
675.322	0.13
675.649	0.13
675.977	0.13
676.304	0.13
676.631	0.12
676.958	0.13
677.285	0.13
677.612	0.12
677.939	0.13
678.266	0.13
678.593	0.12
678.92	0.13
679.246	0.12
679.573	0.12
679.9	0.12
680.226	0.12
680.553	0.11
680.879	0.12
681.206	0.12
681.532	0.12
681.858	0.12
682.184	0.12
682.511	0.12
682.837	0.12
683.163	0.13
683.489	0.12
683.815	0.12
684.141	0.12
684.467	0.12
684.793	0.12
685.118	0.11
685.444	0.11
685.77	0.11
686.095	0.12
686.421	0.11
686.746	0.12
687.072	0.12
687.397	0.11
687.723	0.12
688.048	0.12
688.373	0.12
688.698	0.12
689.023	0.12
689.349	0.12
689.674	0.12
689.999	0.12
690.323	0.11
690.648	0.11
690.973	0.11
691.298	0.12
691.623	0.11
691.947	0.12
692.272	0.11
692.596	0.12
692.921	0.12
693.245	0.12
693.57	0.11
693.894	0.12
694.218	0.12
694.543	0.11
694.867	0.12
695.191	0.11
695.515	0.12
695.839	0.11
696.163	0.12
696.487	0.11
696.811	0.11
697.135	0.12
697.458	0.11
697.782	0.11
698.106	0.11
698.429	0.11
698.753	0.11
699.076	0.11
699.4	0.1
699.723	0.11
700.046	0.1
700.37	0.11
700.693	0.11
701.016	0.1
701.339	0.11
701.662	0.11
701.985	0.11
702.308	0.11
702.631	0.11
702.954	0.11
703.277	0.11
703.599	0.11
703.922	0.1
704.245	0.1
704.567	0.1
704.89	0.11
705.212	0.1
705.535	0.1
705.857	0.1
706.179	0.09
706.502	0.09
706.824	0.09
707.146	0.1
707.468	0.1
707.79	0.1
708.112	0.1
708.434	0.11
708.756	0.1
709.078	0.1
709.399	0.1
709.721	0.1
710.043	0.1
710.364	0.1
710.686	0.1
711.007	0.1
711.329	0.11
711.65	0.1
711.972	0.1
712.293	0.1
712.614	0.1
712.935	0.1
713.256	0.1
713.577	0.11
713.898	0.1
714.219	0.1
714.54	0.09
714.861	0.08
715.182	0.1
715.503	0.09
715.823	0.1
716.144	0.09
716.464	0.09
716.785	0.08
717.105	0.09
717.426	0.09
717.746	0.09
718.066	0.09
718.387	0.09
718.707	0.09
719.027	0.09
719.347	0.08
719.667	0.09
719.987	0.09
720.307	0.08
720.627	0.08
720.947	0.09
721.266	0.09
721.586	0.08
721.906	0.08
722.225	0.08
722.545	0.08
722.864	0.08
723.184	0.09
723.503	0.09
723.823	0.09
724.142	0.08
724.461	0.08
724.78	0.08
725.099	0.09
725.418	0.09
725.737	0.08
726.056	0.08
726.375	0.08
726.694	0.08
727.013	0.08
727.331	0.08
727.65	0.08
727.969	0.08
728.287	0.08
728.606	0.08
728.924	0.08
729.242	0.08
729.561	0.09
729.879	0.08
730.197	0.08
730.515	0.08
730.834	0.08
731.152	0.09
731.47	0.09
731.788	0.08
732.105	0.08
732.423	0.08
732.741	0.07
733.059	0.08
733.376	0.09
733.694	0.08
734.012	0.07
734.329	0.09
734.647	0.08
734.964	0.09
735.281	0.09
735.599	0.09
735.916	0.08
736.233	0.08
736.55	0.07
736.867	0.09
737.184	0.09
737.501	0.08
737.818	0.08
738.135	0.08
738.452	0.08
738.768	0.08
739.085	0.08
739.402	0.07
739.718	0.08
740.035	0.08
740.351	0.08
740.668	0.08
740.984	0.08
741.3	0.07
741.617	0.08
741.933	0.08
742.249	0.08
742.565	0.08
742.881	0.09
743.197	0.08
743.513	0.07
743.829	0.07
744.144	0.07
744.46	0.07
744.776	0.08
745.091	0.07
745.407	0.07
745.722	0.07
746.038	0.06
746.353	0.06
746.669	0.07
746.984	0.06
747.299	0.06
747.614	0.07
747.93	0.07
748.245	0.06
748.56	0.07
748.875	0.06
749.189	0.06
749.504	0.07
749.819	0.07
750.134	0.06
750.448	0.07
750.763	0.07
751.078	0.07
751.392	0.06
751.707	0.09
752.021	0.08
752.335	0.08
752.65	0.08
752.964	0.07
753.278	0.08
753.592	0.08
753.906	0.06
754.22	0.08
754.534	0.08
754.848	0.07
755.162	0.07
755.476	0.07
755.789	0.07
756.103	0.07
756.417	0.08
756.73	0.07
757.044	0.07
757.357	0.07
757.671	0.08
757.984	0.08
758.297	0.07
758.61	0.08
758.924	0.07
759.237	0.06
759.55	0.07
759.863	0.07
760.176	0.07
760.488	0.08
760.801	0.06
761.114	0.06
761.427	0.07
761.739	0.07
762.052	0.07
762.365	0.06
762.677	0.07
762.99	0.06
763.302	0.07
763.614	0.06
763.926	0.07
764.239	0.06
764.551	0.06
764.863	0.07
765.175	0.07
765.487	0.06
765.799	0.06
766.111	0.06
766.423	0.07
766.734	0.07
767.046	0.06
767.358	0.07
767.669	0.07
767.981	0.07
768.292	0.06
768.604	0.07
768.915	0.06
769.226	0.06
769.537	0.06
769.849	0.07
770.16	0.07
770.471	0.06
770.782	0.06
771.093	0.06
771.404	0.05
771.715	0.06
772.025	0.05
772.336	0.06
772.647	0.05
772.957	0.06
773.268	0.06
773.578	0.06
773.889	0.06
774.199	0.08
774.51	0.06
774.82	0.06
775.13	0.07
775.44	0.07
775.75	0.07
776.06	0.07
776.37	0.06
776.68	0.07
776.99	0.07
777.3	0.05
777.61	0.07
777.92	0.06
778.229	0.05
778.539	0.06
778.848	0.07
779.158	0.06
779.467	0.07
779.777	0.05
780.086	0.07
780.395	0.06
780.704	0.05
781.013	0.05
781.323	0.05
781.632	0.05
781.941	0.05
782.249	0.05
782.558	0.05
782.867	0.06
783.176	0.05
783.485	0.05
783.793	0.05
784.102	0.06
784.41	0.05
784.719	0.05
785.027	0.05
785.335	0.05
785.644	0.05
785.952	0.05
786.26	0.05
786.568	0.05
786.876	0.05
787.184	0.05
787.492	0.06
787.8	0.06
788.108	0.06
788.416	0.05
788.723	0.06
789.031	0.05
789.338	0.05
789.646	0.05
789.953	0.05
790.261	0.06
790.568	0.06
790.876	0.05
791.183	0.06
791.49	0.04
791.797	0.06
792.104	0.05
792.411	0.06
792.718	0.06
793.025	0.06
793.332	0.06
793.639	0.06
793.945	0.06
794.252	0.06
794.559	0.06
794.865	0.06
795.172	0.07
795.478	0.06
795.784	0.07
796.091	0.06
796.397	0.07
796.703	0.07
797.009	0.07
797.315	0.07
797.622	0.07
797.927	0.06
798.233	0.06
798.539	0.07
798.845	0.06
799.151	0.07
799.456	0.07
799.762	0.06
800.068	0.06
800.373	0.08
800.679	0.07
800.984	0.06
801.289	0.06
801.595	0.06
801.9	0.07
802.205	0.06
802.51	0.06
802.815	0.06
803.12	0.07
803.425	0.06
803.73	0.06
804.035	0.06
804.339	0.06
804.644	0.05
804.949	0.06
805.253	0.06
805.558	0.06
805.862	0.05
806.167	0.06
806.471	0.05
806.775	0.06
807.08	0.05
807.384	0.05
807.688	0.06
807.992	0.06
808.296	0.05
808.6	0.06
808.904	0.06
809.207	0.06
809.511	0.06
809.815	0.07
810.119	0.06
810.422	0.07
810.726	0.07
811.029	0.07
811.332	0.07
811.636	0.07
811.939	0.06
812.242	0.07
812.546	0.07
812.849	0.08
813.152	0.08
813.455	0.07
813.758	0.07
814.06	0.07
814.363	0.08
814.666	0.07
814.969	0.07
815.271	0.07
815.574	0.06
815.877	0.06
816.179	0.07
816.481	0.06
816.784	0.06
817.086	0.06
817.388	0.05
817.69	0.05
817.993	0.05
818.295	0.06
818.597	0.05
818.899	0.05
819.2	0.05
819.502	0.05
819.804	0.06
820.106	0.05
820.407	0.05
820.709	0.05
821.01	0.05
821.312	0.05
821.613	0.05
821.915	0.04
822.216	0.04
822.517	0.04
822.818	0.04
823.119	0.04
823.42	0.04
823.721	0.04
824.022	0.04
824.323	0.04
824.624	0.04
824.925	0.05
825.226	0.05
825.526	0.04
825.827	0.04
826.127	0.04
826.428	0.05
826.728	0.04
827.028	0.04
827.329	0.04
827.629	0.03
827.929	0.04
828.229	0.04
828.529	0.04
828.829	0.04
829.129	0.04
829.429	0.04
829.729	0.04
830.029	0.04
830.328	0.04
830.628	0.03
830.927	0.02
831.227	0.03
831.526	0.03
831.826	0.04
832.125	0.03
832.424	0.02
832.724	0.03
833.023	0.04
833.322	0.04
833.621	0.03
833.92	0.03
834.219	0.03
834.518	0.03
834.816	0.02
835.115	0.02
835.414	0.02
835.712	0.03
836.011	0.02
836.309	0.02
836.608	0.02
836.906	0.01
837.205	0.01
837.503	0.01
837.801	0.01
838.099	0.01
838.397	-0
838.695	0
838.993	0
839.291	-0.01
839.589	-0
839.887	0
840.184	-0.01
840.482	-0.01
840.78	-0
841.077	-0.01
841.375	-0.01
841.672	0
841.969	-0.01
842.267	-0
842.564	-0.01
842.861	-0
843.158	-0.01
843.455	-0.02
843.752	-0.01
844.049	-0.02
844.346	-0.02
844.643	-0.02
844.94	-0.03
845.236	-0.02
845.533	-0.02
845.83	-0.02
846.126	-0.02
846.423	-0.03
846.719	-0.03
847.015	-0.03
847.312	-0.03
847.608	-0.04
847.904	-0.04
848.2	-0.03
848.496	-0.03
848.792	-0.03
849.088	-0.02
849.384	-0.04
849.68	-0.05
849.975	-0.04
850.271	-0.04
850.567	-0.04
850.862	-0.05
851.158	-0.04
851.453	-0.05
851.748	-0.05
852.044	-0.05
852.339	-0.04
852.634	-0.06
852.929	-0.05
853.224	-0.05
853.519	-0.05
853.814	-0.05
854.109	-0.06
854.404	-0.06
854.699	-0.06
854.994	-0.05
855.288	-0.05
855.583	-0.05
855.877	-0.07
856.172	-0.07
856.466	-0.07
856.76	-0.07
857.055	-0.07
857.349	-0.08
857.643	-0.08
857.937	-0.09
858.231	-0.09
858.525	-0.09
858.819	-0.1
859.113	-0.11
859.407	-0.11
859.701	-0.11
859.994	-0.1
860.288	-0.1
860.581	-0.1
860.875	-0.1
861.168	-0.11
861.462	-0.1
861.755	-0.1
862.048	-0.11
862.341	-0.1
862.634	-0.11
862.928	-0.1
863.221	-0.1
863.513	-0.11
863.806	-0.11
864.099	-0.12
864.392	-0.11
864.685	-0.11
864.977	-0.1
865.27	-0.11
865.562	-0.11
865.855	-0.11
866.147	-0.12
866.44	-0.11
866.732	-0.12
867.024	-0.12
867.316	-0.12
867.608	-0.13
867.9	-0.13
868.192	-0.12
868.484	-0.12
868.776	-0.12
869.068	-0.12
869.359	-0.13
869.651	-0.13
869.943	-0.15
870.234	-0.15
870.526	-0.14
870.817	-0.14
871.108	-0.13
871.4	-0.14
871.691	-0.15
871.982	-0.15
872.273	-0.16
872.564	-0.15
872.855	-0.15
873.146	-0.16
873.437	-0.15
873.728	-0.17
874.019	-0.16
874.309	-0.16
874.6	-0.16
874.89	-0.16
875.181	-0.17
875.471	-0.16
875.762	-0.16
876.052	-0.16
876.342	-0.15
876.632	-0.17
876.922	-0.17
877.213	-0.16
877.503	-0.17
877.792	-0.18
878.082	-0.17
878.372	-0.16
878.662	-0.18
878.952	-0.16
879.241	-0.16
879.531	-0.16
879.82	-0.16
880.11	-0.16
880.399	-0.16
880.688	-0.15
880.978	-0.15
881.267	-0.15
