Data from 12-12-AQDScycling_Absorbance__217__00217.txt Node

Date: Tue Dec 12 11:52:27 EST 2023
User: kyuminlee
Spectrometer: FLMS00943
Trigger mode: 0
Integration Time (sec): 1.000000E-1
Scans to average: 1
Electric dark correction enabled: true
Nonlinearity correction enabled: false
Boxcar width: 0
XAxis mode: Wavelengths
Number of Pixels in Spectrum: 2048
>>>>>Begin Spectral Data<<<<<
179.651	-0.3
180.037	-0.3
180.424	-0.3
180.81	-0.37
181.197	0.27
181.583	-0
181.97	-0.01
182.356	-0
182.743	-0
183.129	-0.06
183.515	-0
183.901	-1.56
184.288	0.27
184.674	-0
185.06	-0.31
185.446	-0
185.832	-0
186.218	-0.04
186.604	-0.33
186.99	-0
187.376	-0
187.762	0.7
188.148	-0
188.534	0.09
188.92	0.1
189.305	0.05
189.691	0.3
190.077	0.25
190.463	-0.02
190.848	-0.03
191.234	0.1
191.619	0.11
192.005	0.08
192.391	0.27
192.776	0.22
193.161	0.2
193.547	0.22
193.932	0.22
194.318	0.01
194.703	0.22
195.088	0.08
195.473	0.21
195.859	0.11
196.244	0.14
196.629	0.14
197.014	0.07
197.399	0.12
197.784	0.18
198.169	0.17
198.554	0.14
198.939	0.2
199.324	0.14
199.709	0.01
200.094	0.03
200.478	0.19
200.863	0.14
201.248	0.21
201.633	0.08
202.017	0.14
202.402	0.16
202.787	0.04
203.171	0.18
203.556	0.27
203.94	0.14
204.325	0.14
204.709	0.26
205.093	0.02
205.478	0.16
205.862	0.13
206.246	0.21
206.631	0.11
207.015	0.13
207.399	0.14
207.783	0.1
208.167	0.14
208.551	0.24
208.935	0.19
209.319	0.1
209.703	0.14
210.087	0.38
210.471	0.01
210.855	0.18
211.239	0.34
211.623	0.25
212.007	0.41
212.39	0.34
212.774	0.23
213.158	0.14
213.541	0.13
213.925	0.18
214.309	0.25
214.692	0.25
215.076	0.28
215.459	0.13
215.842	0.3
216.226	0.26
216.609	0.25
216.993	0.2
217.376	0.41
217.759	0.19
218.142	0.22
218.525	0.69
218.909	0.35
219.292	0.43
219.675	0.41
220.058	0.38
220.441	0.45
220.824	0.48
221.207	0.58
221.59	0.55
221.973	0.48
222.355	0.6
222.738	0.66
223.121	0.55
223.504	0.6
223.886	0.77
224.269	0.67
224.652	0.67
225.034	0.66
225.417	0.8
225.799	0.83
226.182	0.75
226.564	0.82
226.947	0.71
227.329	0.74
227.711	0.88
228.094	0.89
228.476	0.95
228.858	0.81
229.24	0.91
229.623	0.87
230.005	0.87
230.387	0.75
230.769	0.84
231.151	0.88
231.533	0.95
231.915	0.8
232.297	1.03
232.679	1.02
233.061	0.94
233.442	1.04
233.824	1.2
234.206	1.04
234.588	1.15
234.969	1
235.351	0.9
235.733	0.98
236.114	1.13
236.496	1.21
236.877	1.23
237.259	1.01
237.64	1
238.022	1.02
238.403	1.02
238.784	1.09
239.165	0.96
239.547	1.18
239.928	1.15
240.309	1.05
240.69	1.08
241.071	1.01
241.452	1.1
241.834	1.11
242.215	1.13
242.595	1.09
242.976	1.12
243.357	1.03
243.738	1.07
244.119	1.38
244.5	1.19
244.881	1.29
245.261	1.19
245.642	1.14
246.023	1.19
246.403	1.18
246.784	1.12
247.164	1.31
247.545	1.24
247.925	1.29
248.306	1.21
248.686	1.21
249.067	1.23
249.447	1.39
249.827	1.46
250.207	1.37
250.588	1.25
250.968	1.47
251.348	1.42
251.728	1.47
252.108	1.44
252.488	1.23
252.868	1.38
253.248	1.29
253.628	1.46
254.008	1.53
254.388	1.3
254.768	1.3
255.147	1.3
255.527	1.46
255.907	1.31
256.287	1.32
256.666	1.45
257.046	1.44
257.425	1.4
257.805	1.33
258.184	1.35
258.564	1.31
258.943	1.39
259.323	1.41
259.702	1.45
260.081	1.52
260.461	1.64
260.84	1.44
261.219	1.68
261.598	1.58
261.977	1.3
262.356	1.51
262.736	1.57
263.115	1.59
263.494	1.47
263.873	1.37
264.251	1.42
264.63	1.42
265.009	1.55
265.388	1.38
265.767	1.28
266.145	1.43
266.524	1.42
266.903	1.33
267.281	1.34
267.66	1.47
268.039	1.4
268.417	1.4
268.796	1.5
269.174	1.48
269.552	1.33
269.931	1.39
270.309	1.32
270.687	1.58
271.066	1.45
271.444	1.42
271.822	1.58
272.2	1.31
272.578	1.33
272.956	1.46
273.334	1.32
273.712	1.44
274.09	1.44
274.468	1.3
274.846	1.3
275.224	1.35
275.602	1.48
275.98	1.42
276.357	1.3
276.735	1.42
277.113	1.42
277.49	1.24
277.868	1.23
278.246	1.41
278.623	1.31
279.001	1.43
279.378	1.29
279.756	1.43
280.133	1.6
280.51	1.32
280.888	1.53
281.265	1.35
281.642	1.44
282.019	1.65
282.396	1.5
282.773	1.41
283.151	1.42
283.528	1.49
283.905	1.37
284.282	1.46
284.659	1.79
285.035	1.34
285.412	1.36
285.789	1.51
286.166	1.39
286.543	1.46
286.919	1.4
287.296	1.3
287.673	1.5
288.049	1.52
288.426	1.62
288.802	1.65
289.179	1.46
289.555	1.64
289.932	1.39
290.308	1.34
290.684	1.35
291.061	1.38
291.437	1.81
291.813	1.33
292.189	1.39
292.565	1.24
292.942	1.36
293.318	1.51
293.694	1.53
294.07	1.43
294.446	1.39
294.822	1.64
295.197	1.45
295.573	1.47
295.949	1.47
296.325	1.5
296.701	1.6
297.076	1.55
297.452	1.47
297.828	1.45
298.203	1.62
298.579	1.44
298.954	1.4
299.33	1.38
299.705	1.45
300.081	1.42
300.456	1.43
300.831	1.44
301.206	1.44
301.582	1.63
301.957	1.4
302.332	1.52
302.707	1.41
303.082	1.46
303.457	1.47
303.832	1.42
304.207	1.49
304.582	1.43
304.957	1.53
305.332	1.56
305.707	1.61
306.082	1.48
306.456	1.5
306.831	1.4
307.206	1.46
307.58	1.57
307.955	1.47
308.33	1.54
308.704	1.48
309.079	1.54
309.453	1.73
309.828	1.52
310.202	1.41
310.576	1.48
310.951	1.55
311.325	1.62
311.699	1.45
312.073	1.46
312.447	1.51
312.821	1.42
313.196	1.5
313.57	1.43
313.944	1.47
314.317	1.33
314.691	1.46
315.065	1.59
315.439	1.53
315.813	1.6
316.187	1.59
316.56	1.71
316.934	1.54
317.308	1.42
317.681	1.47
318.055	1.56
318.428	1.53
318.802	1.67
319.175	1.56
319.549	1.54
319.922	1.38
320.295	1.49
320.669	1.65
321.042	1.46
321.415	1.72
321.788	1.53
322.162	1.46
322.535	1.48
322.908	1.52
323.281	1.61
323.654	1.65
324.027	1.47
324.4	1.62
324.773	1.52
325.145	1.46
325.518	1.52
325.891	1.4
326.264	1.82
326.636	1.32
327.009	1.42
327.382	1.42
327.754	1.65
328.127	1.45
328.499	1.45
328.872	1.45
329.244	1.55
329.616	1.38
329.989	1.45
330.361	1.64
330.733	1.51
331.106	1.49
331.478	1.75
331.85	1.51
332.222	1.42
332.594	1.34
332.966	1.43
333.338	1.62
333.71	1.55
334.082	1.5
334.454	1.49
334.826	1.53
335.197	1.49
335.569	1.57
335.941	1.47
336.312	1.54
336.684	1.4
337.056	1.52
337.427	1.61
337.799	1.69
338.17	1.53
338.542	1.47
338.913	1.69
339.284	1.63
339.656	1.5
340.027	1.73
340.398	1.55
340.769	1.52
341.141	1.68
341.512	1.62
341.883	1.67
342.254	1.62
342.625	1.53
342.996	1.48
343.367	1.6
343.738	1.57
344.108	1.42
344.479	1.78
344.85	1.44
345.221	1.58
345.591	1.39
345.962	1.56
346.333	1.6
346.703	1.33
347.074	1.42
347.444	1.31
347.815	1.37
348.185	1.35
348.556	1.35
348.926	1.32
349.296	1.41
349.666	1.35
350.037	1.28
350.407	1.23
350.777	1.36
351.147	1.47
351.517	1.38
351.887	1.27
352.257	1.31
352.627	1.29
352.997	1.23
353.367	1.33
353.737	1.33
354.106	1.31
354.476	1.32
354.846	1.31
355.216	1.34
355.585	1.34
355.955	1.33
356.324	1.39
356.694	1.29
357.063	1.26
357.433	1.2
357.802	1.3
358.171	1.22
358.541	1.2
358.91	1.24
359.279	1.18
359.648	1.11
360.017	1.18
360.387	1.13
360.756	1.03
361.125	1.13
361.494	1.03
361.863	1.02
362.231	0.96
362.6	0.97
362.969	0.99
363.338	0.92
363.707	0.97
364.075	0.93
364.444	0.88
364.813	0.87
365.181	0.86
365.55	0.86
365.918	0.86
366.287	0.79
366.655	0.81
367.024	0.79
367.392	0.79
367.76	0.75
368.128	0.74
368.497	0.76
368.865	0.76
369.233	0.72
369.601	0.69
369.969	0.69
370.337	0.71
370.705	0.68
371.073	0.67
371.441	0.66
371.809	0.65
372.177	0.65
372.544	0.62
372.912	0.62
373.28	0.62
373.647	0.63
374.015	0.6
374.383	0.61
374.75	0.58
375.118	0.57
375.485	0.56
375.853	0.57
376.22	0.56
376.587	0.56
376.955	0.56
377.322	0.54
377.689	0.54
378.056	0.52
378.423	0.52
378.79	0.55
379.157	0.54
379.524	0.54
379.891	0.52
380.258	0.52
380.625	0.5
380.992	0.52
381.359	0.51
381.726	0.51
382.092	0.5
382.459	0.51
382.826	0.5
383.192	0.49
383.559	0.49
383.925	0.49
384.292	0.52
384.658	0.53
385.025	0.48
385.391	0.5
385.757	0.51
386.123	0.5
386.49	0.52
386.856	0.51
387.222	0.5
387.588	0.5
387.954	0.52
388.32	0.51
388.686	0.49
389.052	0.5
389.418	0.5
389.784	0.51
390.15	0.49
390.515	0.5
390.881	0.53
391.247	0.51
391.613	0.51
391.978	0.49
392.344	0.49
392.709	0.5
393.075	0.5
393.44	0.49
393.806	0.49
394.171	0.5
394.536	0.5
394.902	0.49
395.267	0.48
395.632	0.48
395.997	0.49
396.362	0.48
396.727	0.5
397.092	0.48
397.457	0.46
397.822	0.46
398.187	0.46
398.552	0.44
398.917	0.47
399.282	0.46
399.646	0.43
400.011	0.44
400.376	0.45
400.74	0.47
401.105	0.45
401.47	0.45
401.834	0.43
402.199	0.43
402.563	0.42
402.927	0.41
403.292	0.44
403.656	0.42
404.02	0.43
404.384	0.42
404.749	0.41
405.113	0.41
405.477	0.39
405.841	0.4
406.205	0.39
406.569	0.39
406.933	0.38
407.296	0.4
407.66	0.39
408.024	0.38
408.388	0.39
408.752	0.38
409.115	0.36
409.479	0.35
409.842	0.37
410.206	0.35
410.569	0.37
410.933	0.37
411.296	0.37
411.66	0.37
412.023	0.35
412.386	0.35
412.749	0.35
413.113	0.36
413.476	0.33
413.839	0.35
414.202	0.33
414.565	0.32
414.928	0.33
415.291	0.32
415.654	0.32
416.017	0.33
416.38	0.33
416.742	0.31
417.105	0.31
417.468	0.31
417.83	0.32
418.193	0.32
418.556	0.31
418.918	0.31
419.281	0.32
419.643	0.3
420.005	0.31
420.368	0.32
420.73	0.31
421.092	0.29
421.455	0.29
421.817	0.29
422.179	0.29
422.541	0.3
422.903	0.29
423.265	0.3
423.627	0.28
423.989	0.29
424.351	0.29
424.713	0.29
425.075	0.27
425.436	0.28
425.798	0.29
426.16	0.29
426.521	0.29
426.883	0.29
427.245	0.28
427.606	0.28
427.967	0.27
428.329	0.28
428.69	0.28
429.052	0.28
429.413	0.28
429.774	0.28
430.135	0.27
430.497	0.26
430.858	0.27
431.219	0.26
431.58	0.27
431.941	0.26
432.302	0.27
432.663	0.26
433.024	0.26
433.384	0.28
433.745	0.25
434.106	0.26
434.467	0.26
434.827	0.28
435.188	0.26
435.548	0.27
435.909	0.27
436.269	0.27
436.63	0.25
436.99	0.26
437.351	0.25
437.711	0.27
438.071	0.25
438.431	0.27
438.792	0.25
439.152	0.24
439.512	0.26
439.872	0.26
440.232	0.27
440.592	0.26
440.952	0.24
441.312	0.25
441.671	0.24
442.031	0.24
442.391	0.24
442.751	0.26
443.11	0.24
443.47	0.24
443.83	0.24
444.189	0.23
444.549	0.23
444.908	0.23
445.267	0.23
445.627	0.22
445.986	0.22
446.345	0.22
446.705	0.23
447.064	0.23
447.423	0.22
447.782	0.23
448.141	0.22
448.5	0.22
448.859	0.22
449.218	0.21
449.577	0.22
449.936	0.23
450.295	0.22
450.653	0.21
451.012	0.22
451.371	0.22
451.729	0.23
452.088	0.23
452.447	0.22
452.805	0.23
453.163	0.23
453.522	0.22
453.88	0.21
454.239	0.21
454.597	0.21
454.955	0.21
455.313	0.2
455.671	0.21
456.029	0.2
456.388	0.19
456.746	0.2
457.104	0.19
457.461	0.19
457.819	0.19
458.177	0.18
458.535	0.18
458.893	0.18
459.25	0.18
459.608	0.18
459.966	0.17
460.323	0.17
460.681	0.16
461.038	0.17
461.396	0.16
461.753	0.17
462.111	0.16
462.468	0.16
462.825	0.16
463.182	0.17
463.54	0.16
463.897	0.16
464.254	0.16
464.611	0.16
464.968	0.16
465.325	0.15
465.682	0.14
466.039	0.16
466.395	0.15
466.752	0.15
467.109	0.15
467.466	0.16
467.822	0.15
468.179	0.14
468.535	0.14
468.892	0.14
469.248	0.14
469.605	0.14
469.961	0.14
470.318	0.15
470.674	0.15
471.03	0.14
471.386	0.15
471.743	0.14
472.099	0.13
472.455	0.14
472.811	0.13
473.167	0.13
473.523	0.12
473.879	0.12
474.235	0.12
474.59	0.12
474.946	0.12
475.302	0.12
475.657	0.11
476.013	0.12
476.369	0.11
476.724	0.12
477.08	0.11
477.435	0.11
477.791	0.11
478.146	0.11
478.501	0.12
478.857	0.11
479.212	0.11
479.567	0.11
479.922	0.11
480.277	0.1
480.632	0.1
480.987	0.11
481.342	0.11
481.697	0.1
482.052	0.1
482.407	0.1
482.762	0.1
483.116	0.1
483.471	0.09
483.826	0.09
484.18	0.09
484.535	0.09
484.89	0.09
485.244	0.09
485.598	0.09
485.953	0.09
486.307	0.09
486.661	0.09
487.016	0.09
487.37	0.09
487.724	0.09
488.078	0.09
488.432	0.09
488.786	0.09
489.14	0.09
489.494	0.09
489.848	0.08
490.202	0.08
490.556	0.08
490.91	0.09
491.263	0.08
491.617	0.08
491.971	0.08
492.324	0.08
492.678	0.09
493.031	0.08
493.385	0.09
493.738	0.08
494.091	0.08
494.445	0.08
494.798	0.08
495.151	0.08
495.504	0.08
495.857	0.08
496.21	0.08
496.564	0.07
496.916	0.09
497.269	0.07
497.622	0.08
497.975	0.08
498.328	0.08
498.681	0.08
499.033	0.08
499.386	0.08
499.739	0.08
500.091	0.08
500.444	0.07
500.796	0.08
501.149	0.07
501.501	0.07
501.854	0.07
502.206	0.08
502.558	0.07
502.91	0.08
503.263	0.07
503.615	0.07
503.967	0.07
504.319	0.07
504.671	0.07
505.023	0.06
505.375	0.07
505.726	0.07
506.078	0.07
506.43	0.07
506.782	0.06
507.133	0.07
507.485	0.07
507.837	0.07
508.188	0.07
508.54	0.06
508.891	0.07
509.243	0.07
509.594	0.07
509.945	0.07
510.296	0.06
510.648	0.07
510.999	0.06
511.35	0.07
511.701	0.06
512.052	0.07
512.403	0.07
512.754	0.06
513.105	0.06
513.456	0.06
513.807	0.06
514.157	0.06
514.508	0.06
514.859	0.06
515.209	0.06
515.56	0.06
515.91	0.05
516.261	0.06
516.611	0.05
516.962	0.06
517.312	0.05
517.662	0.05
518.013	0.06
518.363	0.06
518.713	0.06
519.063	0.06
519.413	0.06
519.763	0.06
520.113	0.06
520.463	0.06
520.813	0.07
521.163	0.06
521.512	0.06
521.862	0.06
522.212	0.06
522.562	0.06
522.911	0.06
523.261	0.06
523.61	0.06
523.96	0.07
524.309	0.07
524.658	0.06
525.008	0.06
525.357	0.06
525.706	0.07
526.056	0.06
526.405	0.06
526.754	0.06
527.103	0.06
527.452	0.06
527.801	0.06
528.15	0.06
528.499	0.06
528.847	0.06
529.196	0.07
529.545	0.07
529.893	0.07
530.242	0.07
530.591	0.07
530.939	0.07
531.288	0.07
531.636	0.07
531.985	0.07
532.333	0.07
532.681	0.07
533.029	0.07
533.378	0.07
533.726	0.07
534.074	0.07
534.422	0.06
534.77	0.07
535.118	0.07
535.466	0.06
535.814	0.06
536.162	0.07
536.509	0.07
536.857	0.06
537.205	0.07
537.552	0.07
537.9	0.07
538.248	0.06
538.595	0.07
538.943	0.07
539.29	0.06
539.637	0.06
539.985	0.07
540.332	0.06
540.679	0.06
541.026	0.05
541.373	0.06
541.721	0.05
542.068	0.05
542.415	0.05
542.762	0.06
543.108	0.04
543.455	0.05
543.802	0.04
544.149	0.05
544.496	0.05
544.842	0.05
545.189	0.05
545.535	0.06
545.882	0.05
546.228	0.05
546.575	0.04
546.921	0.04
547.267	0.05
547.614	0.05
547.96	0.05
548.306	0.04
548.652	0.04
548.998	0.06
549.344	0.05
549.69	0.05
550.036	0.05
550.382	0.05
550.728	0.05
551.074	0.06
551.42	0.06
551.765	0.06
552.111	0.06
552.457	0.06
552.802	0.06
553.148	0.06
553.493	0.05
553.839	0.07
554.184	0.06
554.529	0.06
554.875	0.06
555.22	0.06
555.565	0.06
555.91	0.06
556.255	0.07
556.6	0.07
556.945	0.05
557.29	0.05
557.635	0.07
557.98	0.06
558.325	0.06
558.67	0.06
559.014	0.06
559.359	0.06
559.704	0.06
560.048	0.05
560.393	0.06
560.737	0.04
561.082	0.06
561.426	0.04
561.77	0.05
562.115	0.04
562.459	0.05
562.803	0.04
563.147	0.05
563.491	0.05
563.835	0.05
564.179	0.05
564.523	0.04
564.867	0.05
565.211	0.05
565.555	0.06
565.899	0.06
566.242	0.05
566.586	0.05
566.93	0.05
567.273	0.06
567.617	0.06
567.96	0.06
568.304	0.06
568.647	0.06
568.99	0.06
569.334	0.06
569.677	0.05
570.02	0.06
570.363	0.06
570.706	0.05
571.049	0.05
571.392	0.06
571.735	0.05
572.078	0.06
572.421	0.05
572.764	0.05
573.106	0.05
573.449	0.05
573.792	0.05
574.134	0.05
574.477	0.06
574.819	0.05
575.162	0.05
575.504	0.05
575.847	0.05
576.189	0.06
576.531	0.06
576.873	0.06
577.215	0.05
577.558	0.05
577.9	0.05
578.242	0.06
578.584	0.05
578.926	0.05
579.267	0.05
579.609	0.06
579.951	0.05
580.293	0.05
580.634	0.05
580.976	0.06
581.318	0.05
581.659	0.05
582.001	0.05
582.342	0.05
582.683	0.05
583.025	0.05
583.366	0.04
583.707	0.04
584.049	0.05
584.39	0.05
584.731	0.05
585.072	0.04
585.413	0.05
585.754	0.05
586.095	0.05
586.435	0.05
586.776	0.06
587.117	0.05
587.458	0.05
587.798	0.05
588.139	0.05
588.48	0.05
588.82	0.05
589.161	0.05
589.501	0.05
589.841	0.05
590.182	0.05
590.522	0.05
590.862	0.06
591.202	0.05
591.542	0.05
591.882	0.05
592.222	0.05
592.562	0.05
592.902	0.05
593.242	0.05
593.582	0.05
593.922	0.05
594.261	0.05
594.601	0.05
594.941	0.05
595.28	0.06
595.62	0.06
595.959	0.05
596.299	0.05
596.638	0.05
596.977	0.05
597.317	0.06
597.656	0.06
597.995	0.05
598.334	0.06
598.673	0.05
599.012	0.04
599.351	0.05
599.69	0.05
600.029	0.05
600.368	0.05
600.707	0.05
601.046	0.05
601.384	0.05
601.723	0.05
602.061	0.05
602.4	0.05
602.738	0.05
603.077	0.05
603.415	0.04
603.754	0.05
604.092	0.05
604.43	0.05
604.768	0.05
605.107	0.05
605.445	0.05
605.783	0.05
606.121	0.05
606.459	0.05
606.796	0.05
607.134	0.04
607.472	0.04
607.81	0.06
608.148	0.05
608.485	0.05
608.823	0.05
609.16	0.05
609.498	0.05
609.835	0.05
610.173	0.05
610.51	0.06
610.847	0.06
611.185	0.05
611.522	0.06
611.859	0.05
612.196	0.06
612.533	0.06
612.87	0.06
613.207	0.06
613.544	0.06
613.881	0.07
614.217	0.06
614.554	0.05
614.891	0.06
615.228	0.05
615.564	0.06
615.901	0.06
616.237	0.06
616.574	0.06
616.91	0.07
617.246	0.07
617.583	0.06
617.919	0.07
618.255	0.07
618.591	0.07
618.927	0.06
619.263	0.07
619.599	0.07
619.935	0.07
620.271	0.07
620.607	0.07
620.943	0.06
621.279	0.07
621.614	0.06
621.95	0.06
622.286	0.06
622.621	0.05
622.957	0.06
623.292	0.05
623.627	0.05
623.963	0.05
624.298	0.05
624.633	0.05
624.968	0.05
625.304	0.05
625.639	0.05
625.974	0.05
626.309	0.05
626.644	0.06
626.979	0.06
627.313	0.05
627.648	0.05
627.983	0.05
628.318	0.05
628.652	0.05
628.987	0.05
629.321	0.05
629.656	0.05
629.99	0.05
630.325	0.05
630.659	0.06
630.993	0.05
631.327	0.05
631.662	0.04
631.996	0.04
632.33	0.05
632.664	0.05
632.998	0.04
633.332	0.04
633.666	0.05
633.999	0.05
634.333	0.04
634.667	0.05
635.001	0.04
635.334	0.05
635.668	0.05
636.001	0.05
636.335	0.04
636.668	0.05
637.001	0.04
637.335	0.04
637.668	0.04
638.001	0.04
638.334	0.05
638.668	0.04
639.001	0.04
639.334	0.04
639.667	0.04
639.999	0.04
640.332	0.04
640.665	0.04
640.998	0.04
641.331	0.04
641.663	0.03
641.996	0.04
642.328	0.04
642.661	0.04
642.993	0.04
643.326	0.04
643.658	0.04
643.99	0.04
644.323	0.04
644.655	0.04
644.987	0.04
645.319	0.04
645.651	0.05
645.983	0.04
646.315	0.04
646.647	0.05
646.979	0.05
647.31	0.05
647.642	0.05
647.974	0.05
648.305	0.05
648.637	0.05
648.968	0.05
649.3	0.06
649.631	0.06
649.963	0.05
650.294	0.06
650.625	0.06
650.957	0.06
651.288	0.06
651.619	0.06
651.95	0.06
652.281	0.05
652.612	0.05
652.943	0.06
653.274	0.06
653.604	0.06
653.935	0.05
654.266	0.06
654.596	0.05
654.927	0.05
655.258	0.05
655.588	0.06
655.918	0.06
656.249	0.04
656.579	0.05
656.909	0.05
657.24	0.05
657.57	0.06
657.9	0.05
658.23	0.05
658.56	0.06
658.89	0.06
659.22	0.05
659.55	0.06
659.88	0.06
660.209	0.06
660.539	0.08
660.869	0.06
661.198	0.06
661.528	0.06
661.857	0.06
662.187	0.07
662.516	0.06
662.846	0.06
663.175	0.06
663.504	0.06
663.833	0.05
664.163	0.06
664.492	0.05
664.821	0.06
665.15	0.06
665.479	0.06
665.807	0.05
666.136	0.06
666.465	0.05
666.794	0.05
667.122	0.05
667.451	0.05
667.78	0.04
668.108	0.05
668.437	0.05
668.765	0.05
669.093	0.06
669.422	0.05
669.75	0.06
670.078	0.06
670.406	0.06
670.734	0.06
671.062	0.06
671.39	0.06
671.718	0.06
672.046	0.06
672.374	0.05
672.702	0.06
673.029	0.05
673.357	0.06
673.685	0.06
674.012	0.06
674.34	0.05
674.667	0.06
674.995	0.06
675.322	0.06
675.649	0.05
675.977	0.05
676.304	0.05
676.631	0.05
676.958	0.06
677.285	0.04
677.612	0.04
677.939	0.05
678.266	0.05
678.593	0.05
678.92	0.05
679.246	0.04
679.573	0.05
679.9	0.05
680.226	0.05
680.553	0.04
680.879	0.05
681.206	0.05
681.532	0.04
681.858	0.04
682.184	0.04
682.511	0.05
682.837	0.04
683.163	0.05
683.489	0.05
683.815	0.04
684.141	0.05
684.467	0.04
684.793	0.04
685.118	0.05
685.444	0.05
685.77	0.05
686.095	0.05
686.421	0.05
686.746	0.05
687.072	0.05
687.397	0.05
687.723	0.05
688.048	0.06
688.373	0.05
688.698	0.06
689.023	0.05
689.349	0.05
689.674	0.06
689.999	0.06
690.323	0.05
690.648	0.04
690.973	0.04
691.298	0.04
691.623	0.04
691.947	0.04
692.272	0.04
692.596	0.04
692.921	0.04
693.245	0.04
693.57	0.05
693.894	0.04
694.218	0.05
694.543	0.04
694.867	0.04
695.191	0.04
695.515	0.04
695.839	0.03
696.163	0.05
696.487	0.04
696.811	0.04
697.135	0.05
697.458	0.04
697.782	0.04
698.106	0.04
698.429	0.04
698.753	0.04
699.076	0.04
699.4	0.04
699.723	0.04
700.046	0.04
700.37	0.04
700.693	0.05
701.016	0.04
701.339	0.05
701.662	0.05
701.985	0.05
702.308	0.04
702.631	0.05
702.954	0.05
703.277	0.04
703.599	0.04
703.922	0.04
704.245	0.04
704.567	0.04
704.89	0.05
705.212	0.04
705.535	0.04
705.857	0.04
706.179	0.04
706.502	0.04
706.824	0.03
707.146	0.04
707.468	0.04
707.79	0.04
708.112	0.05
708.434	0.04
708.756	0.05
709.078	0.05
709.399	0.04
709.721	0.04
710.043	0.04
710.364	0.04
710.686	0.05
711.007	0.04
711.329	0.05
711.65	0.04
711.972	0.05
712.293	0.05
712.614	0.04
712.935	0.05
713.256	0.04
713.577	0.05
713.898	0.04
714.219	0.04
714.54	0.04
714.861	0.03
715.182	0.04
715.503	0.03
715.823	0.04
716.144	0.04
716.464	0.03
716.785	0.04
717.105	0.03
717.426	0.04
717.746	0.04
718.066	0.03
718.387	0.03
718.707	0.03
719.027	0.04
719.347	0.03
719.667	0.03
719.987	0.02
720.307	0.02
720.627	0.02
720.947	0.03
721.266	0.02
721.586	0.02
721.906	0.02
722.225	0.02
722.545	0.02
722.864	0.02
723.184	0.02
723.503	0.02
723.823	0.03
724.142	0.02
724.461	0.03
724.78	0.03
725.099	0.03
725.418	0.02
725.737	0.02
726.056	0.03
726.375	0.04
726.694	0.03
727.013	0.04
727.331	0.03
727.65	0.03
727.969	0.03
728.287	0.03
728.606	0.03
728.924	0.02
729.242	0.03
729.561	0.03
729.879	0.02
730.197	0.03
730.515	0.03
730.834	0.03
731.152	0.03
731.47	0.03
731.788	0.03
732.105	0.02
732.423	0.03
732.741	0.02
733.059	0.02
733.376	0.03
733.694	0.02
734.012	0.02
734.329	0.04
734.647	0.02
734.964	0.03
735.281	0.03
735.599	0.02
735.916	0.03
736.233	0.03
736.55	0.03
736.867	0.03
737.184	0.04
737.501	0.03
737.818	0.04
738.135	0.04
738.452	0.03
738.768	0.04
739.085	0.04
739.402	0.02
739.718	0.03
740.035	0.03
740.351	0.04
740.668	0.04
740.984	0.04
741.3	0.03
741.617	0.04
741.933	0.03
742.249	0.03
742.565	0.04
742.881	0.04
743.197	0.04
743.513	0.04
743.829	0.03
744.144	0.03
744.46	0.04
744.776	0.04
745.091	0.03
745.407	0.03
745.722	0.03
746.038	0.04
746.353	0.02
746.669	0.04
746.984	0.03
747.299	0.04
747.614	0.04
747.93	0.04
748.245	0.03
748.56	0.04
748.875	0.03
749.189	0.04
749.504	0.04
749.819	0.04
750.134	0.04
750.448	0.04
750.763	0.04
751.078	0.04
751.392	0.04
751.707	0.05
752.021	0.04
752.335	0.04
752.65	0.05
752.964	0.04
753.278	0.04
753.592	0.04
753.906	0.03
754.22	0.03
754.534	0.04
754.848	0.04
755.162	0.03
755.476	0.04
755.789	0.04
756.103	0.03
756.417	0.04
756.73	0.04
757.044	0.04
757.357	0.04
757.671	0.04
757.984	0.04
758.297	0.05
758.61	0.05
758.924	0.04
759.237	0.03
759.55	0.04
759.863	0.04
760.176	0.04
760.488	0.04
760.801	0.04
761.114	0.03
761.427	0.04
761.739	0.04
762.052	0.04
762.365	0.03
762.677	0.04
762.99	0.03
763.302	0.03
763.614	0.04
763.926	0.04
764.239	0.04
764.551	0.04
764.863	0.04
765.175	0.04
765.487	0.04
765.799	0.03
766.111	0.03
766.423	0.04
766.734	0.04
767.046	0.03
767.358	0.04
767.669	0.03
767.981	0.04
768.292	0.03
768.604	0.04
768.915	0.03
769.226	0.03
769.537	0.02
769.849	0.04
770.16	0.03
770.471	0.03
770.782	0.03
771.093	0.04
771.404	0.02
771.715	0.02
772.025	0.02
772.336	0.03
772.647	0.02
772.957	0.03
773.268	0.03
773.578	0.02
773.889	0.03
774.199	0.04
774.51	0.03
774.82	0.03
775.13	0.03
775.44	0.03
775.75	0.04
776.06	0.03
776.37	0.03
776.68	0.04
776.99	0.04
777.3	0.03
777.61	0.03
777.92	0.03
778.229	0.03
778.539	0.03
778.848	0.03
779.158	0.03
779.467	0.04
779.777	0.03
780.086	0.03
780.395	0.03
780.704	0.03
781.013	0.02
781.323	0.03
781.632	0.04
781.941	0.04
782.249	0.03
782.558	0.03
782.867	0.04
783.176	0.03
783.485	0.03
783.793	0.03
784.102	0.03
784.41	0.03
784.719	0.03
785.027	0.03
785.335	0.03
785.644	0.03
785.952	0.04
786.26	0.03
786.568	0.02
786.876	0.02
787.184	0.03
787.492	0.04
787.8	0.03
788.108	0.03
788.416	0.02
788.723	0.03
789.031	0.02
789.338	0.03
789.646	0.02
789.953	0.03
790.261	0.03
790.568	0.04
790.876	0.03
791.183	0.04
791.49	0.02
791.797	0.03
792.104	0.02
792.411	0.04
792.718	0.02
793.025	0.03
793.332	0.03
793.639	0.03
793.945	0.05
794.252	0.04
794.559	0.03
794.865	0.04
795.172	0.03
795.478	0.04
795.784	0.04
796.091	0.03
796.397	0.04
796.703	0.04
797.009	0.05
797.315	0.04
797.622	0.04
797.927	0.04
798.233	0.04
798.539	0.04
798.845	0.04
799.151	0.04
799.456	0.04
799.762	0.03
800.068	0.04
800.373	0.05
800.679	0.04
800.984	0.03
801.289	0.03
801.595	0.03
801.9	0.04
802.205	0.03
802.51	0.03
802.815	0.03
803.12	0.04
803.425	0.03
803.73	0.03
804.035	0.04
804.339	0.03
804.644	0.03
804.949	0.04
805.253	0.03
805.558	0.04
805.862	0.03
806.167	0.03
806.471	0.03
806.775	0.04
807.08	0.04
807.384	0.03
807.688	0.03
807.992	0.04
808.296	0.04
808.6	0.04
808.904	0.04
809.207	0.04
809.511	0.04
809.815	0.04
810.119	0.04
810.422	0.04
810.726	0.04
811.029	0.05
811.332	0.04
811.636	0.04
811.939	0.04
812.242	0.05
812.546	0.04
812.849	0.03
813.152	0.05
813.455	0.05
813.758	0.04
814.06	0.04
814.363	0.04
814.666	0.04
814.969	0.04
815.271	0.04
815.574	0.04
815.877	0.03
816.179	0.03
816.481	0.03
816.784	0.03
817.086	0.03
817.388	0.03
817.69	0.02
817.993	0.02
818.295	0.03
818.597	0.03
818.899	0.02
819.2	0.02
819.502	0.02
819.804	0.02
820.106	0.02
820.407	0.02
820.709	0.03
821.01	0.02
821.312	0.02
821.613	0.02
821.915	0.02
822.216	0.02
822.517	0.02
822.818	0.02
823.119	0.02
823.42	0.02
823.721	0.01
824.022	0.02
824.323	0.02
824.624	0.02
824.925	0.03
825.226	0.03
825.526	0.03
825.827	0.03
826.127	0.03
826.428	0.03
826.728	0.03
827.028	0.02
827.329	0.02
827.629	0.02
827.929	0.02
828.229	0.03
828.529	0.03
828.829	0.03
829.129	0.03
829.429	0.03
829.729	0.02
830.029	0.02
830.328	0.02
830.628	0.02
830.927	0.01
831.227	0.02
831.526	0.02
831.826	0.02
832.125	0.02
832.424	0.01
832.724	0.03
833.023	0.02
833.322	0.02
833.621	0.02
833.92	0.01
834.219	0.02
834.518	0.02
834.816	0.01
835.115	0.03
835.414	0.02
835.712	0.01
836.011	0.02
836.309	0.01
836.608	0.01
836.906	0.01
837.205	0
837.503	0.01
837.801	0
838.099	-0
838.397	-0.01
838.695	-0.01
838.993	-0.01
839.291	-0.01
839.589	-0.01
839.887	-0.01
840.184	-0.02
840.482	-0.02
840.78	-0.02
841.077	-0.02
841.375	-0.02
841.672	-0.02
841.969	-0.03
842.267	-0.02
842.564	-0.03
842.861	-0.02
843.158	-0.03
843.455	-0.05
843.752	-0.04
844.049	-0.04
844.346	-0.04
844.643	-0.04
844.94	-0.05
845.236	-0.03
845.533	-0.04
845.83	-0.05
846.126	-0.06
846.423	-0.06
846.719	-0.06
847.015	-0.05
847.312	-0.05
847.608	-0.05
847.904	-0.07
848.2	-0.07
848.496	-0.06
848.792	-0.06
849.088	-0.05
849.384	-0.06
849.68	-0.06
849.975	-0.07
850.271	-0.07
850.567	-0.06
850.862	-0.07
851.158	-0.06
851.453	-0.06
851.748	-0.07
852.044	-0.07
852.339	-0.06
852.634	-0.08
852.929	-0.07
853.224	-0.08
853.519	-0.08
853.814	-0.07
854.109	-0.08
854.404	-0.08
854.699	-0.08
854.994	-0.07
855.288	-0.08
855.583	-0.07
855.877	-0.08
856.172	-0.09
856.466	-0.09
856.76	-0.09
857.055	-0.09
857.349	-0.1
857.643	-0.11
857.937	-0.1
858.231	-0.1
858.525	-0.1
858.819	-0.11
859.113	-0.11
859.407	-0.11
859.701	-0.12
859.994	-0.12
860.288	-0.11
860.581	-0.12
860.875	-0.11
861.168	-0.12
861.462	-0.12
861.755	-0.12
862.048	-0.12
862.341	-0.12
862.634	-0.12
862.928	-0.11
863.221	-0.12
863.513	-0.12
863.806	-0.13
864.099	-0.13
864.392	-0.13
864.685	-0.13
864.977	-0.13
865.27	-0.14
865.562	-0.13
865.855	-0.13
866.147	-0.14
866.44	-0.13
866.732	-0.14
867.024	-0.15
867.316	-0.15
867.608	-0.14
867.9	-0.14
868.192	-0.15
868.484	-0.15
868.776	-0.15
869.068	-0.15
869.359	-0.15
869.651	-0.15
869.943	-0.17
870.234	-0.16
870.526	-0.16
870.817	-0.16
871.108	-0.15
871.4	-0.16
871.691	-0.17
871.982	-0.16
872.273	-0.18
872.564	-0.17
872.855	-0.16
873.146	-0.17
873.437	-0.17
873.728	-0.19
874.019	-0.17
874.309	-0.18
874.6	-0.18
874.89	-0.19
875.181	-0.19
875.471	-0.17
875.762	-0.17
876.052	-0.18
876.342	-0.16
876.632	-0.17
876.922	-0.19
877.213	-0.18
877.503	-0.19
877.792	-0.18
878.082	-0.19
878.372	-0.17
878.662	-0.2
878.952	-0.18
879.241	-0.19
879.531	-0.18
879.82	-0.19
880.11	-0.19
880.399	-0.18
880.688	-0.17
880.978	-0.17
881.267	-0.17
