Data from 12-12-AQDScycling_Absorbance__915__00915.txt Node

Date: Tue Dec 12 14:45:29 EST 2023
User: kyuminlee
Spectrometer: FLMS00943
Trigger mode: 0
Integration Time (sec): 1.000000E-1
Scans to average: 1
Electric dark correction enabled: true
Nonlinearity correction enabled: false
Boxcar width: 0
XAxis mode: Wavelengths
Number of Pixels in Spectrum: 2048
>>>>>Begin Spectral Data<<<<<
179.651	-0.26
180.037	-0.26
180.424	-0.26
180.81	-0
181.197	0.34
181.583	-0.38
181.97	-0.44
182.356	-0
182.743	-0
183.129	0.13
183.515	-0
183.901	-2.4
184.288	0.1
184.674	-0
185.06	-0.78
185.446	-0.73
185.832	-1.55
186.218	0.14
186.604	-0
186.99	-0
187.376	0.3
187.762	-0
188.148	0.01
188.534	-0.28
188.92	0.12
189.305	0.27
189.691	0.17
190.077	0.2
190.463	0.05
190.848	0.1
191.234	0.13
191.619	-0.06
192.005	0.08
192.391	0.17
192.776	0.25
193.161	0.09
193.547	0.06
193.932	0
194.318	0.1
194.703	0.09
195.088	0.24
195.473	0.21
195.859	0.19
196.244	0.21
196.629	0.08
197.014	0.06
197.399	0.17
197.784	0.08
198.169	0.13
198.554	0.2
198.939	0.1
199.324	0.09
199.709	0.1
200.094	-0
200.478	0.21
200.863	0.22
201.248	0.24
201.633	0.1
202.017	0.18
202.402	0.2
202.787	0.15
203.171	0.11
203.556	0.17
203.94	0.16
204.325	0.19
204.709	0.16
205.093	0.05
205.478	0.08
205.862	0.09
206.246	0.16
206.631	0.21
207.015	0.17
207.399	0.19
207.783	0.12
208.167	0.1
208.551	0.22
208.935	0.15
209.319	0.21
209.703	0.23
210.087	0.34
210.471	0.14
210.855	0.03
211.239	0.31
211.623	0.48
212.007	0.26
212.39	0.39
212.774	0.08
213.158	0.14
213.541	0.19
213.925	0.3
214.309	0.22
214.692	0.42
215.076	0.2
215.459	0.2
215.842	0.22
216.226	0.4
216.609	0.34
216.993	0.27
217.376	0.64
217.759	0.14
218.142	0.34
218.525	0.57
218.909	0.4
219.292	0.28
219.675	0.54
220.058	0.47
220.441	0.48
220.824	0.53
221.207	0.64
221.59	0.54
221.973	0.54
222.355	0.5
222.738	0.72
223.121	0.58
223.504	0.59
223.886	0.78
224.269	0.76
224.652	0.63
225.034	0.81
225.417	0.84
225.799	0.74
226.182	0.95
226.564	0.73
226.947	0.75
227.329	0.82
227.711	0.96
228.094	0.87
228.476	1
228.858	0.8
229.24	0.91
229.623	1.01
230.005	0.89
230.387	0.77
230.769	0.86
231.151	1.06
231.533	0.98
231.915	0.96
232.297	1.05
232.679	1.18
233.061	1.02
233.442	1.08
233.824	1.12
234.206	1.09
234.588	1.13
234.969	1
235.351	0.99
235.733	0.98
236.114	1.1
236.496	0.99
236.877	1.07
237.259	1.07
237.64	1.16
238.022	1.06
238.403	1.1
238.784	1
239.165	0.98
239.547	1.11
239.928	1.14
240.309	1.04
240.69	1.16
241.071	1.09
241.452	1.1
241.834	1.01
242.215	1.05
242.595	1.05
242.976	1.07
243.357	1.16
243.738	0.97
244.119	1.38
244.5	1.1
244.881	1.18
245.261	1.08
245.642	1.14
246.023	1.18
246.403	1.1
246.784	1.18
247.164	1.28
247.545	1.21
247.925	1.3
248.306	1.32
248.686	1.51
249.067	1.27
249.447	1.4
249.827	1.47
250.207	1.39
250.588	1.41
250.968	1.44
251.348	1.29
251.728	1.35
252.108	1.35
252.488	1.34
252.868	1.33
253.248	1.33
253.628	1.39
254.008	1.32
254.388	1.38
254.768	1.26
255.147	1.33
255.527	1.44
255.907	1.28
256.287	1.27
256.666	1.51
257.046	1.52
257.425	1.56
257.805	1.47
258.184	1.42
258.564	1.42
258.943	1.32
259.323	1.63
259.702	1.45
260.081	1.41
260.461	1.55
260.84	1.39
261.219	1.48
261.598	1.64
261.977	1.58
262.356	1.49
262.736	1.48
263.115	1.51
263.494	1.41
263.873	1.41
264.251	1.52
264.63	1.55
265.009	1.35
265.388	1.45
265.767	1.37
266.145	1.42
266.524	1.59
266.903	1.39
267.281	1.34
267.66	1.52
268.039	1.44
268.417	1.44
268.796	1.39
269.174	1.4
269.552	1.38
269.931	1.37
270.309	1.55
270.687	1.5
271.066	1.51
271.444	1.41
271.822	1.7
272.2	1.54
272.578	1.46
272.956	1.56
273.334	1.25
273.712	1.47
274.09	1.56
274.468	1.41
274.846	1.34
275.224	1.33
275.602	1.39
275.98	1.49
276.357	1.35
276.735	1.37
277.113	1.53
277.49	1.36
277.868	1.28
278.246	1.38
278.623	1.43
279.001	1.29
279.378	1.36
279.756	1.59
280.133	1.46
280.51	1.37
280.888	1.51
281.265	1.41
281.642	1.47
282.019	1.53
282.396	1.64
282.773	1.46
283.151	1.52
283.528	1.41
283.905	1.51
284.282	1.49
284.659	1.46
285.035	1.4
285.412	1.27
285.789	1.78
286.166	1.4
286.543	1.36
286.919	1.52
287.296	1.37
287.673	1.75
288.049	1.49
288.426	1.59
288.802	1.46
289.179	1.47
289.555	1.69
289.932	1.56
290.308	1.3
290.684	1.35
291.061	1.36
291.437	1.59
291.813	1.47
292.189	1.45
292.565	1.32
292.942	1.44
293.318	1.47
293.694	1.48
294.07	1.26
294.446	1.45
294.822	1.42
295.197	1.45
295.573	1.48
295.949	1.51
296.325	1.49
296.701	1.53
297.076	1.54
297.452	1.61
297.828	1.57
298.203	1.6
298.579	1.52
298.954	1.45
299.33	1.37
299.705	1.48
300.081	1.56
300.456	1.52
300.831	1.4
301.206	1.4
301.582	1.59
301.957	1.51
302.332	1.66
302.707	1.43
303.082	1.46
303.457	1.53
303.832	1.51
304.207	1.43
304.582	1.4
304.957	1.44
305.332	1.52
305.707	1.63
306.082	1.52
306.456	1.58
306.831	1.55
307.206	1.53
307.58	1.66
307.955	1.45
308.33	1.51
308.704	1.39
309.079	1.46
309.453	1.68
309.828	1.38
310.202	1.35
310.576	1.44
310.951	1.42
311.325	1.48
311.699	1.38
312.073	1.39
312.447	1.42
312.821	1.42
313.196	1.54
313.57	1.32
313.944	1.45
314.317	1.37
314.691	1.32
315.065	1.45
315.439	1.54
315.813	1.54
316.187	1.4
316.56	1.56
316.934	1.54
317.308	1.45
317.681	1.54
318.055	1.5
318.428	1.5
318.802	1.64
319.175	1.43
319.549	1.59
319.922	1.37
320.295	1.48
320.669	1.55
321.042	1.39
321.415	1.63
321.788	1.44
322.162	1.51
322.535	1.46
322.908	1.45
323.281	1.44
323.654	1.58
324.027	1.51
324.4	1.63
324.773	1.48
325.145	1.54
325.518	1.46
325.891	1.42
326.264	1.59
326.636	1.36
327.009	1.41
327.382	1.42
327.754	1.51
328.127	1.57
328.499	1.65
328.872	1.58
329.244	1.52
329.616	1.46
329.989	1.54
330.361	1.58
330.733	1.54
331.106	1.4
331.478	1.58
331.85	1.49
332.222	1.38
332.594	1.49
332.966	1.7
333.338	1.59
333.71	1.52
334.082	1.55
334.454	1.43
334.826	1.46
335.197	1.49
335.569	1.49
335.941	1.44
336.312	1.54
336.684	1.44
337.056	1.48
337.427	1.65
337.799	1.57
338.17	1.51
338.542	1.43
338.913	1.58
339.284	1.66
339.656	1.48
340.027	1.53
340.398	1.48
340.769	1.51
341.141	1.68
341.512	1.43
341.883	1.52
342.254	1.53
342.625	1.65
342.996	1.61
343.367	1.47
343.738	1.48
344.108	1.51
344.479	1.71
344.85	1.49
345.221	1.58
345.591	1.45
345.962	1.42
346.333	1.61
346.703	1.31
347.074	1.4
347.444	1.36
347.815	1.34
348.185	1.34
348.556	1.39
348.926	1.51
349.296	1.43
349.666	1.27
350.037	1.32
350.407	1.25
350.777	1.31
351.147	1.43
351.517	1.39
351.887	1.35
352.257	1.43
352.627	1.26
352.997	1.29
353.367	1.41
353.737	1.46
354.106	1.46
354.476	1.37
354.846	1.4
355.216	1.34
355.585	1.41
355.955	1.36
356.324	1.39
356.694	1.37
357.063	1.32
357.433	1.31
357.802	1.3
358.171	1.36
358.541	1.33
358.91	1.29
359.279	1.37
359.648	1.31
360.017	1.38
360.387	1.38
360.756	1.25
361.125	1.34
361.494	1.32
361.863	1.25
362.231	1.37
362.6	1.29
362.969	1.25
363.338	1.18
363.707	1.31
364.075	1.33
364.444	1.19
364.813	1.22
365.181	1.19
365.55	1.25
365.918	1.34
366.287	1.25
366.655	1.27
367.024	1.23
367.392	1.32
367.76	1.27
368.128	1.23
368.497	1.28
368.865	1.24
369.233	1.25
369.601	1.2
369.969	1.25
370.337	1.24
370.705	1.2
371.073	1.23
371.441	1.2
371.809	1.26
372.177	1.19
372.544	1.25
372.912	1.24
373.28	1.33
373.647	1.28
374.015	1.34
374.383	1.33
374.75	1.29
375.118	1.22
375.485	1.26
375.853	1.28
376.22	1.26
376.587	1.29
376.955	1.3
377.322	1.31
377.689	1.27
378.056	1.2
378.423	1.26
378.79	1.28
379.157	1.29
379.524	1.3
379.891	1.24
380.258	1.29
380.625	1.38
380.992	1.41
381.359	1.27
381.726	1.41
382.092	1.37
382.459	1.34
382.826	1.4
383.192	1.34
383.559	1.4
383.925	1.35
384.292	1.27
384.658	1.43
385.025	1.32
385.391	1.41
385.757	1.37
386.123	1.36
386.49	1.36
386.856	1.48
387.222	1.48
387.588	1.47
387.954	1.52
388.32	1.38
388.686	1.41
389.052	1.39
389.418	1.34
389.784	1.42
390.15	1.45
390.515	1.26
390.881	1.52
391.247	1.34
391.613	1.45
391.978	1.34
392.344	1.57
392.709	1.4
393.075	1.43
393.44	1.45
393.806	1.36
394.171	1.35
394.536	1.35
394.902	1.43
395.267	1.33
395.632	1.4
395.997	1.35
396.362	1.38
396.727	1.41
397.092	1.3
397.457	1.32
397.822	1.37
398.187	1.4
398.552	1.27
398.917	1.43
399.282	1.32
399.646	1.26
400.011	1.37
400.376	1.28
400.74	1.37
401.105	1.34
401.47	1.3
401.834	1.37
402.199	1.3
402.563	1.27
402.927	1.27
403.292	1.4
403.656	1.29
404.02	1.31
404.384	1.34
404.749	1.27
405.113	1.3
405.477	1.32
405.841	1.21
406.205	1.25
406.569	1.26
406.933	1.2
407.296	1.19
407.66	1.2
408.024	1.24
408.388	1.28
408.752	1.2
409.115	1.24
409.479	1.18
409.842	1.22
410.206	1.1
410.569	1.18
410.933	1.15
411.296	1.08
411.66	1.18
412.023	1.1
412.386	1.13
412.749	1.09
413.113	1.13
413.476	1.09
413.839	1.05
414.202	1.11
414.565	1.02
414.928	1.1
415.291	1.03
415.654	1
416.017	1.08
416.38	1.06
416.742	1.05
417.105	1.05
417.468	1.04
417.83	1.1
418.193	1.09
418.556	1.02
418.918	1.01
419.281	1.02
419.643	1.05
420.005	1.06
420.368	1
420.73	1
421.092	1.04
421.455	1.02
421.817	0.97
422.179	1
422.541	1.03
422.903	1.04
423.265	1.02
423.627	0.99
423.989	1.02
424.351	1
424.713	0.97
425.075	0.98
425.436	1
425.798	0.98
426.16	1
426.521	1
426.883	1
427.245	1.01
427.606	0.97
427.967	0.96
428.329	0.97
428.69	0.98
429.052	0.94
429.413	0.95
429.774	0.95
430.135	0.97
430.497	0.94
430.858	0.96
431.219	0.91
431.58	0.91
431.941	0.92
432.302	0.92
432.663	0.93
433.024	0.94
433.384	0.94
433.745	0.88
434.106	0.92
434.467	0.92
434.827	0.91
435.188	0.9
435.548	0.92
435.909	0.89
436.269	0.92
436.63	0.87
436.99	0.89
437.351	0.87
437.711	0.88
438.071	0.86
438.431	0.88
438.792	0.88
439.152	0.86
439.512	0.86
439.872	0.84
440.232	0.85
440.592	0.88
440.952	0.85
441.312	0.82
441.671	0.83
442.031	0.84
442.391	0.81
442.751	0.84
443.11	0.81
443.47	0.8
443.83	0.81
444.189	0.79
444.549	0.8
444.908	0.8
445.267	0.79
445.627	0.77
445.986	0.77
446.345	0.75
446.705	0.76
447.064	0.79
447.423	0.77
447.782	0.76
448.141	0.74
448.5	0.71
448.859	0.74
449.218	0.72
449.577	0.73
449.936	0.73
450.295	0.72
450.653	0.73
451.012	0.71
451.371	0.71
451.729	0.72
452.088	0.72
452.447	0.72
452.805	0.7
453.163	0.7
453.522	0.69
453.88	0.68
454.239	0.68
454.597	0.67
454.955	0.66
455.313	0.65
455.671	0.66
456.029	0.65
456.388	0.64
456.746	0.64
457.104	0.62
457.461	0.62
457.819	0.63
458.177	0.61
458.535	0.6
458.893	0.6
459.25	0.59
459.608	0.59
459.966	0.57
460.323	0.58
460.681	0.56
461.038	0.55
461.396	0.55
461.753	0.54
462.111	0.53
462.468	0.53
462.825	0.52
463.182	0.51
463.54	0.51
463.897	0.52
464.254	0.5
464.611	0.5
464.968	0.49
465.325	0.5
465.682	0.48
466.039	0.48
466.395	0.47
466.752	0.46
467.109	0.47
467.466	0.46
467.822	0.46
468.179	0.44
468.535	0.44
468.892	0.44
469.248	0.43
469.605	0.44
469.961	0.42
470.318	0.44
470.674	0.42
471.03	0.41
471.386	0.41
471.743	0.4
472.099	0.41
472.455	0.39
472.811	0.39
473.167	0.39
473.523	0.38
473.879	0.37
474.235	0.37
474.59	0.36
474.946	0.36
475.302	0.35
475.657	0.35
476.013	0.35
476.369	0.34
476.724	0.34
477.08	0.34
477.435	0.34
477.791	0.33
478.146	0.33
478.501	0.32
478.857	0.32
479.212	0.31
479.567	0.31
479.922	0.3
480.277	0.3
480.632	0.29
480.987	0.29
481.342	0.29
481.697	0.28
482.052	0.28
482.407	0.27
482.762	0.27
483.116	0.27
483.471	0.26
483.826	0.25
484.18	0.25
484.535	0.25
484.89	0.25
485.244	0.25
485.598	0.25
485.953	0.24
486.307	0.24
486.661	0.24
487.016	0.23
487.37	0.23
487.724	0.23
488.078	0.23
488.432	0.22
488.786	0.23
489.14	0.22
489.494	0.22
489.848	0.22
490.202	0.21
490.556	0.21
490.91	0.21
491.263	0.21
491.617	0.21
491.971	0.2
492.324	0.2
492.678	0.21
493.031	0.21
493.385	0.2
493.738	0.19
494.091	0.2
494.445	0.2
494.798	0.2
495.151	0.19
495.504	0.2
495.857	0.19
496.21	0.19
496.564	0.19
496.916	0.19
497.269	0.18
497.622	0.19
497.975	0.19
498.328	0.18
498.681	0.19
499.033	0.18
499.386	0.18
499.739	0.18
500.091	0.16
500.444	0.17
500.796	0.17
501.149	0.17
501.501	0.18
501.854	0.17
502.206	0.17
502.558	0.17
502.91	0.17
503.263	0.17
503.615	0.16
503.967	0.17
504.319	0.17
504.671	0.16
505.023	0.17
505.375	0.17
505.726	0.16
506.078	0.16
506.43	0.16
506.782	0.17
507.133	0.16
507.485	0.17
507.837	0.17
508.188	0.17
508.54	0.17
508.891	0.17
509.243	0.16
509.594	0.17
509.945	0.16
510.296	0.16
510.648	0.17
510.999	0.15
511.35	0.16
511.701	0.16
512.052	0.16
512.403	0.16
512.754	0.16
513.105	0.16
513.456	0.16
513.807	0.16
514.157	0.16
514.508	0.16
514.859	0.15
515.209	0.16
515.56	0.16
515.91	0.16
516.261	0.17
516.611	0.16
516.962	0.16
517.312	0.16
517.662	0.16
518.013	0.16
518.363	0.16
518.713	0.17
519.063	0.16
519.413	0.16
519.763	0.16
520.113	0.17
520.463	0.17
520.813	0.17
521.163	0.16
521.512	0.16
521.862	0.17
522.212	0.17
522.562	0.16
522.911	0.16
523.261	0.16
523.61	0.16
523.96	0.17
524.309	0.17
524.658	0.16
525.008	0.17
525.357	0.17
525.706	0.17
526.056	0.17
526.405	0.16
526.754	0.16
527.103	0.15
527.452	0.17
527.801	0.17
528.15	0.16
528.499	0.16
528.847	0.17
529.196	0.18
529.545	0.17
529.893	0.18
530.242	0.17
530.591	0.17
530.939	0.18
531.288	0.17
531.636	0.18
531.985	0.17
532.333	0.17
532.681	0.17
533.029	0.17
533.378	0.17
533.726	0.17
534.074	0.17
534.422	0.17
534.77	0.18
535.118	0.17
535.466	0.17
535.814	0.17
536.162	0.17
536.509	0.18
536.857	0.17
537.205	0.17
537.552	0.18
537.9	0.18
538.248	0.17
538.595	0.18
538.943	0.18
539.29	0.18
539.637	0.17
539.985	0.18
540.332	0.17
540.679	0.17
541.026	0.18
541.373	0.18
541.721	0.17
542.068	0.18
542.415	0.18
542.762	0.17
543.108	0.17
543.455	0.17
543.802	0.17
544.149	0.18
544.496	0.18
544.842	0.17
545.189	0.16
545.535	0.17
545.882	0.17
546.228	0.17
546.575	0.16
546.921	0.17
547.267	0.16
547.614	0.17
547.96	0.17
548.306	0.17
548.652	0.17
548.998	0.17
549.344	0.17
549.69	0.17
550.036	0.17
550.382	0.17
550.728	0.16
551.074	0.17
551.42	0.18
551.765	0.17
552.111	0.18
552.457	0.18
552.802	0.17
553.148	0.17
553.493	0.17
553.839	0.17
554.184	0.17
554.529	0.17
554.875	0.17
555.22	0.18
555.565	0.18
555.91	0.17
556.255	0.18
556.6	0.18
556.945	0.17
557.29	0.17
557.635	0.18
557.98	0.18
558.325	0.18
558.67	0.18
559.014	0.18
559.359	0.18
559.704	0.18
560.048	0.17
560.393	0.17
560.737	0.17
561.082	0.17
561.426	0.17
561.77	0.17
562.115	0.17
562.459	0.17
562.803	0.17
563.147	0.17
563.491	0.18
563.835	0.18
564.179	0.17
564.523	0.17
564.867	0.18
565.211	0.17
565.555	0.18
565.899	0.18
566.242	0.18
566.586	0.17
566.93	0.18
567.273	0.18
567.617	0.17
567.96	0.19
568.304	0.18
568.647	0.18
568.99	0.18
569.334	0.19
569.677	0.18
570.02	0.18
570.363	0.19
570.706	0.18
571.049	0.18
571.392	0.18
571.735	0.18
572.078	0.19
572.421	0.19
572.764	0.18
573.106	0.18
573.449	0.18
573.792	0.18
574.134	0.18
574.477	0.18
574.819	0.18
575.162	0.17
575.504	0.18
575.847	0.17
576.189	0.18
576.531	0.18
576.873	0.18
577.215	0.17
577.558	0.18
577.9	0.17
578.242	0.17
578.584	0.18
578.926	0.17
579.267	0.17
579.609	0.18
579.951	0.17
580.293	0.18
580.634	0.18
580.976	0.18
581.318	0.18
581.659	0.17
582.001	0.18
582.342	0.18
582.683	0.18
583.025	0.17
583.366	0.18
583.707	0.18
584.049	0.18
584.39	0.18
584.731	0.18
585.072	0.17
585.413	0.18
585.754	0.18
586.095	0.17
586.435	0.18
586.776	0.18
587.117	0.17
587.458	0.18
587.798	0.18
588.139	0.18
588.48	0.17
588.82	0.17
589.161	0.18
589.501	0.17
589.841	0.17
590.182	0.17
590.522	0.17
590.862	0.18
591.202	0.17
591.542	0.17
591.882	0.17
592.222	0.17
592.562	0.17
592.902	0.17
593.242	0.18
593.582	0.18
593.922	0.17
594.261	0.16
594.601	0.17
594.941	0.17
595.28	0.17
595.62	0.17
595.959	0.17
596.299	0.17
596.638	0.17
596.977	0.17
597.317	0.18
597.656	0.17
597.995	0.17
598.334	0.18
598.673	0.17
599.012	0.18
599.351	0.19
599.69	0.18
600.029	0.18
600.368	0.18
600.707	0.18
601.046	0.18
601.384	0.19
601.723	0.18
602.061	0.18
602.4	0.18
602.738	0.18
603.077	0.18
603.415	0.17
603.754	0.18
604.092	0.17
604.43	0.17
604.768	0.17
605.107	0.18
605.445	0.18
605.783	0.17
606.121	0.16
606.459	0.17
606.796	0.18
607.134	0.17
607.472	0.17
607.81	0.17
608.148	0.16
608.485	0.17
608.823	0.18
609.16	0.18
609.498	0.17
609.835	0.17
610.173	0.17
610.51	0.18
610.847	0.18
611.185	0.17
611.522	0.17
611.859	0.18
612.196	0.17
612.533	0.18
612.87	0.18
613.207	0.18
613.544	0.18
613.881	0.18
614.217	0.18
614.554	0.18
614.891	0.18
615.228	0.18
615.564	0.17
615.901	0.18
616.237	0.18
616.574	0.18
616.91	0.18
617.246	0.18
617.583	0.19
617.919	0.18
618.255	0.18
618.591	0.18
618.927	0.18
619.263	0.18
619.599	0.18
619.935	0.18
620.271	0.18
620.607	0.18
620.943	0.18
621.279	0.19
621.614	0.18
621.95	0.18
622.286	0.18
622.621	0.17
622.957	0.18
623.292	0.17
623.627	0.17
623.963	0.18
624.298	0.17
624.633	0.17
624.968	0.17
625.304	0.17
625.639	0.16
625.974	0.16
626.309	0.17
626.644	0.17
626.979	0.18
627.313	0.17
627.648	0.17
627.983	0.17
628.318	0.17
628.652	0.16
628.987	0.17
629.321	0.17
629.656	0.16
629.99	0.16
630.325	0.16
630.659	0.16
630.993	0.15
631.327	0.16
631.662	0.15
631.996	0.15
632.33	0.15
632.664	0.16
632.998	0.15
633.332	0.15
633.666	0.15
633.999	0.16
634.333	0.15
634.667	0.15
635.001	0.15
635.334	0.15
635.668	0.15
636.001	0.15
636.335	0.15
636.668	0.15
637.001	0.14
637.335	0.14
637.668	0.15
638.001	0.15
638.334	0.14
638.668	0.15
639.001	0.15
639.334	0.14
639.667	0.15
639.999	0.15
640.332	0.14
640.665	0.14
640.998	0.15
641.331	0.15
641.663	0.15
641.996	0.15
642.328	0.15
642.661	0.15
642.993	0.15
643.326	0.15
643.658	0.15
643.99	0.15
644.323	0.15
644.655	0.16
644.987	0.16
645.319	0.15
645.651	0.16
645.983	0.15
646.315	0.15
646.647	0.15
646.979	0.16
647.31	0.16
647.642	0.16
647.974	0.15
648.305	0.17
648.637	0.16
648.968	0.16
649.3	0.15
649.631	0.15
649.963	0.15
650.294	0.15
650.625	0.15
650.957	0.15
651.288	0.15
651.619	0.15
651.95	0.15
652.281	0.15
652.612	0.15
652.943	0.15
653.274	0.16
653.604	0.15
653.935	0.15
654.266	0.15
654.596	0.14
654.927	0.15
655.258	0.15
655.588	0.15
655.918	0.15
656.249	0.14
656.579	0.14
656.909	0.14
657.24	0.14
657.57	0.15
657.9	0.14
658.23	0.15
658.56	0.15
658.89	0.14
659.22	0.14
659.55	0.14
659.88	0.14
660.209	0.14
660.539	0.15
660.869	0.15
661.198	0.15
661.528	0.14
661.857	0.15
662.187	0.14
662.516	0.15
662.846	0.14
663.175	0.14
663.504	0.15
663.833	0.14
664.163	0.14
664.492	0.14
664.821	0.14
665.15	0.14
665.479	0.14
665.807	0.14
666.136	0.13
666.465	0.14
666.794	0.13
667.122	0.14
667.451	0.14
667.78	0.14
668.108	0.14
668.437	0.14
668.765	0.15
669.093	0.14
669.422	0.14
669.75	0.15
670.078	0.14
670.406	0.14
670.734	0.15
671.062	0.14
671.39	0.14
671.718	0.14
672.046	0.14
672.374	0.14
672.702	0.14
673.029	0.13
673.357	0.14
673.685	0.15
674.012	0.14
674.34	0.14
674.667	0.14
674.995	0.14
675.322	0.14
675.649	0.14
675.977	0.14
676.304	0.14
676.631	0.13
676.958	0.13
677.285	0.13
677.612	0.13
677.939	0.13
678.266	0.13
678.593	0.13
678.92	0.13
679.246	0.13
679.573	0.13
679.9	0.12
680.226	0.13
680.553	0.13
680.879	0.13
681.206	0.14
681.532	0.13
681.858	0.13
682.184	0.13
682.511	0.14
682.837	0.13
683.163	0.14
683.489	0.13
683.815	0.13
684.141	0.14
684.467	0.13
684.793	0.13
685.118	0.13
685.444	0.13
685.77	0.13
686.095	0.13
686.421	0.13
686.746	0.13
687.072	0.12
687.397	0.12
687.723	0.13
688.048	0.13
688.373	0.12
688.698	0.12
689.023	0.12
689.349	0.12
689.674	0.12
689.999	0.12
690.323	0.11
690.648	0.11
690.973	0.11
691.298	0.11
691.623	0.11
691.947	0.12
692.272	0.11
692.596	0.12
692.921	0.12
693.245	0.11
693.57	0.12
693.894	0.12
694.218	0.12
694.543	0.12
694.867	0.11
695.191	0.12
695.515	0.12
695.839	0.12
696.163	0.12
696.487	0.12
696.811	0.12
697.135	0.12
697.458	0.12
697.782	0.12
698.106	0.12
698.429	0.12
698.753	0.12
699.076	0.12
699.4	0.11
699.723	0.12
700.046	0.11
700.37	0.12
700.693	0.12
701.016	0.11
701.339	0.12
701.662	0.12
701.985	0.11
702.308	0.11
702.631	0.11
702.954	0.12
703.277	0.11
703.599	0.11
703.922	0.1
704.245	0.11
704.567	0.1
704.89	0.1
705.212	0.11
705.535	0.1
705.857	0.1
706.179	0.1
706.502	0.1
706.824	0.1
707.146	0.1
707.468	0.1
707.79	0.1
708.112	0.1
708.434	0.1
708.756	0.11
709.078	0.11
709.399	0.09
709.721	0.1
710.043	0.11
710.364	0.1
710.686	0.11
711.007	0.11
711.329	0.11
711.65	0.1
711.972	0.1
712.293	0.11
712.614	0.11
712.935	0.11
713.256	0.11
713.577	0.12
713.898	0.11
714.219	0.11
714.54	0.11
714.861	0.1
715.182	0.1
715.503	0.11
715.823	0.1
716.144	0.11
716.464	0.1
716.785	0.1
717.105	0.1
717.426	0.1
717.746	0.1
718.066	0.09
718.387	0.1
718.707	0.09
719.027	0.1
719.347	0.09
719.667	0.1
719.987	0.09
720.307	0.08
720.627	0.09
720.947	0.09
721.266	0.1
721.586	0.08
721.906	0.09
722.225	0.08
722.545	0.08
722.864	0.09
723.184	0.09
723.503	0.08
723.823	0.08
724.142	0.09
724.461	0.09
724.78	0.09
725.099	0.09
725.418	0.09
725.737	0.08
726.056	0.1
726.375	0.09
726.694	0.09
727.013	0.09
727.331	0.08
727.65	0.09
727.969	0.09
728.287	0.1
728.606	0.09
728.924	0.08
729.242	0.09
729.561	0.09
729.879	0.08
730.197	0.1
730.515	0.08
730.834	0.08
731.152	0.08
731.47	0.09
731.788	0.09
732.105	0.08
732.423	0.08
732.741	0.08
733.059	0.08
733.376	0.1
733.694	0.09
734.012	0.09
734.329	0.1
734.647	0.1
734.964	0.1
735.281	0.09
735.599	0.1
735.916	0.1
736.233	0.09
736.55	0.09
736.867	0.09
737.184	0.09
737.501	0.09
737.818	0.09
738.135	0.09
738.452	0.09
738.768	0.1
739.085	0.09
739.402	0.08
739.718	0.09
740.035	0.09
740.351	0.09
740.668	0.09
740.984	0.09
741.3	0.08
741.617	0.08
741.933	0.08
742.249	0.09
742.565	0.08
742.881	0.09
743.197	0.08
743.513	0.08
743.829	0.08
744.144	0.07
744.46	0.07
744.776	0.08
745.091	0.08
745.407	0.08
745.722	0.08
746.038	0.08
746.353	0.07
746.669	0.08
746.984	0.07
747.299	0.08
747.614	0.09
747.93	0.09
748.245	0.08
748.56	0.09
748.875	0.07
749.189	0.07
749.504	0.07
749.819	0.08
750.134	0.07
750.448	0.07
750.763	0.07
751.078	0.07
751.392	0.07
751.707	0.08
752.021	0.08
752.335	0.09
752.65	0.08
752.964	0.07
753.278	0.08
753.592	0.07
753.906	0.07
754.22	0.08
754.534	0.08
754.848	0.07
755.162	0.07
755.476	0.07
755.789	0.08
756.103	0.07
756.417	0.08
756.73	0.08
757.044	0.08
757.357	0.08
757.671	0.08
757.984	0.07
758.297	0.08
758.61	0.08
758.924	0.07
759.237	0.07
759.55	0.07
759.863	0.07
760.176	0.07
760.488	0.07
760.801	0.07
761.114	0.06
761.427	0.07
761.739	0.07
762.052	0.06
762.365	0.07
762.677	0.07
762.99	0.06
763.302	0.07
763.614	0.08
763.926	0.07
764.239	0.07
764.551	0.08
764.863	0.07
765.175	0.07
765.487	0.07
765.799	0.06
766.111	0.06
766.423	0.07
766.734	0.06
767.046	0.06
767.358	0.07
767.669	0.07
767.981	0.07
768.292	0.06
768.604	0.07
768.915	0.07
769.226	0.06
769.537	0.06
769.849	0.06
770.16	0.07
770.471	0.06
770.782	0.06
771.093	0.06
771.404	0.05
771.715	0.05
772.025	0.06
772.336	0.05
772.647	0.05
772.957	0.06
773.268	0.06
773.578	0.06
773.889	0.07
774.199	0.07
774.51	0.06
774.82	0.06
775.13	0.06
775.44	0.07
775.75	0.07
776.06	0.06
776.37	0.07
776.68	0.07
776.99	0.07
777.3	0.07
777.61	0.07
777.92	0.07
778.229	0.06
778.539	0.07
778.848	0.07
779.158	0.07
779.467	0.08
779.777	0.07
780.086	0.08
780.395	0.07
780.704	0.07
781.013	0.06
781.323	0.06
781.632	0.07
781.941	0.07
782.249	0.07
782.558	0.06
782.867	0.07
783.176	0.06
783.485	0.06
783.793	0.07
784.102	0.07
784.41	0.06
784.719	0.06
785.027	0.06
785.335	0.06
785.644	0.07
785.952	0.06
786.26	0.07
786.568	0.06
786.876	0.06
787.184	0.06
787.492	0.07
787.8	0.06
788.108	0.06
788.416	0.06
788.723	0.07
789.031	0.06
789.338	0.06
789.646	0.06
789.953	0.07
790.261	0.07
790.568	0.07
790.876	0.06
791.183	0.07
791.49	0.06
791.797	0.06
792.104	0.07
792.411	0.07
792.718	0.06
793.025	0.06
793.332	0.05
793.639	0.06
793.945	0.07
794.252	0.07
794.559	0.06
794.865	0.06
795.172	0.06
795.478	0.06
795.784	0.07
796.091	0.06
796.397	0.07
796.703	0.07
797.009	0.07
797.315	0.06
797.622	0.06
797.927	0.06
798.233	0.06
798.539	0.07
798.845	0.06
799.151	0.07
799.456	0.07
799.762	0.06
800.068	0.07
800.373	0.07
800.679	0.07
800.984	0.07
801.289	0.06
801.595	0.07
801.9	0.07
802.205	0.06
802.51	0.06
802.815	0.07
803.12	0.07
803.425	0.06
803.73	0.07
804.035	0.06
804.339	0.06
804.644	0.06
804.949	0.06
805.253	0.06
805.558	0.06
805.862	0.06
806.167	0.06
806.471	0.05
806.775	0.06
807.08	0.06
807.384	0.07
807.688	0.06
807.992	0.07
808.296	0.06
808.6	0.06
808.904	0.06
809.207	0.07
809.511	0.07
809.815	0.08
810.119	0.06
810.422	0.07
810.726	0.08
811.029	0.08
811.332	0.07
811.636	0.07
811.939	0.07
812.242	0.07
812.546	0.06
812.849	0.06
813.152	0.07
813.455	0.07
813.758	0.07
814.06	0.07
814.363	0.07
814.666	0.07
814.969	0.06
815.271	0.06
815.574	0.06
815.877	0.05
816.179	0.06
816.481	0.05
816.784	0.06
817.086	0.05
817.388	0.05
817.69	0.05
817.993	0.04
818.295	0.05
818.597	0.04
818.899	0.05
819.2	0.05
819.502	0.05
819.804	0.05
820.106	0.04
820.407	0.04
820.709	0.05
821.01	0.05
821.312	0.05
821.613	0.05
821.915	0.04
822.216	0.05
822.517	0.05
822.818	0.04
823.119	0.04
823.42	0.05
823.721	0.04
824.022	0.05
824.323	0.05
824.624	0.05
824.925	0.05
825.226	0.06
825.526	0.04
825.827	0.04
826.127	0.04
826.428	0.05
826.728	0.03
827.028	0.04
827.329	0.05
827.629	0.03
827.929	0.04
828.229	0.05
828.529	0.05
828.829	0.04
829.129	0.04
829.429	0.04
829.729	0.04
830.029	0.04
830.328	0.04
830.628	0.03
830.927	0.03
831.227	0.03
831.526	0.04
831.826	0.03
832.125	0.04
832.424	0.03
832.724	0.04
833.023	0.04
833.322	0.03
833.621	0.03
833.92	0.03
834.219	0.03
834.518	0.03
834.816	0.02
835.115	0.03
835.414	0.02
835.712	0.02
836.011	0.02
836.309	0.01
836.608	0.01
836.906	0.02
837.205	0.01
837.503	0.01
837.801	0.01
838.099	0
838.397	-0
838.695	-0
838.993	0
839.291	-0.01
839.589	-0
839.887	-0
840.184	-0.01
840.482	-0.01
840.78	0
841.077	-0.02
841.375	-0.01
841.672	0
841.969	-0.01
842.267	-0.01
842.564	-0.01
842.861	-0
843.158	-0.01
843.455	-0.02
843.752	-0.01
844.049	-0.02
844.346	-0.02
844.643	-0.02
844.94	-0.01
845.236	-0.01
845.533	-0.02
845.83	-0.01
846.126	-0.01
846.423	-0.02
846.719	-0.03
847.015	-0.02
847.312	-0.03
847.608	-0.04
847.904	-0.04
848.2	-0.03
848.496	-0.03
848.792	-0.03
849.088	-0.02
849.384	-0.03
849.68	-0.05
849.975	-0.03
850.271	-0.04
850.567	-0.05
850.862	-0.05
851.158	-0.05
851.453	-0.04
851.748	-0.06
852.044	-0.05
852.339	-0.05
852.634	-0.06
852.929	-0.05
853.224	-0.06
853.519	-0.06
853.814	-0.05
854.109	-0.06
854.404	-0.06
854.699	-0.06
854.994	-0.06
855.288	-0.06
855.583	-0.05
855.877	-0.07
856.172	-0.05
856.466	-0.06
856.76	-0.06
857.055	-0.06
857.349	-0.07
857.643	-0.08
857.937	-0.07
858.231	-0.08
858.525	-0.08
858.819	-0.08
859.113	-0.09
859.407	-0.09
859.701	-0.09
859.994	-0.09
860.288	-0.09
860.581	-0.1
860.875	-0.09
861.168	-0.1
861.462	-0.1
861.755	-0.1
862.048	-0.1
862.341	-0.09
862.634	-0.11
862.928	-0.1
863.221	-0.09
863.513	-0.11
863.806	-0.11
864.099	-0.12
864.392	-0.11
864.685	-0.11
864.977	-0.11
865.27	-0.11
865.562	-0.11
865.855	-0.12
866.147	-0.12
866.44	-0.1
866.732	-0.12
867.024	-0.11
867.316	-0.13
867.608	-0.12
867.9	-0.12
868.192	-0.12
868.484	-0.12
868.776	-0.12
869.068	-0.13
869.359	-0.13
869.651	-0.13
869.943	-0.15
870.234	-0.14
870.526	-0.14
870.817	-0.15
871.108	-0.13
871.4	-0.12
871.691	-0.14
871.982	-0.14
872.273	-0.16
872.564	-0.15
872.855	-0.14
873.146	-0.15
873.437	-0.15
873.728	-0.16
874.019	-0.15
874.309	-0.14
874.6	-0.15
874.89	-0.15
875.181	-0.15
875.471	-0.15
875.762	-0.16
876.052	-0.15
876.342	-0.15
876.632	-0.16
876.922	-0.16
877.213	-0.17
877.503	-0.17
877.792	-0.17
878.082	-0.16
878.372	-0.15
878.662	-0.18
878.952	-0.17
879.241	-0.16
879.531	-0.17
879.82	-0.17
880.11	-0.16
880.399	-0.17
880.688	-0.15
880.978	-0.15
881.267	-0.15
