Data from 12-12-AQDScycling_Absorbance__379__00379.txt Node

Date: Tue Dec 12 12:31:29 EST 2023
User: kyuminlee
Spectrometer: FLMS00943
Trigger mode: 0
Integration Time (sec): 1.000000E-1
Scans to average: 1
Electric dark correction enabled: true
Nonlinearity correction enabled: false
Boxcar width: 0
XAxis mode: Wavelengths
Number of Pixels in Spectrum: 2048
>>>>>Begin Spectral Data<<<<<
179.651	-0
180.037	-0
180.424	-0
180.81	-0.1
181.197	0.19
181.583	-0
181.97	-0.48
182.356	-0
182.743	-0.61
183.129	0.22
183.515	-0
183.901	-2.36
184.288	0.17
184.674	-0
185.06	-0.77
185.446	-0
185.832	-0
186.218	0.3
186.604	-0
186.99	-0
187.376	-0
187.762	-0
188.148	0.34
188.534	0.23
188.92	0.2
189.305	0.19
189.691	0.16
190.077	0.15
190.463	0.18
190.848	0.16
191.234	-0.04
191.619	0.09
192.005	0.2
192.391	0.06
192.776	0.12
193.161	0.18
193.547	0.16
193.932	-0.04
194.318	0.12
194.703	0.11
195.088	0.15
195.473	0.12
195.859	0.11
196.244	0.16
196.629	0.21
197.014	0.06
197.399	0.24
197.784	0.11
198.169	0.05
198.554	0.14
198.939	0.08
199.324	0.1
199.709	0.06
200.094	0.07
200.478	0.09
200.863	0.17
201.248	0.1
201.633	0.2
202.017	0.13
202.402	0.18
202.787	0.09
203.171	0.15
203.556	0.15
203.94	0.06
204.325	0.38
204.709	0.16
205.093	0.23
205.478	0.09
205.862	0.07
206.246	0.24
206.631	0.12
207.015	0.06
207.399	0.13
207.783	0.07
208.167	0.23
208.551	0.23
208.935	0.12
209.319	0.05
209.703	0.11
210.087	0.21
210.471	0.11
210.855	0.1
211.239	0.31
211.623	0.15
212.007	0.24
212.39	0.29
212.774	0.33
213.158	0.11
213.541	0.11
213.925	0.14
214.309	0.43
214.692	0.21
215.076	0.29
215.459	0.16
215.842	0.12
216.226	0.31
216.609	0.25
216.993	0.16
217.376	0.56
217.759	0.19
218.142	0.26
218.525	0.4
218.909	0.33
219.292	0.32
219.675	0.47
220.058	0.38
220.441	0.63
220.824	0.53
221.207	0.58
221.59	0.38
221.973	0.6
222.355	0.48
222.738	0.55
223.121	0.59
223.504	0.48
223.886	0.72
224.269	0.69
224.652	0.72
225.034	0.82
225.417	0.67
225.799	0.9
226.182	0.99
226.564	0.97
226.947	0.8
227.329	0.79
227.711	0.9
228.094	0.96
228.476	0.97
228.858	0.87
229.24	0.82
229.623	0.89
230.005	0.79
230.387	0.87
230.769	0.77
231.151	0.99
231.533	0.92
231.915	0.94
232.297	1.04
232.679	1.04
233.061	1.07
233.442	0.92
233.824	1.01
234.206	1.07
234.588	1
234.969	0.97
235.351	0.92
235.733	1.01
236.114	1.16
236.496	1.02
236.877	0.98
237.259	1.08
237.64	1.08
238.022	1.03
238.403	0.92
238.784	1.01
239.165	0.96
239.547	1.05
239.928	1.1
240.309	1.08
240.69	1.15
241.071	1.03
241.452	1.1
241.834	1.02
242.215	1.03
242.595	1.08
242.976	1.09
243.357	1.04
243.738	1.11
244.119	1.45
244.5	1.2
244.881	1.17
245.261	1.2
245.642	1.07
246.023	1.11
246.403	1.19
246.784	1.17
247.164	1.25
247.545	1.26
247.925	1.24
248.306	1.16
248.686	1.35
249.067	1.25
249.447	1.37
249.827	1.31
250.207	1.32
250.588	1.26
250.968	1.53
251.348	1.24
251.728	1.48
252.108	1.29
252.488	1.44
252.868	1.39
253.248	1.4
253.628	1.55
254.008	1.58
254.388	1.24
254.768	1.31
255.147	1.43
255.527	1.35
255.907	1.36
256.287	1.3
256.666	1.3
257.046	1.41
257.425	1.52
257.805	1.22
258.184	1.33
258.564	1.36
258.943	1.23
259.323	1.52
259.702	1.43
260.081	1.41
260.461	1.45
260.84	1.4
261.219	1.6
261.598	1.47
261.977	1.43
262.356	1.63
262.736	1.51
263.115	1.73
263.494	1.44
263.873	1.48
264.251	1.44
264.63	1.44
265.009	1.38
265.388	1.39
265.767	1.3
266.145	1.36
266.524	1.29
266.903	1.46
267.281	1.43
267.66	1.75
268.039	1.4
268.417	1.45
268.796	1.4
269.174	1.33
269.552	1.38
269.931	1.48
270.309	1.39
270.687	1.39
271.066	1.34
271.444	1.31
271.822	1.47
272.2	1.41
272.578	1.44
272.956	1.46
273.334	1.32
273.712	1.45
274.09	1.56
274.468	1.33
274.846	1.24
275.224	1.36
275.602	1.39
275.98	1.64
276.357	1.43
276.735	1.43
277.113	1.47
277.49	1.22
277.868	1.21
278.246	1.33
278.623	1.24
279.001	1.32
279.378	1.4
279.756	1.43
280.133	1.47
280.51	1.41
280.888	1.35
281.265	1.39
281.642	1.47
282.019	1.54
282.396	1.55
282.773	1.51
283.151	1.55
283.528	1.55
283.905	1.45
284.282	1.45
284.659	1.42
285.035	1.39
285.412	1.33
285.789	1.73
286.166	1.38
286.543	1.47
286.919	1.46
287.296	1.41
287.673	1.81
288.049	1.52
288.426	1.6
288.802	1.62
289.179	1.49
289.555	1.68
289.932	1.62
290.308	1.37
290.684	1.36
291.061	1.32
291.437	1.49
291.813	1.34
292.189	1.23
292.565	1.37
292.942	1.45
293.318	1.37
293.694	1.44
294.07	1.35
294.446	1.42
294.822	1.58
295.197	1.32
295.573	1.37
295.949	1.44
296.325	1.47
296.701	1.44
297.076	1.48
297.452	1.47
297.828	1.45
298.203	1.46
298.579	1.34
298.954	1.3
299.33	1.35
299.705	1.39
300.081	1.32
300.456	1.43
300.831	1.24
301.206	1.23
301.582	1.31
301.957	1.3
302.332	1.32
302.707	1.23
303.082	1.14
303.457	1.16
303.832	1.15
304.207	1.16
304.582	1.14
304.957	1.15
305.332	1.1
305.707	1.14
306.082	1.15
306.456	1.08
306.831	1.04
307.206	1.02
307.58	1.02
307.955	1.04
308.33	0.98
308.704	0.99
309.079	0.93
309.453	0.96
309.828	0.94
310.202	0.92
310.576	0.92
310.951	0.93
311.325	0.92
311.699	0.94
312.073	0.92
312.447	0.88
312.821	0.86
313.196	0.9
313.57	0.83
313.944	0.86
314.317	0.79
314.691	0.83
315.065	0.82
315.439	0.84
315.813	0.83
316.187	0.77
316.56	0.85
316.934	0.81
317.308	0.77
317.681	0.79
318.055	0.78
318.428	0.78
318.802	0.81
319.175	0.77
319.549	0.78
319.922	0.75
320.295	0.78
320.669	0.84
321.042	0.77
321.415	0.8
321.788	0.75
322.162	0.75
322.535	0.78
322.908	0.75
323.281	0.72
323.654	0.76
324.027	0.71
324.4	0.77
324.773	0.76
325.145	0.78
325.518	0.74
325.891	0.74
326.264	0.75
326.636	0.77
327.009	0.77
327.382	0.78
327.754	0.75
328.127	0.76
328.499	0.79
328.872	0.78
329.244	0.84
329.616	0.8
329.989	0.81
330.361	0.81
330.733	0.79
331.106	0.79
331.478	0.84
331.85	0.83
332.222	0.8
332.594	0.83
332.966	0.86
333.338	0.87
333.71	0.83
334.082	0.87
334.454	0.87
334.826	0.87
335.197	0.88
335.569	0.86
335.941	0.88
336.312	0.88
336.684	0.9
337.056	0.93
337.427	1.01
337.799	0.95
338.17	0.94
338.542	0.92
338.913	0.95
339.284	0.94
339.656	0.96
340.027	0.99
340.398	0.97
340.769	0.96
341.141	1.01
341.512	0.98
341.883	0.99
342.254	1.04
342.625	1.03
342.996	1.04
343.367	1.05
343.738	1.04
344.108	1.03
344.479	1.13
344.85	1.04
345.221	1.09
345.591	1.1
345.962	1.07
346.333	1.09
346.703	1.03
347.074	1.18
347.444	1.1
347.815	1.12
348.185	1.15
348.556	1.15
348.926	1.23
349.296	1.18
349.666	1.14
350.037	1.05
350.407	1.1
350.777	1.24
351.147	1.16
351.517	1.22
351.887	1.27
352.257	1.27
352.627	1.19
352.997	1.16
353.367	1.32
353.737	1.33
354.106	1.41
354.476	1.26
354.846	1.45
355.216	1.32
355.585	1.42
355.955	1.35
356.324	1.47
356.694	1.41
357.063	1.45
357.433	1.34
357.802	1.49
358.171	1.44
358.541	1.37
358.91	1.47
359.279	1.55
359.648	1.37
360.017	1.58
360.387	1.52
360.756	1.38
361.125	1.56
361.494	1.61
361.863	1.61
362.231	1.48
362.6	1.68
362.969	1.49
363.338	1.35
363.707	1.59
364.075	1.69
364.444	1.36
364.813	1.45
365.181	1.49
365.55	1.53
365.918	1.58
366.287	1.52
366.655	1.64
367.024	1.6
367.392	1.62
367.76	1.6
368.128	1.58
368.497	1.47
368.865	1.45
369.233	1.62
369.601	1.42
369.969	1.38
370.337	1.62
370.705	1.5
371.073	1.44
371.441	1.59
371.809	1.35
372.177	1.48
372.544	1.5
372.912	1.53
373.28	1.61
373.647	1.52
374.015	1.8
374.383	1.77
374.75	1.7
375.118	1.63
375.485	1.63
375.853	1.59
376.22	1.44
376.587	1.57
376.955	1.66
377.322	1.71
377.689	1.56
378.056	1.44
378.423	1.59
378.79	1.65
379.157	1.47
379.524	1.53
379.891	1.59
380.258	1.54
380.625	1.44
380.992	1.52
381.359	1.54
381.726	1.81
382.092	1.58
382.459	1.51
382.826	1.56
383.192	1.5
383.559	1.64
383.925	1.47
384.292	1.56
384.658	1.92
385.025	1.63
385.391	1.76
385.757	1.56
386.123	1.54
386.49	1.4
386.856	1.63
387.222	1.8
387.588	1.59
387.954	1.62
388.32	1.63
388.686	1.55
389.052	1.5
389.418	1.58
389.784	1.55
390.15	1.56
390.515	1.46
390.881	1.56
391.247	1.47
391.613	1.68
391.978	1.38
392.344	1.61
392.709	1.48
393.075	1.58
393.44	1.66
393.806	1.67
394.171	1.57
394.536	1.51
394.902	1.56
395.267	1.45
395.632	1.44
395.997	1.58
396.362	1.53
396.727	1.55
397.092	1.58
397.457	1.61
397.822	1.51
398.187	1.7
398.552	1.66
398.917	1.57
399.282	1.44
399.646	1.59
400.011	1.59
400.376	1.55
400.74	1.57
401.105	1.5
401.47	1.52
401.834	1.55
402.199	1.67
402.563	1.55
402.927	1.52
403.292	1.62
403.656	1.57
404.02	1.71
404.384	1.66
404.749	1.49
405.113	1.57
405.477	1.57
405.841	1.59
406.205	1.55
406.569	1.49
406.933	1.54
407.296	1.71
407.66	1.55
408.024	1.45
408.388	1.56
408.752	1.55
409.115	1.71
409.479	1.48
409.842	1.61
410.206	1.52
410.569	1.48
410.933	1.53
411.296	1.44
411.66	1.61
412.023	1.47
412.386	1.41
412.749	1.53
413.113	1.67
413.476	1.51
413.839	1.46
414.202	1.61
414.565	1.39
414.928	1.59
415.291	1.33
415.654	1.48
416.017	1.63
416.38	1.44
416.742	1.49
417.105	1.58
417.468	1.54
417.83	1.46
418.193	1.5
418.556	1.39
418.918	1.32
419.281	1.49
419.643	1.57
420.005	1.65
420.368	1.53
420.73	1.48
421.092	1.63
421.455	1.77
421.817	1.45
422.179	1.45
422.541	1.49
422.903	1.69
423.265	1.5
423.627	1.55
423.989	1.56
424.351	1.41
424.713	1.51
425.075	1.53
425.436	1.5
425.798	1.54
426.16	1.65
426.521	1.59
426.883	1.58
427.245	1.56
427.606	1.54
427.967	1.45
428.329	1.55
428.69	1.61
429.052	1.47
429.413	1.45
429.774	1.6
430.135	1.54
430.497	1.52
430.858	1.47
431.219	1.66
431.58	1.41
431.941	1.47
432.302	1.4
432.663	1.5
433.024	1.5
433.384	1.53
433.745	1.39
434.106	1.53
434.467	1.51
434.827	1.47
435.188	1.47
435.548	1.57
435.909	1.41
436.269	1.49
436.63	1.45
436.99	1.5
437.351	1.43
437.711	1.45
438.071	1.43
438.431	1.43
438.792	1.55
439.152	1.43
439.512	1.42
439.872	1.36
440.232	1.56
440.592	1.56
440.952	1.46
441.312	1.31
441.671	1.43
442.031	1.5
442.391	1.44
442.751	1.41
443.11	1.45
443.47	1.43
443.83	1.39
444.189	1.35
444.549	1.46
444.908	1.32
445.267	1.34
445.627	1.34
445.986	1.34
446.345	1.36
446.705	1.38
447.064	1.39
447.423	1.33
447.782	1.32
448.141	1.3
448.5	1.32
448.859	1.34
449.218	1.27
449.577	1.34
449.936	1.31
450.295	1.33
450.653	1.24
451.012	1.29
451.371	1.27
451.729	1.23
452.088	1.29
452.447	1.24
452.805	1.25
453.163	1.24
453.522	1.25
453.88	1.21
454.239	1.22
454.597	1.19
454.955	1.15
455.313	1.14
455.671	1.18
456.029	1.17
456.388	1.13
456.746	1.13
457.104	1.1
457.461	1.08
457.819	1.1
458.177	1.08
458.535	1.06
458.893	1.02
459.25	1.03
459.608	1.03
459.966	0.99
460.323	0.99
460.681	0.97
461.038	0.96
461.396	0.95
461.753	0.94
462.111	0.94
462.468	0.91
462.825	0.91
463.182	0.87
463.54	0.86
463.897	0.87
464.254	0.85
464.611	0.83
464.968	0.82
465.325	0.82
465.682	0.81
466.039	0.8
466.395	0.77
466.752	0.78
467.109	0.75
467.466	0.73
467.822	0.74
468.179	0.72
468.535	0.7
468.892	0.69
469.248	0.68
469.605	0.66
469.961	0.67
470.318	0.67
470.674	0.66
471.03	0.63
471.386	0.63
471.743	0.61
472.099	0.61
472.455	0.59
472.811	0.57
473.167	0.57
473.523	0.56
473.879	0.55
474.235	0.54
474.59	0.52
474.946	0.52
475.302	0.52
475.657	0.51
476.013	0.48
476.369	0.47
476.724	0.48
477.08	0.47
477.435	0.45
477.791	0.44
478.146	0.44
478.501	0.44
478.857	0.43
479.212	0.42
479.567	0.41
479.922	0.4
480.277	0.39
480.632	0.38
480.987	0.39
481.342	0.37
481.697	0.36
482.052	0.35
482.407	0.35
482.762	0.34
483.116	0.33
483.471	0.33
483.826	0.31
484.18	0.31
484.535	0.3
484.89	0.3
485.244	0.3
485.598	0.29
485.953	0.28
486.307	0.28
486.661	0.28
487.016	0.27
487.37	0.27
487.724	0.26
488.078	0.26
488.432	0.25
488.786	0.25
489.14	0.24
489.494	0.23
489.848	0.23
490.202	0.22
490.556	0.22
490.91	0.22
491.263	0.22
491.617	0.21
491.971	0.2
492.324	0.2
492.678	0.2
493.031	0.2
493.385	0.2
493.738	0.19
494.091	0.19
494.445	0.18
494.798	0.18
495.151	0.18
495.504	0.17
495.857	0.17
496.21	0.17
496.564	0.16
496.916	0.16
497.269	0.16
497.622	0.16
497.975	0.15
498.328	0.16
498.681	0.15
499.033	0.15
499.386	0.14
499.739	0.15
500.091	0.14
500.444	0.14
500.796	0.14
501.149	0.13
501.501	0.13
501.854	0.13
502.206	0.13
502.558	0.13
502.91	0.12
503.263	0.12
503.615	0.12
503.967	0.11
504.319	0.12
504.671	0.11
505.023	0.11
505.375	0.11
505.726	0.1
506.078	0.11
506.43	0.1
506.782	0.1
507.133	0.11
507.485	0.1
507.837	0.11
508.188	0.1
508.54	0.1
508.891	0.1
509.243	0.09
509.594	0.1
509.945	0.1
510.296	0.09
510.648	0.09
510.999	0.09
511.35	0.09
511.701	0.09
512.052	0.09
512.403	0.1
512.754	0.09
513.105	0.09
513.456	0.09
513.807	0.09
514.157	0.09
514.508	0.09
514.859	0.08
515.209	0.09
515.56	0.09
515.91	0.08
516.261	0.09
516.611	0.08
516.962	0.09
517.312	0.08
517.662	0.08
518.013	0.08
518.363	0.08
518.713	0.08
519.063	0.08
519.413	0.09
519.763	0.08
520.113	0.08
520.463	0.08
520.813	0.09
521.163	0.09
521.512	0.08
521.862	0.08
522.212	0.08
522.562	0.08
522.911	0.08
523.261	0.08
523.61	0.08
523.96	0.07
524.309	0.08
524.658	0.09
525.008	0.07
525.357	0.07
525.706	0.08
526.056	0.08
526.405	0.07
526.754	0.07
527.103	0.07
527.452	0.07
527.801	0.08
528.15	0.08
528.499	0.08
528.847	0.08
529.196	0.08
529.545	0.08
529.893	0.08
530.242	0.08
530.591	0.08
530.939	0.09
531.288	0.08
531.636	0.09
531.985	0.08
532.333	0.08
532.681	0.08
533.029	0.08
533.378	0.08
533.726	0.08
534.074	0.09
534.422	0.07
534.77	0.08
535.118	0.08
535.466	0.08
535.814	0.08
536.162	0.08
536.509	0.08
536.857	0.08
537.205	0.08
537.552	0.08
537.9	0.08
538.248	0.08
538.595	0.08
538.943	0.08
539.29	0.08
539.637	0.08
539.985	0.08
540.332	0.08
540.679	0.08
541.026	0.07
541.373	0.08
541.721	0.07
542.068	0.07
542.415	0.08
542.762	0.07
543.108	0.07
543.455	0.06
543.802	0.06
544.149	0.07
544.496	0.07
544.842	0.07
545.189	0.06
545.535	0.06
545.882	0.07
546.228	0.06
546.575	0.06
546.921	0.06
547.267	0.06
547.614	0.07
547.96	0.06
548.306	0.06
548.652	0.06
548.998	0.07
549.344	0.07
549.69	0.07
550.036	0.06
550.382	0.07
550.728	0.06
551.074	0.07
551.42	0.07
551.765	0.07
552.111	0.07
552.457	0.08
552.802	0.07
553.148	0.07
553.493	0.07
553.839	0.07
554.184	0.07
554.529	0.07
554.875	0.07
555.22	0.07
555.565	0.07
555.91	0.07
556.255	0.08
556.6	0.08
556.945	0.07
557.29	0.07
557.635	0.08
557.98	0.08
558.325	0.07
558.67	0.07
559.014	0.08
559.359	0.08
559.704	0.07
560.048	0.07
560.393	0.07
560.737	0.06
561.082	0.07
561.426	0.06
561.77	0.07
562.115	0.07
562.459	0.06
562.803	0.06
563.147	0.07
563.491	0.07
563.835	0.07
564.179	0.06
564.523	0.07
564.867	0.06
565.211	0.07
565.555	0.06
565.899	0.07
566.242	0.07
566.586	0.06
566.93	0.07
567.273	0.07
567.617	0.07
567.96	0.07
568.304	0.07
568.647	0.07
568.99	0.07
569.334	0.08
569.677	0.08
570.02	0.08
570.363	0.08
570.706	0.07
571.049	0.06
571.392	0.07
571.735	0.06
572.078	0.07
572.421	0.08
572.764	0.07
573.106	0.07
573.449	0.07
573.792	0.07
574.134	0.06
574.477	0.07
574.819	0.06
575.162	0.07
575.504	0.06
575.847	0.07
576.189	0.07
576.531	0.07
576.873	0.07
577.215	0.07
577.558	0.07
577.9	0.06
578.242	0.07
578.584	0.06
578.926	0.07
579.267	0.07
579.609	0.08
579.951	0.07
580.293	0.07
580.634	0.07
580.976	0.07
581.318	0.07
581.659	0.06
582.001	0.07
582.342	0.06
582.683	0.08
583.025	0.06
583.366	0.06
583.707	0.07
584.049	0.07
584.39	0.07
584.731	0.06
585.072	0.06
585.413	0.07
585.754	0.07
586.095	0.07
586.435	0.07
586.776	0.06
587.117	0.07
587.458	0.07
587.798	0.07
588.139	0.07
588.48	0.06
588.82	0.07
589.161	0.06
589.501	0.06
589.841	0.07
590.182	0.07
590.522	0.06
590.862	0.07
591.202	0.07
591.542	0.06
591.882	0.06
592.222	0.07
592.562	0.06
592.902	0.06
593.242	0.07
593.582	0.07
593.922	0.07
594.261	0.06
594.601	0.06
594.941	0.07
595.28	0.07
595.62	0.07
595.959	0.06
596.299	0.07
596.638	0.07
596.977	0.07
597.317	0.07
597.656	0.07
597.995	0.07
598.334	0.08
598.673	0.07
599.012	0.06
599.351	0.07
599.69	0.07
600.029	0.07
600.368	0.07
600.707	0.07
601.046	0.07
601.384	0.07
601.723	0.08
602.061	0.07
602.4	0.07
602.738	0.07
603.077	0.07
603.415	0.07
603.754	0.06
604.092	0.07
604.43	0.06
604.768	0.07
605.107	0.07
605.445	0.06
605.783	0.07
606.121	0.06
606.459	0.07
606.796	0.07
607.134	0.07
607.472	0.07
607.81	0.08
608.148	0.06
608.485	0.07
608.823	0.07
609.16	0.06
609.498	0.06
609.835	0.06
610.173	0.06
610.51	0.07
610.847	0.07
611.185	0.07
611.522	0.08
611.859	0.07
612.196	0.07
612.533	0.08
612.87	0.08
613.207	0.08
613.544	0.07
613.881	0.08
614.217	0.08
614.554	0.07
614.891	0.08
615.228	0.08
615.564	0.08
615.901	0.08
616.237	0.08
616.574	0.07
616.91	0.08
617.246	0.08
617.583	0.08
617.919	0.08
618.255	0.08
618.591	0.08
618.927	0.08
619.263	0.08
619.599	0.08
619.935	0.08
620.271	0.08
620.607	0.07
620.943	0.08
621.279	0.08
621.614	0.08
621.95	0.08
622.286	0.07
622.621	0.07
622.957	0.07
623.292	0.07
623.627	0.07
623.963	0.07
624.298	0.07
624.633	0.07
624.968	0.06
625.304	0.07
625.639	0.06
625.974	0.06
626.309	0.06
626.644	0.07
626.979	0.07
627.313	0.07
627.648	0.06
627.983	0.07
628.318	0.06
628.652	0.05
628.987	0.07
629.321	0.06
629.656	0.05
629.99	0.06
630.325	0.07
630.659	0.06
630.993	0.06
631.327	0.06
631.662	0.05
631.996	0.06
632.33	0.06
632.664	0.06
632.998	0.06
633.332	0.06
633.666	0.06
633.999	0.06
634.333	0.06
634.667	0.06
635.001	0.06
635.334	0.06
635.668	0.06
636.001	0.06
636.335	0.06
636.668	0.06
637.001	0.05
637.335	0.06
637.668	0.06
638.001	0.05
638.334	0.06
638.668	0.05
639.001	0.06
639.334	0.05
639.667	0.06
639.999	0.05
640.332	0.05
640.665	0.05
640.998	0.05
641.331	0.06
641.663	0.05
641.996	0.05
642.328	0.06
642.661	0.05
642.993	0.06
643.326	0.06
643.658	0.05
643.99	0.05
644.323	0.04
644.655	0.05
644.987	0.06
645.319	0.06
645.651	0.06
645.983	0.05
646.315	0.04
646.647	0.06
646.979	0.06
647.31	0.06
647.642	0.06
647.974	0.05
648.305	0.06
648.637	0.06
648.968	0.06
649.3	0.06
649.631	0.06
649.963	0.05
650.294	0.06
650.625	0.06
650.957	0.06
651.288	0.06
651.619	0.06
651.95	0.06
652.281	0.06
652.612	0.06
652.943	0.06
653.274	0.07
653.604	0.06
653.935	0.06
654.266	0.06
654.596	0.05
654.927	0.05
655.258	0.07
655.588	0.06
655.918	0.07
656.249	0.05
656.579	0.06
656.909	0.06
657.24	0.06
657.57	0.06
657.9	0.07
658.23	0.07
658.56	0.07
658.89	0.07
659.22	0.06
659.55	0.06
659.88	0.07
660.209	0.06
660.539	0.07
660.869	0.07
661.198	0.07
661.528	0.07
661.857	0.07
662.187	0.07
662.516	0.08
662.846	0.07
663.175	0.07
663.504	0.07
663.833	0.06
664.163	0.07
664.492	0.06
664.821	0.06
665.15	0.06
665.479	0.06
665.807	0.06
666.136	0.06
666.465	0.06
666.794	0.06
667.122	0.06
667.451	0.06
667.78	0.06
668.108	0.06
668.437	0.05
668.765	0.06
669.093	0.06
669.422	0.06
669.75	0.06
670.078	0.06
670.406	0.06
670.734	0.07
671.062	0.06
671.39	0.06
671.718	0.06
672.046	0.06
672.374	0.06
672.702	0.06
673.029	0.05
673.357	0.07
673.685	0.07
674.012	0.06
674.34	0.06
674.667	0.07
674.995	0.07
675.322	0.06
675.649	0.06
675.977	0.07
676.304	0.07
676.631	0.06
676.958	0.06
677.285	0.06
677.612	0.06
677.939	0.07
678.266	0.06
678.593	0.06
678.92	0.06
679.246	0.06
679.573	0.06
679.9	0.06
680.226	0.06
680.553	0.06
680.879	0.06
681.206	0.06
681.532	0.06
681.858	0.06
682.184	0.06
682.511	0.06
682.837	0.05
683.163	0.06
683.489	0.06
683.815	0.05
684.141	0.05
684.467	0.06
684.793	0.05
685.118	0.05
685.444	0.06
685.77	0.06
686.095	0.06
686.421	0.05
686.746	0.06
687.072	0.06
687.397	0.06
687.723	0.07
688.048	0.06
688.373	0.06
688.698	0.07
689.023	0.06
689.349	0.06
689.674	0.06
689.999	0.06
690.323	0.05
690.648	0.05
690.973	0.05
691.298	0.05
691.623	0.05
691.947	0.05
692.272	0.05
692.596	0.06
692.921	0.06
693.245	0.06
693.57	0.06
693.894	0.06
694.218	0.06
694.543	0.06
694.867	0.06
695.191	0.05
695.515	0.06
695.839	0.05
696.163	0.05
696.487	0.06
696.811	0.05
697.135	0.05
697.458	0.06
697.782	0.05
698.106	0.06
698.429	0.06
698.753	0.05
699.076	0.06
699.4	0.06
699.723	0.06
700.046	0.05
700.37	0.05
700.693	0.06
701.016	0.05
701.339	0.05
701.662	0.06
701.985	0.06
702.308	0.05
702.631	0.06
702.954	0.06
703.277	0.05
703.599	0.06
703.922	0.04
704.245	0.04
704.567	0.04
704.89	0.05
705.212	0.05
705.535	0.04
705.857	0.05
706.179	0.04
706.502	0.05
706.824	0.04
707.146	0.04
707.468	0.05
707.79	0.05
708.112	0.05
708.434	0.05
708.756	0.05
709.078	0.05
709.399	0.05
709.721	0.04
710.043	0.05
710.364	0.05
710.686	0.05
711.007	0.05
711.329	0.06
711.65	0.04
711.972	0.05
712.293	0.05
712.614	0.06
712.935	0.05
713.256	0.06
713.577	0.06
713.898	0.05
714.219	0.05
714.54	0.05
714.861	0.04
715.182	0.05
715.503	0.04
715.823	0.04
716.144	0.04
716.464	0.04
716.785	0.04
717.105	0.05
717.426	0.05
717.746	0.04
718.066	0.04
718.387	0.04
718.707	0.04
719.027	0.04
719.347	0.03
719.667	0.03
719.987	0.03
720.307	0.04
720.627	0.04
720.947	0.04
721.266	0.04
721.586	0.04
721.906	0.04
722.225	0.03
722.545	0.04
722.864	0.03
723.184	0.05
723.503	0.04
723.823	0.04
724.142	0.03
724.461	0.04
724.78	0.04
725.099	0.04
725.418	0.04
725.737	0.03
726.056	0.04
726.375	0.04
726.694	0.04
727.013	0.04
727.331	0.03
727.65	0.04
727.969	0.04
728.287	0.04
728.606	0.04
728.924	0.04
729.242	0.04
729.561	0.04
729.879	0.04
730.197	0.04
730.515	0.04
730.834	0.04
731.152	0.04
731.47	0.04
731.788	0.04
732.105	0.03
732.423	0.04
732.741	0.04
733.059	0.04
733.376	0.05
733.694	0.04
734.012	0.04
734.329	0.05
734.647	0.04
734.964	0.05
735.281	0.04
735.599	0.05
735.916	0.04
736.233	0.04
736.55	0.04
736.867	0.03
737.184	0.05
737.501	0.04
737.818	0.04
738.135	0.04
738.452	0.04
738.768	0.04
739.085	0.04
739.402	0.03
739.718	0.04
740.035	0.04
740.351	0.05
740.668	0.05
740.984	0.05
741.3	0.04
741.617	0.04
741.933	0.04
742.249	0.05
742.565	0.05
742.881	0.05
743.197	0.05
743.513	0.04
743.829	0.04
744.144	0.04
744.46	0.04
744.776	0.04
745.091	0.04
745.407	0.04
745.722	0.03
746.038	0.03
746.353	0.03
746.669	0.04
746.984	0.03
747.299	0.04
747.614	0.04
747.93	0.04
748.245	0.03
748.56	0.04
748.875	0.04
749.189	0.03
749.504	0.04
749.819	0.04
750.134	0.05
750.448	0.04
750.763	0.04
751.078	0.03
751.392	0.04
751.707	0.05
752.021	0.05
752.335	0.04
752.65	0.05
752.964	0.04
753.278	0.04
753.592	0.05
753.906	0.04
754.22	0.04
754.534	0.04
754.848	0.04
755.162	0.05
755.476	0.04
755.789	0.04
756.103	0.04
756.417	0.05
756.73	0.05
757.044	0.05
757.357	0.04
757.671	0.05
757.984	0.05
758.297	0.05
758.61	0.05
758.924	0.05
759.237	0.05
759.55	0.05
759.863	0.04
760.176	0.05
760.488	0.04
760.801	0.04
761.114	0.04
761.427	0.03
761.739	0.04
762.052	0.04
762.365	0.04
762.677	0.04
762.99	0.03
763.302	0.04
763.614	0.04
763.926	0.05
764.239	0.04
764.551	0.04
764.863	0.04
765.175	0.05
765.487	0.04
765.799	0.03
766.111	0.03
766.423	0.04
766.734	0.04
767.046	0.04
767.358	0.04
767.669	0.04
767.981	0.05
768.292	0.04
768.604	0.04
768.915	0.04
769.226	0.04
769.537	0.03
769.849	0.04
770.16	0.03
770.471	0.04
770.782	0.03
771.093	0.04
771.404	0.02
771.715	0.03
772.025	0.03
772.336	0.03
772.647	0.03
772.957	0.03
773.268	0.04
773.578	0.03
773.889	0.04
774.199	0.04
774.51	0.04
774.82	0.03
775.13	0.04
775.44	0.03
775.75	0.04
776.06	0.04
776.37	0.03
776.68	0.04
776.99	0.04
777.3	0.03
777.61	0.05
777.92	0.03
778.229	0.03
778.539	0.04
778.848	0.03
779.158	0.03
779.467	0.04
779.777	0.03
780.086	0.05
780.395	0.03
780.704	0.03
781.013	0.03
781.323	0.03
781.632	0.03
781.941	0.04
782.249	0.04
782.558	0.03
782.867	0.04
783.176	0.03
783.485	0.03
783.793	0.04
784.102	0.04
784.41	0.04
784.719	0.03
785.027	0.03
785.335	0.03
785.644	0.03
785.952	0.02
786.26	0.03
786.568	0.03
786.876	0.03
787.184	0.03
787.492	0.03
787.8	0.03
788.108	0.04
788.416	0.03
788.723	0.03
789.031	0.03
789.338	0.03
789.646	0.03
789.953	0.04
790.261	0.03
790.568	0.04
790.876	0.03
791.183	0.04
791.49	0.02
791.797	0.03
792.104	0.03
792.411	0.04
792.718	0.03
793.025	0.04
793.332	0.04
793.639	0.04
793.945	0.05
794.252	0.05
794.559	0.04
794.865	0.05
795.172	0.04
795.478	0.03
795.784	0.04
796.091	0.04
796.397	0.05
796.703	0.05
797.009	0.05
797.315	0.05
797.622	0.05
797.927	0.04
798.233	0.04
798.539	0.05
798.845	0.04
799.151	0.05
799.456	0.05
799.762	0.04
800.068	0.05
800.373	0.06
800.679	0.04
800.984	0.04
801.289	0.04
801.595	0.05
801.9	0.04
802.205	0.04
802.51	0.04
802.815	0.04
803.12	0.04
803.425	0.04
803.73	0.04
804.035	0.04
804.339	0.04
804.644	0.04
804.949	0.05
805.253	0.03
805.558	0.05
805.862	0.04
806.167	0.04
806.471	0.04
806.775	0.04
807.08	0.05
807.384	0.04
807.688	0.04
807.992	0.04
808.296	0.03
808.6	0.04
808.904	0.05
809.207	0.04
809.511	0.05
809.815	0.06
810.119	0.05
810.422	0.05
810.726	0.06
811.029	0.06
811.332	0.05
811.636	0.06
811.939	0.05
812.242	0.05
812.546	0.06
812.849	0.05
813.152	0.07
813.455	0.06
813.758	0.06
814.06	0.05
814.363	0.06
814.666	0.06
814.969	0.05
815.271	0.05
815.574	0.04
815.877	0.05
816.179	0.05
816.481	0.04
816.784	0.04
817.086	0.04
817.388	0.04
817.69	0.03
817.993	0.04
818.295	0.04
818.597	0.04
818.899	0.04
819.2	0.04
819.502	0.03
819.804	0.03
820.106	0.04
820.407	0.03
820.709	0.03
821.01	0.03
821.312	0.03
821.613	0.03
821.915	0.04
822.216	0.03
822.517	0.02
822.818	0.03
823.119	0.04
823.42	0.03
823.721	0.02
824.022	0.03
824.323	0.03
824.624	0.03
824.925	0.04
825.226	0.04
825.526	0.03
825.827	0.03
826.127	0.03
826.428	0.03
826.728	0.02
827.028	0.03
827.329	0.03
827.629	0.03
827.929	0.03
828.229	0.03
828.529	0.04
828.829	0.03
829.129	0.04
829.429	0.03
829.729	0.03
830.029	0.03
830.328	0.03
830.628	0.02
830.927	0.02
831.227	0.02
831.526	0.03
831.826	0.03
832.125	0.03
832.424	0.01
832.724	0.02
833.023	0.02
833.322	0.03
833.621	0.01
833.92	0.01
834.219	0.01
834.518	0.02
834.816	0.01
835.115	0.02
835.414	0.01
835.712	0.01
836.011	0
836.309	0.01
836.608	0
836.906	0
837.205	-0
837.503	-0
837.801	0.01
838.099	-0
838.397	-0.01
838.695	-0.01
838.993	-0.01
839.291	-0.01
839.589	-0
839.887	-0.01
840.184	-0.01
840.482	-0.01
840.78	-0.01
841.077	-0.02
841.375	-0.01
841.672	-0.01
841.969	-0.02
842.267	-0.02
842.564	-0.01
842.861	-0.01
843.158	-0.02
843.455	-0.04
843.752	-0.03
844.049	-0.03
844.346	-0.03
844.643	-0.04
844.94	-0.04
845.236	-0.02
845.533	-0.03
845.83	-0.04
846.126	-0.04
846.423	-0.04
846.719	-0.05
847.015	-0.04
847.312	-0.04
847.608	-0.05
847.904	-0.04
848.2	-0.06
848.496	-0.05
848.792	-0.05
849.088	-0.04
849.384	-0.05
849.68	-0.05
849.975	-0.05
850.271	-0.06
850.567	-0.06
850.862	-0.07
851.158	-0.06
851.453	-0.06
851.748	-0.07
852.044	-0.07
852.339	-0.06
852.634	-0.09
852.929	-0.07
853.224	-0.07
853.519	-0.07
853.814	-0.07
854.109	-0.08
854.404	-0.07
854.699	-0.08
854.994	-0.08
855.288	-0.07
855.583	-0.07
855.877	-0.08
856.172	-0.08
856.466	-0.08
856.76	-0.09
857.055	-0.09
857.349	-0.09
857.643	-0.09
857.937	-0.1
858.231	-0.11
858.525	-0.1
858.819	-0.1
859.113	-0.11
859.407	-0.11
859.701	-0.11
859.994	-0.11
860.288	-0.09
860.581	-0.11
860.875	-0.1
861.168	-0.11
861.462	-0.11
861.755	-0.1
862.048	-0.1
862.341	-0.11
862.634	-0.11
862.928	-0.11
863.221	-0.11
863.513	-0.12
863.806	-0.11
864.099	-0.12
864.392	-0.12
864.685	-0.11
864.977	-0.11
865.27	-0.12
865.562	-0.12
865.855	-0.12
866.147	-0.12
866.44	-0.12
866.732	-0.12
867.024	-0.13
867.316	-0.13
867.608	-0.14
867.9	-0.13
868.192	-0.14
868.484	-0.13
868.776	-0.14
869.068	-0.13
869.359	-0.14
869.651	-0.14
869.943	-0.15
870.234	-0.15
870.526	-0.16
870.817	-0.15
871.108	-0.15
871.4	-0.15
871.691	-0.16
871.982	-0.16
872.273	-0.17
872.564	-0.17
872.855	-0.17
873.146	-0.17
873.437	-0.17
873.728	-0.18
874.019	-0.16
874.309	-0.18
874.6	-0.17
874.89	-0.16
875.181	-0.16
875.471	-0.17
875.762	-0.17
876.052	-0.15
876.342	-0.15
876.632	-0.16
876.922	-0.16
877.213	-0.17
877.503	-0.18
877.792	-0.18
878.082	-0.18
878.372	-0.16
878.662	-0.19
878.952	-0.18
879.241	-0.17
879.531	-0.17
879.82	-0.16
880.11	-0.17
880.399	-0.18
880.688	-0.16
880.978	-0.16
881.267	-0.16
