Data from 12-12-AQDScycling_Absorbance__234__00234.txt Node

Date: Tue Dec 12 11:55:42 EST 2023
User: kyuminlee
Spectrometer: FLMS00943
Trigger mode: 0
Integration Time (sec): 1.000000E-1
Scans to average: 1
Electric dark correction enabled: true
Nonlinearity correction enabled: false
Boxcar width: 0
XAxis mode: Wavelengths
Number of Pixels in Spectrum: 2048
>>>>>Begin Spectral Data<<<<<
179.651	0.46
180.037	0.46
180.424	0.46
180.81	-0.16
181.197	0.4
181.583	-0.31
181.97	-0.27
182.356	-0.07
182.743	-0.6
183.129	0.45
183.515	0.31
183.901	-2.29
184.288	0.37
184.674	-0
185.06	-0
185.446	-0
185.832	-1.28
186.218	0.41
186.604	0.29
186.99	0.53
187.376	0.23
187.762	0.04
188.148	-0
188.534	-0.36
188.92	0.13
189.305	0.03
189.691	0.21
190.077	0.18
190.463	0.05
190.848	0.04
191.234	0.11
191.619	0.04
192.005	0.22
192.391	0.25
192.776	0.06
193.161	0.07
193.547	0.08
193.932	0.06
194.318	0.04
194.703	0.13
195.088	0.12
195.473	0.1
195.859	0.1
196.244	0.21
196.629	0.2
197.014	0.04
197.399	0.18
197.784	0.14
198.169	0.1
198.554	0.12
198.939	0.07
199.324	0.21
199.709	-0.03
200.094	0.08
200.478	0
200.863	0.19
201.248	0.25
201.633	0.13
202.017	0.05
202.402	0.04
202.787	0.04
203.171	0.11
203.556	0.21
203.94	0
204.325	0.31
204.709	0.19
205.093	0.1
205.478	0.11
205.862	0.1
206.246	0.26
206.631	0.08
207.015	0.12
207.399	0.1
207.783	0.09
208.167	0.18
208.551	0.21
208.935	0.15
209.319	0.25
209.703	0.21
210.087	0.29
210.471	0.1
210.855	0.24
211.239	0.18
211.623	0.22
212.007	0.25
212.39	0.19
212.774	0.14
213.158	0.15
213.541	0.2
213.925	0.15
214.309	0.2
214.692	0.36
215.076	0.2
215.459	0.17
215.842	0.1
216.226	0.22
216.609	0.28
216.993	0.18
217.376	0.4
217.759	0.14
218.142	0.23
218.525	0.44
218.909	0.36
219.292	0.38
219.675	0.48
220.058	0.57
220.441	0.6
220.824	0.4
221.207	0.62
221.59	0.46
221.973	0.58
222.355	0.68
222.738	0.65
223.121	0.58
223.504	0.56
223.886	0.78
224.269	0.65
224.652	0.68
225.034	0.79
225.417	0.57
225.799	0.77
226.182	0.84
226.564	0.87
226.947	0.69
227.329	0.81
227.711	1
228.094	1.06
228.476	0.85
228.858	0.81
229.24	0.75
229.623	0.88
230.005	1
230.387	0.85
230.769	0.91
231.151	0.92
231.533	1.02
231.915	1.08
232.297	1.01
232.679	1.06
233.061	1.03
233.442	0.89
233.824	1.02
234.206	1
234.588	0.9
234.969	1.02
235.351	0.97
235.733	1.14
236.114	1.11
236.496	0.98
236.877	1.01
237.259	1.02
237.64	1.14
238.022	1.01
238.403	1.05
238.784	1.03
239.165	1.01
239.547	1.08
239.928	1.15
240.309	1.04
240.69	1.1
241.071	1.05
241.452	1.21
241.834	1.01
242.215	1.12
242.595	1
242.976	1.17
243.357	1.11
243.738	1.06
244.119	1.22
244.5	1.16
244.881	1.26
245.261	1.11
245.642	1.2
246.023	1.16
246.403	1.11
246.784	1.24
247.164	1.3
247.545	1.33
247.925	1.3
248.306	1.24
248.686	1.23
249.067	1.35
249.447	1.43
249.827	1.32
250.207	1.4
250.588	1.31
250.968	1.39
251.348	1.22
251.728	1.38
252.108	1.44
252.488	1.42
252.868	1.37
253.248	1.22
253.628	1.37
254.008	1.38
254.388	1.24
254.768	1.31
255.147	1.36
255.527	1.36
255.907	1.33
256.287	1.28
256.666	1.53
257.046	1.42
257.425	1.53
257.805	1.19
258.184	1.31
258.564	1.41
258.943	1.34
259.323	1.43
259.702	1.53
260.081	1.39
260.461	1.41
260.84	1.47
261.219	1.68
261.598	1.57
261.977	1.4
262.356	1.49
262.736	1.43
263.115	1.55
263.494	1.48
263.873	1.36
264.251	1.49
264.63	1.78
265.009	1.43
265.388	1.34
265.767	1.42
266.145	1.35
266.524	1.37
266.903	1.42
267.281	1.25
267.66	1.36
268.039	1.5
268.417	1.4
268.796	1.35
269.174	1.41
269.552	1.37
269.931	1.44
270.309	1.42
270.687	1.56
271.066	1.61
271.444	1.33
271.822	1.35
272.2	1.51
272.578	1.43
272.956	1.37
273.334	1.28
273.712	1.42
274.09	1.46
274.468	1.29
274.846	1.3
275.224	1.29
275.602	1.41
275.98	1.47
276.357	1.54
276.735	1.43
277.113	1.43
277.49	1.34
277.868	1.23
278.246	1.37
278.623	1.27
279.001	1.3
279.378	1.35
279.756	1.35
280.133	1.62
280.51	1.49
280.888	1.4
281.265	1.32
281.642	1.42
282.019	1.62
282.396	1.46
282.773	1.33
283.151	1.47
283.528	1.43
283.905	1.43
284.282	1.49
284.659	1.44
285.035	1.34
285.412	1.39
285.789	1.42
286.166	1.46
286.543	1.48
286.919	1.47
287.296	1.36
287.673	1.55
288.049	1.57
288.426	1.53
288.802	1.48
289.179	1.35
289.555	1.6
289.932	1.4
290.308	1.28
290.684	1.4
291.061	1.46
291.437	1.46
291.813	1.35
292.189	1.28
292.565	1.31
292.942	1.29
293.318	1.51
293.694	1.57
294.07	1.32
294.446	1.5
294.822	1.61
295.197	1.28
295.573	1.46
295.949	1.43
296.325	1.41
296.701	1.78
297.076	1.61
297.452	1.74
297.828	1.36
298.203	1.65
298.579	1.53
298.954	1.48
299.33	1.38
299.705	1.48
300.081	1.51
300.456	1.46
300.831	1.37
301.206	1.43
301.582	1.58
301.957	1.42
302.332	1.51
302.707	1.35
303.082	1.5
303.457	1.57
303.832	1.49
304.207	1.42
304.582	1.47
304.957	1.49
305.332	1.47
305.707	1.56
306.082	1.57
306.456	1.94
306.831	1.45
307.206	1.54
307.58	1.75
307.955	1.54
308.33	1.43
308.704	1.54
309.079	1.47
309.453	1.7
309.828	1.49
310.202	1.45
310.576	1.46
310.951	1.67
311.325	1.47
311.699	1.37
312.073	1.43
312.447	1.38
312.821	1.44
313.196	1.51
313.57	1.36
313.944	1.49
314.317	1.46
314.691	1.71
315.065	1.48
315.439	1.7
315.813	1.55
316.187	1.5
316.56	1.63
316.934	1.52
317.308	1.58
317.681	1.63
318.055	1.5
318.428	1.47
318.802	1.63
319.175	1.53
319.549	1.39
319.922	1.34
320.295	1.41
320.669	1.6
321.042	1.41
321.415	1.58
321.788	1.58
322.162	1.54
322.535	1.69
322.908	1.56
323.281	1.5
323.654	1.62
324.027	1.43
324.4	1.61
324.773	1.5
325.145	1.64
325.518	1.42
325.891	1.4
326.264	1.57
326.636	1.43
327.009	1.49
327.382	1.46
327.754	1.51
328.127	1.44
328.499	1.69
328.872	1.5
329.244	1.36
329.616	1.4
329.989	1.52
330.361	1.42
330.733	1.37
331.106	1.46
331.478	1.54
331.85	1.47
332.222	1.36
332.594	1.45
332.966	1.51
333.338	1.78
333.71	1.56
334.082	1.68
334.454	1.58
334.826	1.55
335.197	1.47
335.569	1.61
335.941	1.48
336.312	1.45
336.684	1.56
337.056	1.44
337.427	1.54
337.799	1.58
338.17	1.5
338.542	1.46
338.913	1.58
339.284	1.57
339.656	1.64
340.027	1.55
340.398	1.6
340.769	1.54
341.141	1.72
341.512	1.6
341.883	1.61
342.254	1.58
342.625	1.57
342.996	1.54
343.367	1.61
343.738	1.47
344.108	1.47
344.479	1.96
344.85	1.42
345.221	1.49
345.591	1.42
345.962	1.51
346.333	1.63
346.703	1.39
347.074	1.34
347.444	1.29
347.815	1.43
348.185	1.44
348.556	1.37
348.926	1.29
349.296	1.38
349.666	1.38
350.037	1.27
350.407	1.3
350.777	1.29
351.147	1.43
351.517	1.34
351.887	1.33
352.257	1.29
352.627	1.33
352.997	1.23
353.367	1.33
353.737	1.36
354.106	1.36
354.476	1.23
354.846	1.31
355.216	1.35
355.585	1.32
355.955	1.33
356.324	1.3
356.694	1.22
357.063	1.18
357.433	1.14
357.802	1.21
358.171	1.21
358.541	1.15
358.91	1.16
359.279	1.14
359.648	1.1
360.017	1.11
360.387	1.05
360.756	1.02
361.125	1.02
361.494	1.01
361.863	0.95
362.231	0.95
362.6	0.89
362.969	0.89
363.338	0.84
363.707	0.85
364.075	0.88
364.444	0.81
364.813	0.79
365.181	0.75
365.55	0.76
365.918	0.75
366.287	0.75
366.655	0.73
367.024	0.7
367.392	0.69
367.76	0.65
368.128	0.64
368.497	0.61
368.865	0.61
369.233	0.6
369.601	0.57
369.969	0.55
370.337	0.57
370.705	0.53
371.073	0.53
371.441	0.51
371.809	0.49
372.177	0.49
372.544	0.47
372.912	0.46
373.28	0.45
373.647	0.45
374.015	0.45
374.383	0.44
374.75	0.42
375.118	0.41
375.485	0.4
375.853	0.4
376.22	0.37
376.587	0.37
376.955	0.36
377.322	0.36
377.689	0.34
378.056	0.33
378.423	0.34
378.79	0.34
379.157	0.33
379.524	0.33
379.891	0.32
380.258	0.31
380.625	0.3
380.992	0.3
381.359	0.28
381.726	0.29
382.092	0.28
382.459	0.28
382.826	0.29
383.192	0.27
383.559	0.26
383.925	0.27
384.292	0.25
384.658	0.26
385.025	0.25
385.391	0.26
385.757	0.26
386.123	0.26
386.49	0.26
386.856	0.23
387.222	0.24
387.588	0.23
387.954	0.24
388.32	0.23
388.686	0.22
389.052	0.22
389.418	0.22
389.784	0.23
390.15	0.22
390.515	0.23
390.881	0.21
391.247	0.23
391.613	0.22
391.978	0.21
392.344	0.22
392.709	0.2
393.075	0.2
393.44	0.2
393.806	0.2
394.171	0.21
394.536	0.22
394.902	0.2
395.267	0.19
395.632	0.2
395.997	0.2
396.362	0.19
396.727	0.2
397.092	0.2
397.457	0.19
397.822	0.19
398.187	0.2
398.552	0.18
398.917	0.17
399.282	0.18
399.646	0.17
400.011	0.19
400.376	0.17
400.74	0.18
401.105	0.19
401.47	0.19
401.834	0.18
402.199	0.18
402.563	0.17
402.927	0.16
403.292	0.18
403.656	0.18
404.02	0.19
404.384	0.17
404.749	0.18
405.113	0.17
405.477	0.17
405.841	0.16
406.205	0.17
406.569	0.17
406.933	0.16
407.296	0.16
407.66	0.17
408.024	0.17
408.388	0.17
408.752	0.16
409.115	0.16
409.479	0.17
409.842	0.15
410.206	0.16
410.569	0.16
410.933	0.15
411.296	0.15
411.66	0.17
412.023	0.14
412.386	0.15
412.749	0.15
413.113	0.13
413.476	0.13
413.839	0.12
414.202	0.13
414.565	0.13
414.928	0.14
415.291	0.13
415.654	0.13
416.017	0.13
416.38	0.13
416.742	0.13
417.105	0.11
417.468	0.12
417.83	0.12
418.193	0.12
418.556	0.12
418.918	0.13
419.281	0.13
419.643	0.13
420.005	0.12
420.368	0.1
420.73	0.11
421.092	0.11
421.455	0.11
421.817	0.1
422.179	0.1
422.541	0.11
422.903	0.1
423.265	0.1
423.627	0.1
423.989	0.11
424.351	0.1
424.713	0.1
425.075	0.09
425.436	0.1
425.798	0.09
426.16	0.1
426.521	0.1
426.883	0.1
427.245	0.11
427.606	0.09
427.967	0.09
428.329	0.1
428.69	0.1
429.052	0.12
429.413	0.1
429.774	0.1
430.135	0.08
430.497	0.09
430.858	0.08
431.219	0.08
431.58	0.09
431.941	0.09
432.302	0.1
432.663	0.1
433.024	0.1
433.384	0.1
433.745	0.08
434.106	0.09
434.467	0.09
434.827	0.1
435.188	0.09
435.548	0.09
435.909	0.09
436.269	0.11
436.63	0.08
436.99	0.09
437.351	0.09
437.711	0.1
438.071	0.09
438.431	0.09
438.792	0.09
439.152	0.08
439.512	0.09
439.872	0.09
440.232	0.1
440.592	0.1
440.952	0.09
441.312	0.09
441.671	0.08
442.031	0.09
442.391	0.08
442.751	0.09
443.11	0.08
443.47	0.08
443.83	0.08
444.189	0.08
444.549	0.08
444.908	0.09
445.267	0.07
445.627	0.08
445.986	0.08
446.345	0.07
446.705	0.07
447.064	0.08
447.423	0.08
447.782	0.07
448.141	0.08
448.5	0.06
448.859	0.08
449.218	0.07
449.577	0.08
449.936	0.09
450.295	0.08
450.653	0.07
451.012	0.08
451.371	0.09
451.729	0.08
452.088	0.08
452.447	0.08
452.805	0.09
453.163	0.08
453.522	0.08
453.88	0.07
454.239	0.08
454.597	0.08
454.955	0.08
455.313	0.07
455.671	0.08
456.029	0.08
456.388	0.07
456.746	0.07
457.104	0.07
457.461	0.06
457.819	0.07
458.177	0.06
458.535	0.06
458.893	0.06
459.25	0.06
459.608	0.06
459.966	0.05
460.323	0.05
460.681	0.05
461.038	0.06
461.396	0.05
461.753	0.05
462.111	0.05
462.468	0.05
462.825	0.05
463.182	0.06
463.54	0.05
463.897	0.05
464.254	0.05
464.611	0.05
464.968	0.05
465.325	0.06
465.682	0.05
466.039	0.06
466.395	0.05
466.752	0.05
467.109	0.05
467.466	0.06
467.822	0.06
468.179	0.05
468.535	0.05
468.892	0.05
469.248	0.05
469.605	0.05
469.961	0.05
470.318	0.06
470.674	0.06
471.03	0.05
471.386	0.06
471.743	0.05
472.099	0.06
472.455	0.05
472.811	0.05
473.167	0.05
473.523	0.04
473.879	0.05
474.235	0.05
474.59	0.05
474.946	0.04
475.302	0.05
475.657	0.04
476.013	0.04
476.369	0.04
476.724	0.04
477.08	0.05
477.435	0.04
477.791	0.04
478.146	0.05
478.501	0.05
478.857	0.05
479.212	0.05
479.567	0.05
479.922	0.04
480.277	0.04
480.632	0.04
480.987	0.05
481.342	0.04
481.697	0.04
482.052	0.04
482.407	0.04
482.762	0.04
483.116	0.04
483.471	0.04
483.826	0.03
484.18	0.04
484.535	0.04
484.89	0.04
485.244	0.04
485.598	0.04
485.953	0.04
486.307	0.04
486.661	0.05
487.016	0.04
487.37	0.05
487.724	0.04
488.078	0.04
488.432	0.04
488.786	0.04
489.14	0.04
489.494	0.04
489.848	0.03
490.202	0.04
490.556	0.04
490.91	0.04
491.263	0.04
491.617	0.04
491.971	0.04
492.324	0.04
492.678	0.04
493.031	0.04
493.385	0.04
493.738	0.04
494.091	0.04
494.445	0.04
494.798	0.04
495.151	0.04
495.504	0.04
495.857	0.04
496.21	0.04
496.564	0.04
496.916	0.04
497.269	0.03
497.622	0.05
497.975	0.04
498.328	0.04
498.681	0.04
499.033	0.04
499.386	0.04
499.739	0.04
500.091	0.04
500.444	0.04
500.796	0.04
501.149	0.04
501.501	0.04
501.854	0.03
502.206	0.04
502.558	0.03
502.91	0.04
503.263	0.03
503.615	0.03
503.967	0.03
504.319	0.04
504.671	0.03
505.023	0.03
505.375	0.03
505.726	0.03
506.078	0.04
506.43	0.03
506.782	0.03
507.133	0.03
507.485	0.03
507.837	0.04
508.188	0.03
508.54	0.03
508.891	0.04
509.243	0.03
509.594	0.04
509.945	0.03
510.296	0.03
510.648	0.03
510.999	0.03
511.35	0.03
511.701	0.03
512.052	0.03
512.403	0.03
512.754	0.03
513.105	0.03
513.456	0.03
513.807	0.03
514.157	0.03
514.508	0.03
514.859	0.02
515.209	0.02
515.56	0.03
515.91	0.02
516.261	0.03
516.611	0.02
516.962	0.03
517.312	0.02
517.662	0.03
518.013	0.02
518.363	0.03
518.713	0.03
519.063	0.03
519.413	0.03
519.763	0.03
520.113	0.03
520.463	0.03
520.813	0.03
521.163	0.03
521.512	0.03
521.862	0.02
522.212	0.03
522.562	0.04
522.911	0.03
523.261	0.03
523.61	0.03
523.96	0.03
524.309	0.03
524.658	0.03
525.008	0.03
525.357	0.03
525.706	0.03
526.056	0.03
526.405	0.03
526.754	0.03
527.103	0.02
527.452	0.03
527.801	0.03
528.15	0.03
528.499	0.03
528.847	0.03
529.196	0.04
529.545	0.03
529.893	0.04
530.242	0.03
530.591	0.03
530.939	0.04
531.288	0.04
531.636	0.03
531.985	0.03
532.333	0.04
532.681	0.03
533.029	0.04
533.378	0.03
533.726	0.03
534.074	0.04
534.422	0.03
534.77	0.04
535.118	0.03
535.466	0.03
535.814	0.03
536.162	0.03
536.509	0.03
536.857	0.03
537.205	0.04
537.552	0.03
537.9	0.03
538.248	0.03
538.595	0.03
538.943	0.03
539.29	0.04
539.637	0.03
539.985	0.04
540.332	0.03
540.679	0.02
541.026	0.02
541.373	0.03
541.721	0.02
542.068	0.02
542.415	0.02
542.762	0.02
543.108	0.01
543.455	0.02
543.802	0.02
544.149	0.02
544.496	0.02
544.842	0.01
545.189	0
545.535	0.01
545.882	0.02
546.228	0.01
546.575	0.01
546.921	0.01
547.267	0.01
547.614	0.02
547.96	0.01
548.306	0.02
548.652	0.01
548.998	0.02
549.344	0.01
549.69	0.02
550.036	0.02
550.382	0.02
550.728	0.02
551.074	0.03
551.42	0.02
551.765	0.02
552.111	0.02
552.457	0.02
552.802	0.02
553.148	0.02
553.493	0.02
553.839	0.02
554.184	0.02
554.529	0.01
554.875	0.03
555.22	0.03
555.565	0.03
555.91	0.03
556.255	0.03
556.6	0.02
556.945	0.02
557.29	0.02
557.635	0.02
557.98	0.02
558.325	0.02
558.67	0.02
559.014	0.02
559.359	0.02
559.704	0.02
560.048	0.01
560.393	0.02
560.737	0.01
561.082	0.01
561.426	0.01
561.77	0.01
562.115	0.01
562.459	0.01
562.803	0.01
563.147	0.01
563.491	0.01
563.835	0.01
564.179	0.02
564.523	0.01
564.867	0.01
565.211	0.01
565.555	0.01
565.899	0.03
566.242	0.01
566.586	0.02
566.93	0.02
567.273	0.02
567.617	0.01
567.96	0.02
568.304	0.02
568.647	0.02
568.99	0.02
569.334	0.02
569.677	0.02
570.02	0.02
570.363	0.02
570.706	0.01
571.049	0.02
571.392	0.02
571.735	0.01
572.078	0.02
572.421	0.03
572.764	0.01
573.106	0.02
573.449	0.01
573.792	0.01
574.134	0.01
574.477	0.02
574.819	0.01
575.162	0.01
575.504	0.01
575.847	0.02
576.189	0.02
576.531	0.01
576.873	0.02
577.215	0.02
577.558	0.02
577.9	0.01
578.242	0.02
578.584	0.02
578.926	0.02
579.267	0.01
579.609	0.01
579.951	0.02
580.293	0.01
580.634	0.02
580.976	0.02
581.318	0.02
581.659	0.01
582.001	0.01
582.342	0.01
582.683	0.02
583.025	0.01
583.366	0.01
583.707	0.01
584.049	0.01
584.39	0.01
584.731	0
585.072	0
585.413	0.02
585.754	0.02
586.095	0.02
586.435	0.01
586.776	0.01
587.117	0.02
587.458	0.01
587.798	0.01
588.139	0.02
588.48	0.01
588.82	0.01
589.161	0.01
589.501	0.01
589.841	0.01
590.182	0.01
590.522	0.01
590.862	0.01
591.202	0.01
591.542	0.01
591.882	0.01
592.222	0.01
592.562	0.01
592.902	0.02
593.242	0.01
593.582	0.02
593.922	0.01
594.261	0.01
594.601	0.01
594.941	0.02
595.28	0.01
595.62	0.02
595.959	0.01
596.299	0.01
596.638	0.01
596.977	0.01
597.317	0.02
597.656	0.01
597.995	0.01
598.334	0.02
598.673	0.01
599.012	0.01
599.351	0.01
599.69	0
600.029	0.01
600.368	0.01
600.707	0.01
601.046	0.02
601.384	0.02
601.723	0.02
602.061	0.01
602.4	0.01
602.738	0.01
603.077	0.01
603.415	0.01
603.754	0.02
604.092	0.02
604.43	0.01
604.768	0.02
605.107	0.02
605.445	0.01
605.783	0.02
606.121	0.01
606.459	0.01
606.796	0.01
607.134	0.01
607.472	0.01
607.81	0.01
608.148	0.01
608.485	0.02
608.823	0.01
609.16	0.01
609.498	0.01
609.835	0.01
610.173	0.01
610.51	0.02
610.847	0.02
611.185	0.02
611.522	0.02
611.859	0.02
612.196	0.02
612.533	0.02
612.87	0.02
613.207	0.03
613.544	0.02
613.881	0.03
614.217	0.02
614.554	0.02
614.891	0.02
615.228	0.02
615.564	0.02
615.901	0.03
616.237	0.02
616.574	0.02
616.91	0.03
617.246	0.03
617.583	0.03
617.919	0.03
618.255	0.03
618.591	0.03
618.927	0.03
619.263	0.03
619.599	0.03
619.935	0.03
620.271	0.03
620.607	0.03
620.943	0.03
621.279	0.03
621.614	0.02
621.95	0.02
622.286	0.02
622.621	0.02
622.957	0.02
623.292	0.02
623.627	0.01
623.963	0.02
624.298	0.02
624.633	0.01
624.968	0.02
625.304	0.02
625.639	0.02
625.974	0.02
626.309	0.02
626.644	0.02
626.979	0.02
627.313	0.02
627.648	0.01
627.983	0.02
628.318	0.01
628.652	0.01
628.987	0.02
629.321	0.02
629.656	0.01
629.99	0.01
630.325	0.02
630.659	0.01
630.993	0.01
631.327	0.02
631.662	0.01
631.996	0.01
632.33	0.02
632.664	0.02
632.998	0.02
633.332	0.01
633.666	0.02
633.999	0.02
634.333	0.02
634.667	0.01
635.001	0.01
635.334	0.01
635.668	0.01
636.001	0.01
636.335	0.01
636.668	0.02
637.001	0.01
637.335	0.01
637.668	0.01
638.001	0.01
638.334	0.01
638.668	0.01
639.001	0.01
639.334	0.01
639.667	0.01
639.999	0.01
640.332	0.01
640.665	0.01
640.998	0.01
641.331	0.01
641.663	0.01
641.996	0.01
642.328	0.01
642.661	0.01
642.993	0.01
643.326	0.01
643.658	0.01
643.99	0.01
644.323	0
644.655	0.01
644.987	0.02
645.319	0.02
645.651	0.01
645.983	0.01
646.315	0.01
646.647	0.02
646.979	0.03
647.31	0.02
647.642	0.02
647.974	0.02
648.305	0.03
648.637	0.02
648.968	0.02
649.3	0.03
649.631	0.03
649.963	0.02
650.294	0.03
650.625	0.03
650.957	0.03
651.288	0.03
651.619	0.03
651.95	0.03
652.281	0.02
652.612	0.03
652.943	0.03
653.274	0.03
653.604	0.03
653.935	0.02
654.266	0.03
654.596	0.02
654.927	0.02
655.258	0.02
655.588	0.04
655.918	0.02
656.249	0.01
656.579	0.02
656.909	0.02
657.24	0.02
657.57	0.03
657.9	0.03
658.23	0.03
658.56	0.03
658.89	0.03
659.22	0.03
659.55	0.03
659.88	0.03
660.209	0.04
660.539	0.05
660.869	0.03
661.198	0.04
661.528	0.04
661.857	0.04
662.187	0.04
662.516	0.03
662.846	0.03
663.175	0.03
663.504	0.03
663.833	0.03
664.163	0.03
664.492	0.02
664.821	0.03
665.15	0.03
665.479	0.03
665.807	0.03
666.136	0.03
666.465	0.03
666.794	0.03
667.122	0.02
667.451	0.02
667.78	0.02
668.108	0.02
668.437	0.02
668.765	0.02
669.093	0.03
669.422	0.03
669.75	0.03
670.078	0.03
670.406	0.03
670.734	0.03
671.062	0.03
671.39	0.03
671.718	0.04
672.046	0.03
672.374	0.03
672.702	0.03
673.029	0.03
673.357	0.03
673.685	0.04
674.012	0.03
674.34	0.03
674.667	0.03
674.995	0.03
675.322	0.03
675.649	0.03
675.977	0.03
676.304	0.02
676.631	0.03
676.958	0.03
677.285	0.02
677.612	0.02
677.939	0.03
678.266	0.03
678.593	0.03
678.92	0.03
679.246	0.02
679.573	0.02
679.9	0.02
680.226	0.02
680.553	0.01
680.879	0.02
681.206	0.03
681.532	0.02
681.858	0.02
682.184	0.02
682.511	0.02
682.837	0.02
683.163	0.02
683.489	0.02
683.815	0.02
684.141	0.02
684.467	0.02
684.793	0.02
685.118	0.02
685.444	0.02
685.77	0.03
686.095	0.03
686.421	0.02
686.746	0.03
687.072	0.03
687.397	0.03
687.723	0.03
688.048	0.03
688.373	0.03
688.698	0.03
689.023	0.03
689.349	0.03
689.674	0.04
689.999	0.03
690.323	0.02
690.648	0.02
690.973	0.02
691.298	0.02
691.623	0.02
691.947	0.02
692.272	0.02
692.596	0.02
692.921	0.03
693.245	0.02
693.57	0.02
693.894	0.03
694.218	0.02
694.543	0.02
694.867	0.02
695.191	0.02
695.515	0.03
695.839	0.01
696.163	0.02
696.487	0.02
696.811	0.02
697.135	0.03
697.458	0.03
697.782	0.02
698.106	0.02
698.429	0.03
698.753	0.02
699.076	0.03
699.4	0.02
699.723	0.02
700.046	0.02
700.37	0.03
700.693	0.03
701.016	0.02
701.339	0.03
701.662	0.03
701.985	0.03
702.308	0.02
702.631	0.02
702.954	0.03
703.277	0.02
703.599	0.03
703.922	0.02
704.245	0.02
704.567	0.02
704.89	0.02
705.212	0.03
705.535	0.02
705.857	0.02
706.179	0.02
706.502	0.02
706.824	0.02
707.146	0.02
707.468	0.03
707.79	0.02
708.112	0.03
708.434	0.02
708.756	0.03
709.078	0.03
709.399	0.02
709.721	0.02
710.043	0.03
710.364	0.03
710.686	0.02
711.007	0.03
711.329	0.03
711.65	0.03
711.972	0.03
712.293	0.03
712.614	0.03
712.935	0.03
713.256	0.03
713.577	0.03
713.898	0.02
714.219	0.02
714.54	0.02
714.861	0.02
715.182	0.02
715.503	0.02
715.823	0.02
716.144	0.02
716.464	0.01
716.785	0.01
717.105	0.02
717.426	0.02
717.746	0.02
718.066	0.01
718.387	0.01
718.707	0.01
719.027	0.02
719.347	0.01
719.667	0.02
719.987	0.01
720.307	0.01
720.627	0.01
720.947	0.01
721.266	0.01
721.586	0
721.906	0.01
722.225	0
722.545	0.01
722.864	0.01
723.184	0.02
723.503	0.01
723.823	0.01
724.142	0
724.461	0.01
724.78	0.01
725.099	0.01
725.418	0.02
725.737	0.01
726.056	0.02
726.375	0.02
726.694	0.02
727.013	0.01
727.331	0.01
727.65	0.01
727.969	0.01
728.287	0.02
728.606	0.02
728.924	0.01
729.242	0.01
729.561	0.02
729.879	0.01
730.197	0.02
730.515	0.01
730.834	0.02
731.152	0.01
731.47	0.01
731.788	0.02
732.105	0.01
732.423	0.01
732.741	0.01
733.059	0.01
733.376	0.02
733.694	0.01
734.012	0.01
734.329	0.01
734.647	0.01
734.964	0.02
735.281	0.02
735.599	0.02
735.916	0.02
736.233	0.01
736.55	0.01
736.867	0.01
737.184	0.02
737.501	0.02
737.818	0.02
738.135	0.02
738.452	0.02
738.768	0.03
739.085	0.02
739.402	0.01
739.718	0.02
740.035	0.02
740.351	0.03
740.668	0.03
740.984	0.03
741.3	0.02
741.617	0.03
741.933	0.02
742.249	0.03
742.565	0.02
742.881	0.03
743.197	0.02
743.513	0.02
743.829	0.02
744.144	0.02
744.46	0.03
744.776	0.02
745.091	0.03
745.407	0.03
745.722	0.03
746.038	0.02
746.353	0.01
746.669	0.03
746.984	0.02
747.299	0.03
747.614	0.03
747.93	0.03
748.245	0.02
748.56	0.02
748.875	0.02
749.189	0.03
749.504	0.03
749.819	0.03
750.134	0.03
750.448	0.03
750.763	0.03
751.078	0.03
751.392	0.03
751.707	0.03
752.021	0.04
752.335	0.03
752.65	0.03
752.964	0.03
753.278	0.03
753.592	0.02
753.906	0.01
754.22	0.03
754.534	0.02
754.848	0.03
755.162	0.02
755.476	0.03
755.789	0.03
756.103	0.02
756.417	0.03
756.73	0.03
757.044	0.04
757.357	0.03
757.671	0.03
757.984	0.03
758.297	0.03
758.61	0.03
758.924	0.03
759.237	0.03
759.55	0.03
759.863	0.03
760.176	0.03
760.488	0.03
760.801	0.03
761.114	0.03
761.427	0.03
761.739	0.03
762.052	0.02
762.365	0.03
762.677	0.03
762.99	0.02
763.302	0.03
763.614	0.03
763.926	0.03
764.239	0.02
764.551	0.02
764.863	0.03
765.175	0.03
765.487	0.03
765.799	0.02
766.111	0.03
766.423	0.03
766.734	0.03
767.046	0.02
767.358	0.03
767.669	0.03
767.981	0.03
768.292	0.02
768.604	0.03
768.915	0.03
769.226	0.02
769.537	0.01
769.849	0.03
770.16	0.02
770.471	0.02
770.782	0.02
771.093	0.02
771.404	0
771.715	0.01
772.025	0.02
772.336	0.02
772.647	0.01
772.957	0.01
773.268	0.02
773.578	0.02
773.889	0.02
774.199	0.03
774.51	0.03
774.82	0.02
775.13	0.02
775.44	0.03
775.75	0.03
776.06	0.03
776.37	0.02
776.68	0.03
776.99	0.03
777.3	0.02
777.61	0.03
777.92	0.02
778.229	0.03
778.539	0.03
778.848	0.02
779.158	0.03
779.467	0.03
779.777	0.03
780.086	0.03
780.395	0.02
780.704	0.03
781.013	0.02
781.323	0.02
781.632	0.03
781.941	0.03
782.249	0.03
782.558	0.03
782.867	0.02
783.176	0.02
783.485	0.02
783.793	0.03
784.102	0.02
784.41	0.03
784.719	0.02
785.027	0.02
785.335	0.02
785.644	0.02
785.952	0.03
786.26	0.02
786.568	0.02
786.876	0.01
787.184	0.02
787.492	0.03
787.8	0.02
788.108	0.03
788.416	0.02
788.723	0.02
789.031	0.02
789.338	0.02
789.646	0.02
789.953	0.02
790.261	0.03
790.568	0.03
790.876	0.03
791.183	0.03
791.49	0.02
791.797	0.02
792.104	0.02
792.411	0.03
792.718	0.03
793.025	0.02
793.332	0.02
793.639	0.03
793.945	0.04
794.252	0.03
794.559	0.02
794.865	0.03
795.172	0.03
795.478	0.03
795.784	0.04
796.091	0.04
796.397	0.04
796.703	0.03
797.009	0.04
797.315	0.03
797.622	0.04
797.927	0.03
798.233	0.03
798.539	0.04
798.845	0.03
799.151	0.04
799.456	0.03
799.762	0.03
800.068	0.03
800.373	0.03
800.679	0.03
800.984	0.03
801.289	0.03
801.595	0.02
801.9	0.03
802.205	0.03
802.51	0.03
802.815	0.03
803.12	0.02
803.425	0.03
803.73	0.02
804.035	0.03
804.339	0.02
804.644	0.03
804.949	0.03
805.253	0.03
805.558	0.03
805.862	0.02
806.167	0.03
806.471	0.03
806.775	0.02
807.08	0.03
807.384	0.03
807.688	0.03
807.992	0.04
808.296	0.03
808.6	0.04
808.904	0.04
809.207	0.03
809.511	0.04
809.815	0.04
810.119	0.03
810.422	0.04
810.726	0.04
811.029	0.05
811.332	0.04
811.636	0.04
811.939	0.03
812.242	0.04
812.546	0.03
812.849	0.04
813.152	0.04
813.455	0.04
813.758	0.04
814.06	0.04
814.363	0.04
814.666	0.04
814.969	0.04
815.271	0.04
815.574	0.03
815.877	0.03
816.179	0.03
816.481	0.03
816.784	0.04
817.086	0.04
817.388	0.02
817.69	0.02
817.993	0.02
818.295	0.02
818.597	0.02
818.899	0.02
819.2	0.01
819.502	0.01
819.804	0.02
820.106	0.02
820.407	0.01
820.709	0.02
821.01	0.01
821.312	0.02
821.613	0.02
821.915	0.01
822.216	0.02
822.517	0.01
822.818	0.01
823.119	0.02
823.42	0.02
823.721	0.01
824.022	0.01
824.323	0.02
824.624	0.02
824.925	0.03
825.226	0.04
825.526	0.02
825.827	0.03
826.127	0.03
826.428	0.03
826.728	0.02
827.028	0.02
827.329	0.02
827.629	0.02
827.929	0.02
828.229	0.03
828.529	0.03
828.829	0.03
829.129	0.03
829.429	0.02
829.729	0.02
830.029	0.02
830.328	0.02
830.628	0.02
830.927	0.01
831.227	0.01
831.526	0.01
831.826	0.02
832.125	0.02
832.424	0.01
832.724	0.02
833.023	0.02
833.322	0.02
833.621	0.02
833.92	0.01
834.219	0.02
834.518	0.02
834.816	0
835.115	0.01
835.414	0.01
835.712	0.01
836.011	0.01
836.309	0.01
836.608	0.01
836.906	0
837.205	0
837.503	-0
837.801	0
838.099	-0.01
838.397	-0.01
838.695	-0.01
838.993	0
839.291	-0.01
839.589	-0.01
839.887	-0.01
840.184	-0.03
840.482	-0.02
840.78	-0.02
841.077	-0.02
841.375	-0.02
841.672	-0.03
841.969	-0.03
842.267	-0.03
842.564	-0.04
842.861	-0.03
843.158	-0.03
843.455	-0.04
843.752	-0.05
844.049	-0.04
844.346	-0.04
844.643	-0.05
844.94	-0.05
845.236	-0.04
845.533	-0.04
845.83	-0.05
846.126	-0.04
846.423	-0.05
846.719	-0.06
847.015	-0.06
847.312	-0.06
847.608	-0.06
847.904	-0.07
848.2	-0.07
848.496	-0.07
848.792	-0.06
849.088	-0.06
849.384	-0.07
849.68	-0.07
849.975	-0.06
850.271	-0.07
850.567	-0.07
850.862	-0.07
851.158	-0.07
851.453	-0.07
851.748	-0.08
852.044	-0.07
852.339	-0.07
852.634	-0.08
852.929	-0.07
853.224	-0.08
853.519	-0.08
853.814	-0.07
854.109	-0.08
854.404	-0.08
854.699	-0.08
854.994	-0.08
855.288	-0.07
855.583	-0.08
855.877	-0.09
856.172	-0.09
856.466	-0.09
856.76	-0.08
857.055	-0.09
857.349	-0.1
857.643	-0.09
857.937	-0.11
858.231	-0.1
858.525	-0.1
858.819	-0.1
859.113	-0.11
859.407	-0.1
859.701	-0.11
859.994	-0.11
860.288	-0.11
860.581	-0.12
860.875	-0.12
861.168	-0.13
861.462	-0.12
861.755	-0.12
862.048	-0.12
862.341	-0.12
862.634	-0.12
862.928	-0.12
863.221	-0.12
863.513	-0.13
863.806	-0.13
864.099	-0.13
864.392	-0.13
864.685	-0.12
864.977	-0.13
865.27	-0.13
865.562	-0.14
865.855	-0.13
866.147	-0.14
866.44	-0.13
866.732	-0.15
867.024	-0.15
867.316	-0.14
867.608	-0.15
867.9	-0.15
868.192	-0.15
868.484	-0.15
868.776	-0.15
869.068	-0.16
869.359	-0.15
869.651	-0.16
869.943	-0.17
870.234	-0.16
870.526	-0.17
870.817	-0.17
871.108	-0.15
871.4	-0.15
871.691	-0.15
871.982	-0.18
872.273	-0.17
872.564	-0.17
872.855	-0.18
873.146	-0.17
873.437	-0.17
873.728	-0.18
874.019	-0.17
874.309	-0.18
874.6	-0.16
874.89	-0.18
875.181	-0.18
875.471	-0.17
875.762	-0.18
876.052	-0.18
876.342	-0.17
876.632	-0.18
876.922	-0.18
877.213	-0.18
877.503	-0.19
877.792	-0.18
878.082	-0.19
878.372	-0.17
878.662	-0.21
878.952	-0.18
879.241	-0.18
879.531	-0.16
879.82	-0.19
880.11	-0.18
880.399	-0.19
880.688	-0.18
880.978	-0.18
881.267	-0.18
