Data from 12-12-AQDScycling_Absorbance__324__00324.txt Node

Date: Tue Dec 12 12:17:44 EST 2023
User: kyuminlee
Spectrometer: FLMS00943
Trigger mode: 0
Integration Time (sec): 1.000000E-1
Scans to average: 1
Electric dark correction enabled: true
Nonlinearity correction enabled: false
Boxcar width: 0
XAxis mode: Wavelengths
Number of Pixels in Spectrum: 2048
>>>>>Begin Spectral Data<<<<<
179.651	-0
180.037	-0
180.424	-0
180.81	0.45
181.197	0.17
181.583	-0.48
181.97	-0.22
182.356	-0
182.743	-0
183.129	1.08
183.515	0.24
183.901	-0
184.288	0.25
184.674	1.03
185.06	-1.01
185.446	-0
185.832	-1.4
186.218	0.08
186.604	0.64
186.99	-0
187.376	0.65
187.762	-0.27
188.148	1.46
188.534	-0.16
188.92	0.11
189.305	0.03
189.691	0.09
190.077	0.29
190.463	0.07
190.848	0.08
191.234	0.13
191.619	-0.03
192.005	0.1
192.391	0.09
192.776	0.16
193.161	0.1
193.547	0.13
193.932	-0.05
194.318	0.03
194.703	0.11
195.088	0.2
195.473	0.24
195.859	0.15
196.244	0.09
196.629	0.08
197.014	0.05
197.399	0.08
197.784	0.13
198.169	0.09
198.554	0.18
198.939	0.12
199.324	0.08
199.709	0.15
200.094	0.06
200.478	-0.01
200.863	0.16
201.248	0.11
201.633	0.16
202.017	0.17
202.402	0.18
202.787	0.1
203.171	0.13
203.556	0.18
203.94	0.12
204.325	0.14
204.709	0.15
205.093	0
205.478	0.1
205.862	0.07
206.246	0.14
206.631	0.07
207.015	0.01
207.399	0.13
207.783	0.13
208.167	0.18
208.551	0.18
208.935	0.13
209.319	0.15
209.703	0.17
210.087	0.26
210.471	0.17
210.855	0.2
211.239	0.2
211.623	0.17
212.007	0.21
212.39	0.36
212.774	0.18
213.158	0.06
213.541	0.35
213.925	0.2
214.309	0.47
214.692	0.24
215.076	0.22
215.459	0.13
215.842	0.18
216.226	0.19
216.609	0.23
216.993	0.23
217.376	0.46
217.759	0.19
218.142	0.24
218.525	0.35
218.909	0.44
219.292	0.23
219.675	0.46
220.058	0.45
220.441	0.47
220.824	0.53
221.207	0.52
221.59	0.47
221.973	0.5
222.355	0.64
222.738	0.81
223.121	0.41
223.504	0.53
223.886	0.62
224.269	0.65
224.652	0.67
225.034	0.81
225.417	0.71
225.799	0.71
226.182	0.81
226.564	0.76
226.947	0.74
227.329	0.82
227.711	1.05
228.094	0.95
228.476	0.81
228.858	0.74
229.24	0.8
229.623	0.85
230.005	0.86
230.387	1.02
230.769	0.79
231.151	0.92
231.533	0.93
231.915	0.95
232.297	1.01
232.679	0.85
233.061	0.91
233.442	1.03
233.824	1.02
234.206	1.07
234.588	1.05
234.969	0.96
235.351	0.94
235.733	0.97
236.114	1.16
236.496	1.1
236.877	1.03
237.259	1.05
237.64	0.96
238.022	1.05
238.403	0.97
238.784	1.01
239.165	1.08
239.547	0.98
239.928	1.08
240.309	1.15
240.69	1.05
241.071	1.33
241.452	1.22
241.834	1.12
242.215	1.08
242.595	1.04
242.976	1.17
243.357	1.22
243.738	0.95
244.119	1.44
244.5	1.03
244.881	1.23
245.261	1.2
245.642	1.16
246.023	1.16
246.403	1.15
246.784	1.17
247.164	1.31
247.545	1.33
247.925	1.4
248.306	1.17
248.686	1.33
249.067	1.29
249.447	1.3
249.827	1.44
250.207	1.58
250.588	1.15
250.968	1.46
251.348	1.34
251.728	1.53
252.108	1.39
252.488	1.41
252.868	1.36
253.248	1.39
253.628	1.32
254.008	1.53
254.388	1.24
254.768	1.34
255.147	1.37
255.527	1.51
255.907	1.3
256.287	1.37
256.666	1.46
257.046	1.35
257.425	1.47
257.805	1.35
258.184	1.34
258.564	1.36
258.943	1.26
259.323	1.43
259.702	1.43
260.081	1.49
260.461	1.38
260.84	1.44
261.219	1.68
261.598	1.54
261.977	1.42
262.356	1.43
262.736	1.43
263.115	1.46
263.494	1.33
263.873	1.34
264.251	1.51
264.63	1.46
265.009	1.34
265.388	1.42
265.767	1.25
266.145	1.41
266.524	1.35
266.903	1.48
267.281	1.33
267.66	1.6
268.039	1.48
268.417	1.39
268.796	1.39
269.174	1.45
269.552	1.29
269.931	1.53
270.309	1.57
270.687	1.65
271.066	1.55
271.444	1.34
271.822	1.69
272.2	1.59
272.578	1.31
272.956	1.38
273.334	1.4
273.712	1.38
274.09	1.27
274.468	1.32
274.846	1.23
275.224	1.25
275.602	1.44
275.98	1.71
276.357	1.4
276.735	1.42
277.113	1.39
277.49	1.34
277.868	1.24
278.246	1.48
278.623	1.3
279.001	1.37
279.378	1.43
279.756	1.42
280.133	1.36
280.51	1.41
280.888	1.34
281.265	1.41
281.642	1.35
282.019	1.54
282.396	1.66
282.773	1.49
283.151	1.43
283.528	1.52
283.905	1.39
284.282	1.43
284.659	1.52
285.035	1.41
285.412	1.33
285.789	1.54
286.166	1.47
286.543	1.39
286.919	1.37
287.296	1.39
287.673	1.76
288.049	1.52
288.426	1.53
288.802	1.61
289.179	1.47
289.555	1.63
289.932	1.65
290.308	1.32
290.684	1.34
291.061	1.3
291.437	1.5
291.813	1.4
292.189	1.3
292.565	1.29
292.942	1.32
293.318	1.39
293.694	1.39
294.07	1.32
294.446	1.52
294.822	1.61
295.197	1.46
295.573	1.43
295.949	1.58
296.325	1.5
296.701	1.47
297.076	1.53
297.452	1.44
297.828	1.32
298.203	1.34
298.579	1.33
298.954	1.37
299.33	1.36
299.705	1.36
300.081	1.42
300.456	1.41
300.831	1.26
301.206	1.3
301.582	1.34
301.957	1.24
302.332	1.31
302.707	1.2
303.082	1.13
303.457	1.27
303.832	1.17
304.207	1.12
304.582	1.19
304.957	1.18
305.332	1.19
305.707	1.18
306.082	1.12
306.456	1.19
306.831	1.11
307.206	1.05
307.58	1.15
307.955	1.09
308.33	1.04
308.704	1.01
309.079	1.02
309.453	1.01
309.828	1.02
310.202	0.98
310.576	0.98
310.951	0.99
311.325	0.97
311.699	0.94
312.073	0.94
312.447	0.89
312.821	0.91
313.196	0.91
313.57	0.88
313.944	0.9
314.317	0.86
314.691	0.9
315.065	0.92
315.439	0.85
315.813	0.87
316.187	0.85
316.56	0.85
316.934	0.85
317.308	0.82
317.681	0.86
318.055	0.88
318.428	0.84
318.802	0.87
319.175	0.85
319.549	0.81
319.922	0.79
320.295	0.81
320.669	0.85
321.042	0.84
321.415	0.84
321.788	0.83
322.162	0.82
322.535	0.83
322.908	0.8
323.281	0.79
323.654	0.84
324.027	0.79
324.4	0.85
324.773	0.8
325.145	0.84
325.518	0.79
325.891	0.8
326.264	0.85
326.636	0.83
327.009	0.8
327.382	0.82
327.754	0.84
328.127	0.83
328.499	0.85
328.872	0.83
329.244	0.84
329.616	0.83
329.989	0.86
330.361	0.88
330.733	0.86
331.106	0.85
331.478	0.94
331.85	0.86
332.222	0.89
332.594	0.89
332.966	0.91
333.338	0.91
333.71	0.92
334.082	0.93
334.454	0.93
334.826	0.93
335.197	0.93
335.569	0.93
335.941	0.92
336.312	0.95
336.684	0.97
337.056	0.98
337.427	0.99
337.799	0.98
338.17	0.99
338.542	0.97
338.913	1.01
339.284	1.01
339.656	0.96
340.027	1.04
340.398	1.07
340.769	1.02
341.141	1.05
341.512	1.02
341.883	1.05
342.254	1.05
342.625	1.06
342.996	1.06
343.367	1.06
343.738	1.04
344.108	1.01
344.479	1.18
344.85	1.07
345.221	1.13
345.591	1.05
345.962	1.12
346.333	1.07
346.703	1.09
347.074	1.11
347.444	1.11
347.815	1.2
348.185	1.23
348.556	1.16
348.926	1.16
349.296	1.17
349.666	1.16
350.037	1.09
350.407	1.08
350.777	1.17
351.147	1.16
351.517	1.2
351.887	1.23
352.257	1.32
352.627	1.19
352.997	1.23
353.367	1.31
353.737	1.31
354.106	1.4
354.476	1.27
354.846	1.37
355.216	1.42
355.585	1.37
355.955	1.35
356.324	1.39
356.694	1.38
357.063	1.39
357.433	1.4
357.802	1.43
358.171	1.42
358.541	1.4
358.91	1.43
359.279	1.51
359.648	1.38
360.017	1.54
360.387	1.5
360.756	1.39
361.125	1.51
361.494	1.61
361.863	1.49
362.231	1.43
362.6	1.54
362.969	1.57
363.338	1.49
363.707	1.61
364.075	1.63
364.444	1.4
364.813	1.49
365.181	1.59
365.55	1.49
365.918	1.58
366.287	1.51
366.655	1.6
367.024	1.58
367.392	1.59
367.76	1.45
368.128	1.6
368.497	1.61
368.865	1.51
369.233	1.47
369.601	1.58
369.969	1.63
370.337	1.56
370.705	1.56
371.073	1.47
371.441	1.62
371.809	1.4
372.177	1.4
372.544	1.63
372.912	1.56
373.28	1.47
373.647	1.56
374.015	1.72
374.383	1.69
374.75	1.67
375.118	1.52
375.485	1.52
375.853	1.65
376.22	1.53
376.587	1.58
376.955	1.56
377.322	1.58
377.689	1.6
378.056	1.5
378.423	1.64
378.79	1.46
379.157	1.49
379.524	1.65
379.891	1.52
380.258	1.54
380.625	1.48
380.992	1.53
381.359	1.63
381.726	1.49
382.092	1.48
382.459	1.54
382.826	1.49
383.192	1.48
383.559	1.44
383.925	1.76
384.292	1.49
384.658	1.7
385.025	1.64
385.391	1.9
385.757	1.69
386.123	1.58
386.49	1.62
386.856	1.56
387.222	1.63
387.588	1.51
387.954	1.71
388.32	1.72
388.686	1.79
389.052	1.52
389.418	1.61
389.784	1.46
390.15	1.64
390.515	1.44
390.881	1.72
391.247	1.47
391.613	1.56
391.978	1.49
392.344	1.74
392.709	1.6
393.075	1.56
393.44	1.58
393.806	1.53
394.171	1.44
394.536	1.48
394.902	1.64
395.267	1.45
395.632	1.43
395.997	1.47
396.362	1.52
396.727	1.45
397.092	1.6
397.457	1.5
397.822	1.47
398.187	1.5
398.552	1.58
398.917	1.71
399.282	1.42
399.646	1.58
400.011	1.64
400.376	1.36
400.74	1.54
401.105	1.53
401.47	1.6
401.834	1.58
402.199	1.52
402.563	1.53
402.927	1.4
403.292	1.79
403.656	1.55
404.02	1.67
404.384	1.57
404.749	1.53
405.113	1.64
405.477	1.56
405.841	1.56
406.205	1.63
406.569	1.55
406.933	1.58
407.296	1.49
407.66	1.46
408.024	1.62
408.388	1.67
408.752	1.56
409.115	1.68
409.479	1.55
409.842	1.5
410.206	1.6
410.569	1.52
410.933	1.63
411.296	1.55
411.66	1.59
412.023	1.39
412.386	1.6
412.749	1.5
413.113	1.57
413.476	1.47
413.839	1.59
414.202	1.49
414.565	1.33
414.928	1.45
415.291	1.43
415.654	1.57
416.017	1.56
416.38	1.41
416.742	1.45
417.105	1.44
417.468	1.49
417.83	1.47
418.193	1.6
418.556	1.46
418.918	1.43
419.281	1.43
419.643	1.41
420.005	1.52
420.368	1.6
420.73	1.43
421.092	1.53
421.455	1.52
421.817	1.38
422.179	1.44
422.541	1.66
422.903	1.75
423.265	1.59
423.627	1.58
423.989	1.51
424.351	1.5
424.713	1.48
425.075	1.58
425.436	1.52
425.798	1.49
426.16	1.71
426.521	1.5
426.883	1.57
427.245	1.44
427.606	1.41
427.967	1.41
428.329	1.51
428.69	1.48
429.052	1.47
429.413	1.67
429.774	1.58
430.135	1.44
430.497	1.53
430.858	1.5
431.219	1.46
431.58	1.51
431.941	1.5
432.302	1.46
432.663	1.62
433.024	1.49
433.384	1.54
433.745	1.53
434.106	1.71
434.467	1.48
434.827	1.5
435.188	1.44
435.548	1.55
435.909	1.49
436.269	1.53
436.63	1.41
436.99	1.51
437.351	1.33
437.711	1.43
438.071	1.42
438.431	1.46
438.792	1.47
439.152	1.45
439.512	1.38
439.872	1.45
440.232	1.44
440.592	1.38
440.952	1.41
441.312	1.4
441.671	1.41
442.031	1.42
442.391	1.42
442.751	1.45
443.11	1.47
443.47	1.38
443.83	1.35
444.189	1.29
444.549	1.36
444.908	1.37
445.267	1.32
445.627	1.34
445.986	1.34
446.345	1.29
446.705	1.36
447.064	1.38
447.423	1.29
447.782	1.32
448.141	1.28
448.5	1.24
448.859	1.32
449.218	1.29
449.577	1.33
449.936	1.29
450.295	1.27
450.653	1.23
451.012	1.27
451.371	1.26
451.729	1.23
452.088	1.23
452.447	1.26
452.805	1.21
453.163	1.26
453.522	1.22
453.88	1.18
454.239	1.2
454.597	1.16
454.955	1.15
455.313	1.15
455.671	1.18
456.029	1.15
456.388	1.11
456.746	1.12
457.104	1.09
457.461	1.06
457.819	1.07
458.177	1.04
458.535	1.07
458.893	1.03
459.25	1.04
459.608	1.02
459.966	0.99
460.323	1
460.681	0.95
461.038	0.94
461.396	0.94
461.753	0.92
462.111	0.94
462.468	0.9
462.825	0.9
463.182	0.88
463.54	0.85
463.897	0.87
464.254	0.85
464.611	0.85
464.968	0.81
465.325	0.82
465.682	0.8
466.039	0.79
466.395	0.79
466.752	0.77
467.109	0.75
467.466	0.74
467.822	0.74
468.179	0.71
468.535	0.71
468.892	0.7
469.248	0.68
469.605	0.67
469.961	0.66
470.318	0.66
470.674	0.66
471.03	0.64
471.386	0.64
471.743	0.61
472.099	0.6
472.455	0.59
472.811	0.59
473.167	0.58
473.523	0.57
473.879	0.56
474.235	0.54
474.59	0.53
474.946	0.52
475.302	0.52
475.657	0.51
476.013	0.5
476.369	0.48
476.724	0.49
477.08	0.48
477.435	0.48
477.791	0.46
478.146	0.45
478.501	0.45
478.857	0.44
479.212	0.43
479.567	0.41
479.922	0.41
480.277	0.4
480.632	0.4
480.987	0.39
481.342	0.38
481.697	0.38
482.052	0.36
482.407	0.36
482.762	0.35
483.116	0.35
483.471	0.34
483.826	0.33
484.18	0.32
484.535	0.32
484.89	0.31
485.244	0.3
485.598	0.31
485.953	0.3
486.307	0.29
486.661	0.3
487.016	0.28
487.37	0.28
487.724	0.27
488.078	0.27
488.432	0.26
488.786	0.26
489.14	0.25
489.494	0.25
489.848	0.25
490.202	0.23
490.556	0.23
490.91	0.24
491.263	0.23
491.617	0.23
491.971	0.22
492.324	0.21
492.678	0.22
493.031	0.22
493.385	0.21
493.738	0.21
494.091	0.21
494.445	0.2
494.798	0.2
495.151	0.19
495.504	0.18
495.857	0.19
496.21	0.18
496.564	0.18
496.916	0.18
497.269	0.17
497.622	0.18
497.975	0.17
498.328	0.17
498.681	0.17
499.033	0.16
499.386	0.17
499.739	0.16
500.091	0.16
500.444	0.15
500.796	0.15
501.149	0.15
501.501	0.15
501.854	0.15
502.206	0.14
502.558	0.15
502.91	0.14
503.263	0.14
503.615	0.14
503.967	0.13
504.319	0.14
504.671	0.13
505.023	0.13
505.375	0.12
505.726	0.12
506.078	0.12
506.43	0.12
506.782	0.12
507.133	0.12
507.485	0.12
507.837	0.12
508.188	0.11
508.54	0.12
508.891	0.13
509.243	0.12
509.594	0.12
509.945	0.11
510.296	0.11
510.648	0.12
510.999	0.11
511.35	0.11
511.701	0.11
512.052	0.12
512.403	0.11
512.754	0.11
513.105	0.1
513.456	0.1
513.807	0.1
514.157	0.11
514.508	0.11
514.859	0.1
515.209	0.1
515.56	0.1
515.91	0.1
516.261	0.1
516.611	0.09
516.962	0.1
517.312	0.1
517.662	0.1
518.013	0.1
518.363	0.1
518.713	0.1
519.063	0.09
519.413	0.1
519.763	0.09
520.113	0.09
520.463	0.1
520.813	0.1
521.163	0.1
521.512	0.1
521.862	0.1
522.212	0.1
522.562	0.1
522.911	0.09
523.261	0.09
523.61	0.1
523.96	0.09
524.309	0.1
524.658	0.1
525.008	0.09
525.357	0.09
525.706	0.1
526.056	0.09
526.405	0.09
526.754	0.1
527.103	0.09
527.452	0.09
527.801	0.09
528.15	0.09
528.499	0.09
528.847	0.09
529.196	0.09
529.545	0.09
529.893	0.1
530.242	0.1
530.591	0.09
530.939	0.1
531.288	0.1
531.636	0.1
531.985	0.1
532.333	0.09
532.681	0.1
533.029	0.1
533.378	0.09
533.726	0.09
534.074	0.1
534.422	0.08
534.77	0.1
535.118	0.09
535.466	0.1
535.814	0.09
536.162	0.09
536.509	0.1
536.857	0.09
537.205	0.1
537.552	0.1
537.9	0.09
538.248	0.09
538.595	0.09
538.943	0.1
539.29	0.1
539.637	0.1
539.985	0.09
540.332	0.09
540.679	0.09
541.026	0.09
541.373	0.1
541.721	0.08
542.068	0.08
542.415	0.09
542.762	0.08
543.108	0.08
543.455	0.07
543.802	0.08
544.149	0.07
544.496	0.08
544.842	0.08
545.189	0.07
545.535	0.08
545.882	0.08
546.228	0.08
546.575	0.07
546.921	0.07
547.267	0.07
547.614	0.07
547.96	0.08
548.306	0.08
548.652	0.08
548.998	0.08
549.344	0.08
549.69	0.08
550.036	0.08
550.382	0.08
550.728	0.08
551.074	0.09
551.42	0.09
551.765	0.08
552.111	0.09
552.457	0.09
552.802	0.08
553.148	0.08
553.493	0.09
553.839	0.09
554.184	0.09
554.529	0.08
554.875	0.09
555.22	0.09
555.565	0.09
555.91	0.09
556.255	0.09
556.6	0.1
556.945	0.08
557.29	0.09
557.635	0.09
557.98	0.08
558.325	0.09
558.67	0.09
559.014	0.09
559.359	0.09
559.704	0.09
560.048	0.08
560.393	0.08
560.737	0.07
561.082	0.08
561.426	0.07
561.77	0.08
562.115	0.08
562.459	0.07
562.803	0.08
563.147	0.08
563.491	0.08
563.835	0.08
564.179	0.08
564.523	0.08
564.867	0.08
565.211	0.07
565.555	0.08
565.899	0.08
566.242	0.08
566.586	0.08
566.93	0.08
567.273	0.09
567.617	0.08
567.96	0.09
568.304	0.08
568.647	0.08
568.99	0.08
569.334	0.09
569.677	0.09
570.02	0.09
570.363	0.08
570.706	0.08
571.049	0.09
571.392	0.08
571.735	0.08
572.078	0.09
572.421	0.09
572.764	0.08
573.106	0.09
573.449	0.07
573.792	0.08
574.134	0.08
574.477	0.08
574.819	0.08
575.162	0.07
575.504	0.08
575.847	0.08
576.189	0.08
576.531	0.08
576.873	0.08
577.215	0.08
577.558	0.08
577.9	0.07
578.242	0.08
578.584	0.08
578.926	0.08
579.267	0.08
579.609	0.08
579.951	0.08
580.293	0.08
580.634	0.09
580.976	0.08
581.318	0.08
581.659	0.08
582.001	0.08
582.342	0.08
582.683	0.08
583.025	0.07
583.366	0.08
583.707	0.08
584.049	0.07
584.39	0.07
584.731	0.08
585.072	0.07
585.413	0.08
585.754	0.09
586.095	0.08
586.435	0.08
586.776	0.08
587.117	0.07
587.458	0.08
587.798	0.08
588.139	0.07
588.48	0.07
588.82	0.08
589.161	0.08
589.501	0.07
589.841	0.09
590.182	0.07
590.522	0.07
590.862	0.08
591.202	0.08
591.542	0.07
591.882	0.07
592.222	0.08
592.562	0.08
592.902	0.07
593.242	0.08
593.582	0.08
593.922	0.08
594.261	0.07
594.601	0.08
594.941	0.07
595.28	0.08
595.62	0.08
595.959	0.07
596.299	0.07
596.638	0.07
596.977	0.08
597.317	0.08
597.656	0.08
597.995	0.07
598.334	0.08
598.673	0.08
599.012	0.07
599.351	0.08
599.69	0.08
600.029	0.08
600.368	0.08
600.707	0.08
601.046	0.07
601.384	0.09
601.723	0.08
602.061	0.08
602.4	0.08
602.738	0.08
603.077	0.08
603.415	0.08
603.754	0.08
604.092	0.08
604.43	0.08
604.768	0.08
605.107	0.09
605.445	0.08
605.783	0.08
606.121	0.08
606.459	0.09
606.796	0.08
607.134	0.07
607.472	0.08
607.81	0.08
608.148	0.07
608.485	0.08
608.823	0.07
609.16	0.07
609.498	0.07
609.835	0.07
610.173	0.07
610.51	0.08
610.847	0.08
611.185	0.08
611.522	0.08
611.859	0.08
612.196	0.09
612.533	0.09
612.87	0.09
613.207	0.09
613.544	0.08
613.881	0.09
614.217	0.08
614.554	0.08
614.891	0.08
615.228	0.08
615.564	0.08
615.901	0.08
616.237	0.09
616.574	0.09
616.91	0.09
617.246	0.08
617.583	0.09
617.919	0.09
618.255	0.09
618.591	0.09
618.927	0.09
619.263	0.09
619.599	0.09
619.935	0.09
620.271	0.09
620.607	0.08
620.943	0.09
621.279	0.08
621.614	0.08
621.95	0.09
622.286	0.08
622.621	0.08
622.957	0.08
623.292	0.08
623.627	0.07
623.963	0.08
624.298	0.07
624.633	0.08
624.968	0.07
625.304	0.07
625.639	0.07
625.974	0.08
626.309	0.07
626.644	0.08
626.979	0.09
627.313	0.08
627.648	0.07
627.983	0.08
628.318	0.07
628.652	0.06
628.987	0.07
629.321	0.08
629.656	0.06
629.99	0.06
630.325	0.07
630.659	0.07
630.993	0.07
631.327	0.08
631.662	0.07
631.996	0.07
632.33	0.07
632.664	0.08
632.998	0.07
633.332	0.07
633.666	0.07
633.999	0.07
634.333	0.07
634.667	0.06
635.001	0.07
635.334	0.07
635.668	0.06
636.001	0.06
636.335	0.07
636.668	0.07
637.001	0.06
637.335	0.06
637.668	0.07
638.001	0.06
638.334	0.07
638.668	0.06
639.001	0.07
639.334	0.06
639.667	0.07
639.999	0.06
640.332	0.07
640.665	0.06
640.998	0.06
641.331	0.06
641.663	0.05
641.996	0.06
642.328	0.07
642.661	0.06
642.993	0.06
643.326	0.06
643.658	0.05
643.99	0.05
644.323	0.06
644.655	0.06
644.987	0.06
645.319	0.07
645.651	0.07
645.983	0.06
646.315	0.06
646.647	0.06
646.979	0.07
647.31	0.07
647.642	0.07
647.974	0.06
648.305	0.07
648.637	0.07
648.968	0.07
649.3	0.07
649.631	0.07
649.963	0.07
650.294	0.07
650.625	0.07
650.957	0.08
651.288	0.07
651.619	0.07
651.95	0.07
652.281	0.07
652.612	0.06
652.943	0.07
653.274	0.07
653.604	0.07
653.935	0.07
654.266	0.07
654.596	0.07
654.927	0.07
655.258	0.07
655.588	0.08
655.918	0.07
656.249	0.05
656.579	0.06
656.909	0.07
657.24	0.07
657.57	0.08
657.9	0.07
658.23	0.07
658.56	0.07
658.89	0.07
659.22	0.07
659.55	0.07
659.88	0.08
660.209	0.07
660.539	0.09
660.869	0.08
661.198	0.08
661.528	0.08
661.857	0.08
662.187	0.09
662.516	0.08
662.846	0.07
663.175	0.07
663.504	0.07
663.833	0.07
664.163	0.08
664.492	0.07
664.821	0.07
665.15	0.07
665.479	0.07
665.807	0.06
666.136	0.07
666.465	0.07
666.794	0.07
667.122	0.06
667.451	0.06
667.78	0.07
668.108	0.07
668.437	0.06
668.765	0.06
669.093	0.07
669.422	0.07
669.75	0.06
670.078	0.07
670.406	0.07
670.734	0.06
671.062	0.07
671.39	0.07
671.718	0.07
672.046	0.07
672.374	0.06
672.702	0.06
673.029	0.06
673.357	0.07
673.685	0.07
674.012	0.06
674.34	0.06
674.667	0.08
674.995	0.07
675.322	0.07
675.649	0.07
675.977	0.07
676.304	0.07
676.631	0.07
676.958	0.07
677.285	0.07
677.612	0.06
677.939	0.07
678.266	0.07
678.593	0.07
678.92	0.07
679.246	0.06
679.573	0.07
679.9	0.07
680.226	0.07
680.553	0.06
680.879	0.06
681.206	0.06
681.532	0.06
681.858	0.06
682.184	0.06
682.511	0.06
682.837	0.06
683.163	0.07
683.489	0.06
683.815	0.06
684.141	0.06
684.467	0.06
684.793	0.06
685.118	0.06
685.444	0.06
685.77	0.06
686.095	0.06
686.421	0.06
686.746	0.07
687.072	0.06
687.397	0.06
687.723	0.07
688.048	0.07
688.373	0.07
688.698	0.07
689.023	0.06
689.349	0.07
689.674	0.07
689.999	0.06
690.323	0.06
690.648	0.05
690.973	0.06
691.298	0.06
691.623	0.06
691.947	0.06
692.272	0.05
692.596	0.06
692.921	0.06
693.245	0.05
693.57	0.06
693.894	0.06
694.218	0.06
694.543	0.06
694.867	0.06
695.191	0.06
695.515	0.06
695.839	0.05
696.163	0.06
696.487	0.06
696.811	0.06
697.135	0.06
697.458	0.05
697.782	0.06
698.106	0.06
698.429	0.06
698.753	0.06
699.076	0.06
699.4	0.05
699.723	0.06
700.046	0.05
700.37	0.06
700.693	0.06
701.016	0.06
701.339	0.06
701.662	0.06
701.985	0.07
702.308	0.05
702.631	0.06
702.954	0.06
703.277	0.06
703.599	0.05
703.922	0.05
704.245	0.05
704.567	0.05
704.89	0.05
705.212	0.05
705.535	0.05
705.857	0.05
706.179	0.05
706.502	0.04
706.824	0.04
707.146	0.04
707.468	0.05
707.79	0.05
708.112	0.05
708.434	0.05
708.756	0.05
709.078	0.05
709.399	0.05
709.721	0.05
710.043	0.05
710.364	0.05
710.686	0.05
711.007	0.05
711.329	0.06
711.65	0.05
711.972	0.05
712.293	0.06
712.614	0.05
712.935	0.06
713.256	0.05
713.577	0.06
713.898	0.05
714.219	0.05
714.54	0.05
714.861	0.04
715.182	0.05
715.503	0.05
715.823	0.05
716.144	0.04
716.464	0.04
716.785	0.05
717.105	0.05
717.426	0.05
717.746	0.04
718.066	0.03
718.387	0.04
718.707	0.03
719.027	0.05
719.347	0.04
719.667	0.04
719.987	0.03
720.307	0.04
720.627	0.04
720.947	0.04
721.266	0.04
721.586	0.03
721.906	0.04
722.225	0.03
722.545	0.04
722.864	0.03
723.184	0.05
723.503	0.04
723.823	0.04
724.142	0.03
724.461	0.03
724.78	0.04
725.099	0.04
725.418	0.03
725.737	0.04
726.056	0.04
726.375	0.04
726.694	0.04
727.013	0.04
727.331	0.03
727.65	0.04
727.969	0.04
728.287	0.04
728.606	0.04
728.924	0.03
729.242	0.04
729.561	0.04
729.879	0.05
730.197	0.04
730.515	0.04
730.834	0.04
731.152	0.03
731.47	0.04
731.788	0.04
732.105	0.04
732.423	0.04
732.741	0.04
733.059	0.04
733.376	0.04
733.694	0.04
734.012	0.04
734.329	0.04
734.647	0.04
734.964	0.04
735.281	0.04
735.599	0.04
735.916	0.04
736.233	0.03
736.55	0.04
736.867	0.04
737.184	0.05
737.501	0.04
737.818	0.04
738.135	0.05
738.452	0.05
738.768	0.05
739.085	0.04
739.402	0.03
739.718	0.04
740.035	0.04
740.351	0.04
740.668	0.05
740.984	0.05
741.3	0.04
741.617	0.05
741.933	0.04
742.249	0.05
742.565	0.04
742.881	0.05
743.197	0.05
743.513	0.04
743.829	0.04
744.144	0.04
744.46	0.04
744.776	0.05
745.091	0.04
745.407	0.04
745.722	0.04
746.038	0.03
746.353	0.03
746.669	0.04
746.984	0.03
747.299	0.04
747.614	0.05
747.93	0.04
748.245	0.04
748.56	0.04
748.875	0.04
749.189	0.04
749.504	0.05
749.819	0.05
750.134	0.04
750.448	0.04
750.763	0.04
751.078	0.04
751.392	0.04
751.707	0.05
752.021	0.05
752.335	0.05
752.65	0.04
752.964	0.04
753.278	0.05
753.592	0.04
753.906	0.04
754.22	0.04
754.534	0.04
754.848	0.04
755.162	0.04
755.476	0.04
755.789	0.04
756.103	0.04
756.417	0.04
756.73	0.05
757.044	0.05
757.357	0.05
757.671	0.05
757.984	0.04
758.297	0.05
758.61	0.05
758.924	0.04
759.237	0.04
759.55	0.05
759.863	0.04
760.176	0.05
760.488	0.05
760.801	0.04
761.114	0.04
761.427	0.04
761.739	0.05
762.052	0.05
762.365	0.04
762.677	0.04
762.99	0.04
763.302	0.04
763.614	0.04
763.926	0.04
764.239	0.04
764.551	0.04
764.863	0.04
765.175	0.05
765.487	0.04
765.799	0.03
766.111	0.03
766.423	0.04
766.734	0.04
767.046	0.04
767.358	0.04
767.669	0.03
767.981	0.04
768.292	0.04
768.604	0.04
768.915	0.04
769.226	0.04
769.537	0.03
769.849	0.04
770.16	0.04
770.471	0.03
770.782	0.04
771.093	0.03
771.404	0.02
771.715	0.03
772.025	0.03
772.336	0.04
772.647	0.03
772.957	0.04
773.268	0.04
773.578	0.03
773.889	0.03
774.199	0.05
774.51	0.04
774.82	0.04
775.13	0.03
775.44	0.04
775.75	0.04
776.06	0.04
776.37	0.04
776.68	0.04
776.99	0.04
777.3	0.03
777.61	0.04
777.92	0.03
778.229	0.04
778.539	0.03
778.848	0.04
779.158	0.04
779.467	0.05
779.777	0.04
780.086	0.05
780.395	0.04
780.704	0.03
781.013	0.03
781.323	0.03
781.632	0.04
781.941	0.04
782.249	0.04
782.558	0.04
782.867	0.04
783.176	0.04
783.485	0.03
783.793	0.04
784.102	0.03
784.41	0.03
784.719	0.03
785.027	0.03
785.335	0.03
785.644	0.04
785.952	0.03
786.26	0.04
786.568	0.02
786.876	0.03
787.184	0.03
787.492	0.03
787.8	0.03
788.108	0.03
788.416	0.03
788.723	0.04
789.031	0.03
789.338	0.03
789.646	0.04
789.953	0.04
790.261	0.03
790.568	0.04
790.876	0.03
791.183	0.04
791.49	0.03
791.797	0.03
792.104	0.03
792.411	0.04
792.718	0.03
793.025	0.04
793.332	0.04
793.639	0.04
793.945	0.05
794.252	0.04
794.559	0.04
794.865	0.04
795.172	0.04
795.478	0.04
795.784	0.05
796.091	0.04
796.397	0.05
796.703	0.05
797.009	0.05
797.315	0.05
797.622	0.05
797.927	0.04
798.233	0.05
798.539	0.05
798.845	0.04
799.151	0.05
799.456	0.04
799.762	0.04
800.068	0.04
800.373	0.05
800.679	0.04
800.984	0.05
801.289	0.04
801.595	0.04
801.9	0.04
802.205	0.04
802.51	0.04
802.815	0.04
803.12	0.04
803.425	0.03
803.73	0.04
804.035	0.04
804.339	0.04
804.644	0.03
804.949	0.04
805.253	0.04
805.558	0.04
805.862	0.04
806.167	0.04
806.471	0.04
806.775	0.04
807.08	0.04
807.384	0.04
807.688	0.04
807.992	0.04
808.296	0.04
808.6	0.04
808.904	0.05
809.207	0.04
809.511	0.05
809.815	0.06
810.119	0.04
810.422	0.05
810.726	0.06
811.029	0.06
811.332	0.05
811.636	0.05
811.939	0.05
812.242	0.05
812.546	0.06
812.849	0.05
813.152	0.05
813.455	0.05
813.758	0.05
814.06	0.05
814.363	0.05
814.666	0.05
814.969	0.05
815.271	0.05
815.574	0.05
815.877	0.05
816.179	0.05
816.481	0.04
816.784	0.05
817.086	0.04
817.388	0.03
817.69	0.04
817.993	0.03
818.295	0.04
818.597	0.03
818.899	0.04
819.2	0.03
819.502	0.03
819.804	0.04
820.106	0.03
820.407	0.03
820.709	0.03
821.01	0.03
821.312	0.04
821.613	0.03
821.915	0.02
822.216	0.03
822.517	0.03
822.818	0.03
823.119	0.04
823.42	0.03
823.721	0.03
824.022	0.03
824.323	0.03
824.624	0.03
824.925	0.03
825.226	0.04
825.526	0.04
825.827	0.03
826.127	0.03
826.428	0.04
826.728	0.03
827.028	0.03
827.329	0.03
827.629	0.03
827.929	0.03
828.229	0.04
828.529	0.04
828.829	0.03
829.129	0.03
829.429	0.03
829.729	0.03
830.029	0.02
830.328	0.03
830.628	0.02
830.927	0.01
831.227	0.02
831.526	0.02
831.826	0.03
832.125	0.02
832.424	0.02
832.724	0.02
833.023	0.03
833.322	0.03
833.621	0.01
833.92	0.01
834.219	0.02
834.518	0.03
834.816	0.01
835.115	0.03
835.414	0.02
835.712	0.01
836.011	0.02
836.309	0.01
836.608	0.01
836.906	0.01
837.205	0
837.503	0
837.801	0
838.099	0
838.397	-0.01
838.695	-0
838.993	0
839.291	-0
839.589	-0
839.887	-0.01
840.184	-0.01
840.482	-0.01
840.78	-0.01
841.077	-0.02
841.375	-0.02
841.672	-0.01
841.969	-0.01
842.267	-0.01
842.564	-0.02
842.861	-0.01
843.158	-0.02
843.455	-0.04
843.752	-0.03
844.049	-0.03
844.346	-0.03
844.643	-0.04
844.94	-0.04
845.236	-0.02
845.533	-0.04
845.83	-0.03
846.126	-0.04
846.423	-0.04
846.719	-0.05
847.015	-0.05
847.312	-0.05
847.608	-0.05
847.904	-0.05
848.2	-0.06
848.496	-0.06
848.792	-0.05
849.088	-0.04
849.384	-0.06
849.68	-0.06
849.975	-0.05
850.271	-0.06
850.567	-0.06
850.862	-0.07
851.158	-0.06
851.453	-0.07
851.748	-0.07
852.044	-0.07
852.339	-0.07
852.634	-0.08
852.929	-0.06
853.224	-0.07
853.519	-0.07
853.814	-0.07
854.109	-0.09
854.404	-0.07
854.699	-0.08
854.994	-0.07
855.288	-0.07
855.583	-0.07
855.877	-0.08
856.172	-0.07
856.466	-0.08
856.76	-0.08
857.055	-0.08
857.349	-0.09
857.643	-0.09
857.937	-0.1
858.231	-0.11
858.525	-0.1
858.819	-0.1
859.113	-0.1
859.407	-0.11
859.701	-0.11
859.994	-0.11
860.288	-0.1
860.581	-0.11
860.875	-0.11
861.168	-0.11
861.462	-0.11
861.755	-0.1
862.048	-0.12
862.341	-0.11
862.634	-0.11
862.928	-0.11
863.221	-0.11
863.513	-0.12
863.806	-0.12
864.099	-0.13
864.392	-0.12
864.685	-0.11
864.977	-0.11
865.27	-0.11
865.562	-0.12
865.855	-0.12
866.147	-0.13
866.44	-0.12
866.732	-0.12
867.024	-0.13
867.316	-0.12
867.608	-0.13
867.9	-0.13
868.192	-0.13
868.484	-0.14
868.776	-0.14
869.068	-0.13
869.359	-0.14
869.651	-0.15
869.943	-0.16
870.234	-0.15
870.526	-0.16
870.817	-0.16
871.108	-0.14
871.4	-0.15
871.691	-0.15
871.982	-0.17
872.273	-0.17
872.564	-0.17
872.855	-0.17
873.146	-0.18
873.437	-0.18
873.728	-0.18
874.019	-0.17
874.309	-0.19
874.6	-0.17
874.89	-0.18
875.181	-0.18
875.471	-0.17
875.762	-0.17
876.052	-0.17
876.342	-0.15
876.632	-0.18
876.922	-0.17
877.213	-0.17
877.503	-0.18
877.792	-0.17
878.082	-0.18
878.372	-0.17
878.662	-0.18
878.952	-0.18
879.241	-0.18
879.531	-0.17
879.82	-0.18
880.11	-0.18
880.399	-0.17
880.688	-0.17
880.978	-0.17
881.267	-0.17
