Data from 12-12-AQDScycling_Absorbance__387__00387.txt Node

Date: Tue Dec 12 12:33:29 EST 2023
User: kyuminlee
Spectrometer: FLMS00943
Trigger mode: 0
Integration Time (sec): 1.000000E-1
Scans to average: 1
Electric dark correction enabled: true
Nonlinearity correction enabled: false
Boxcar width: 0
XAxis mode: Wavelengths
Number of Pixels in Spectrum: 2048
>>>>>Begin Spectral Data<<<<<
179.651	-0.11
180.037	-0.11
180.424	-0.11
180.81	-0.05
181.197	0.25
181.583	-0
181.97	-0.4
182.356	-0
182.743	-0
183.129	0.65
183.515	-0
183.901	-1.86
184.288	-0
184.674	-0
185.06	-0.82
185.446	-0
185.832	0.33
186.218	0.6
186.604	-0.34
186.99	-0
187.376	-0
187.762	-0
188.148	0.83
188.534	-0.1
188.92	0.18
189.305	0.05
189.691	0.13
190.077	0.25
190.463	-0
190.848	0.09
191.234	0.11
191.619	0.14
192.005	0.06
192.391	0.19
192.776	0.05
193.161	0.28
193.547	0.3
193.932	-0.06
194.318	0.17
194.703	0.13
195.088	0.26
195.473	0.17
195.859	0.11
196.244	0.07
196.629	0.1
197.014	0.27
197.399	0.4
197.784	0.14
198.169	0.28
198.554	0.18
198.939	0.09
199.324	0.05
199.709	0.06
200.094	0.16
200.478	0.38
200.863	0.2
201.248	0.16
201.633	0.15
202.017	0.14
202.402	0.23
202.787	0.14
203.171	0.24
203.556	0.33
203.94	0.34
204.325	0.15
204.709	0.18
205.093	0.14
205.478	0.2
205.862	-0.01
206.246	0.21
206.631	0.29
207.015	0.1
207.399	0.13
207.783	0.15
208.167	0.17
208.551	0.19
208.935	0.17
209.319	0.15
209.703	0.19
210.087	0.24
210.471	0.15
210.855	0.25
211.239	0.11
211.623	0.32
212.007	0.3
212.39	0.39
212.774	0.04
213.158	0.19
213.541	0.27
213.925	0.29
214.309	0.56
214.692	0.3
215.076	0.31
215.459	0.16
215.842	0.17
216.226	0.23
216.609	0.25
216.993	0.14
217.376	0.43
217.759	0.14
218.142	0.31
218.525	0.45
218.909	0.41
219.292	0.4
219.675	0.38
220.058	0.43
220.441	0.55
220.824	0.55
221.207	0.67
221.59	0.58
221.973	0.47
222.355	0.54
222.738	0.67
223.121	0.6
223.504	0.55
223.886	0.69
224.269	0.63
224.652	0.71
225.034	0.74
225.417	0.69
225.799	0.78
226.182	0.86
226.564	0.89
226.947	0.82
227.329	0.78
227.711	0.91
228.094	0.89
228.476	0.98
228.858	0.76
229.24	0.84
229.623	0.96
230.005	0.91
230.387	0.9
230.769	0.87
231.151	0.96
231.533	0.93
231.915	0.94
232.297	0.97
232.679	0.94
233.061	0.98
233.442	1.14
233.824	0.97
234.206	1.1
234.588	1.07
234.969	0.92
235.351	1.05
235.733	1.13
236.114	1.17
236.496	1.03
236.877	1.12
237.259	0.93
237.64	1.08
238.022	1.08
238.403	1
238.784	1.11
239.165	0.88
239.547	1.04
239.928	1.18
240.309	0.94
240.69	1.01
241.071	1.21
241.452	1.22
241.834	1
242.215	1.06
242.595	1.18
242.976	1.09
243.357	1.26
243.738	1.05
244.119	1.31
244.5	1.01
244.881	1.19
245.261	1.27
245.642	1.17
246.023	1.35
246.403	1.23
246.784	1.29
247.164	1.57
247.545	1.21
247.925	1.35
248.306	1.27
248.686	1.47
249.067	1.34
249.447	1.55
249.827	1.56
250.207	1.46
250.588	1.22
250.968	1.44
251.348	1.33
251.728	1.39
252.108	1.51
252.488	1.32
252.868	1.32
253.248	1.28
253.628	1.33
254.008	1.55
254.388	1.37
254.768	1.22
255.147	1.4
255.527	1.29
255.907	1.34
256.287	1.41
256.666	1.56
257.046	1.5
257.425	1.59
257.805	1.35
258.184	1.28
258.564	1.33
258.943	1.46
259.323	1.44
259.702	1.36
260.081	1.49
260.461	1.44
260.84	1.59
261.219	2.01
261.598	1.57
261.977	1.37
262.356	1.56
262.736	1.38
263.115	1.64
263.494	1.37
263.873	1.49
264.251	1.63
264.63	1.5
265.009	1.39
265.388	1.46
265.767	1.54
266.145	1.46
266.524	1.32
266.903	1.65
267.281	1.4
267.66	1.45
268.039	1.44
268.417	1.42
268.796	1.4
269.174	1.52
269.552	1.33
269.931	1.52
270.309	1.49
270.687	1.5
271.066	1.53
271.444	1.35
271.822	1.47
272.2	1.54
272.578	1.37
272.956	1.49
273.334	1.3
273.712	1.43
274.09	1.58
274.468	1.49
274.846	1.34
275.224	1.72
275.602	1.38
275.98	1.89
276.357	1.56
276.735	1.42
277.113	1.49
277.49	1.37
277.868	1.42
278.246	1.35
278.623	1.35
279.001	1.32
279.378	1.32
279.756	1.38
280.133	1.86
280.51	1.34
280.888	1.4
281.265	1.36
281.642	1.57
282.019	1.52
282.396	1.56
282.773	1.54
283.151	1.53
283.528	1.52
283.905	1.46
284.282	1.48
284.659	1.59
285.035	1.3
285.412	1.47
285.789	1.57
286.166	1.49
286.543	1.47
286.919	1.4
287.296	1.38
287.673	1.71
288.049	1.48
288.426	1.53
288.802	1.55
289.179	1.54
289.555	1.73
289.932	1.43
290.308	1.39
290.684	1.38
291.061	1.34
291.437	1.5
291.813	1.31
292.189	1.33
292.565	1.43
292.942	1.37
293.318	1.28
293.694	1.42
294.07	1.33
294.446	1.57
294.822	1.66
295.197	1.41
295.573	1.48
295.949	1.48
296.325	1.44
296.701	1.47
297.076	1.59
297.452	1.52
297.828	1.4
298.203	1.57
298.579	1.44
298.954	1.38
299.33	1.33
299.705	1.38
300.081	1.38
300.456	1.48
300.831	1.29
301.206	1.35
301.582	1.46
301.957	1.28
302.332	1.37
302.707	1.28
303.082	1.31
303.457	1.29
303.832	1.29
304.207	1.16
304.582	1.24
304.957	1.21
305.332	1.28
305.707	1.21
306.082	1.24
306.456	1.22
306.831	1.13
307.206	1.15
307.58	1.14
307.955	1.1
308.33	1.1
308.704	1.08
309.079	1.06
309.453	1.15
309.828	1.07
310.202	1.02
310.576	1.08
310.951	1.03
311.325	1.05
311.699	0.98
312.073	0.95
312.447	1.03
312.821	1
313.196	1.01
313.57	0.96
313.944	0.95
314.317	0.96
314.691	0.97
315.065	0.94
315.439	1
315.813	1.02
316.187	0.92
316.56	1.03
316.934	0.93
317.308	0.97
317.681	0.94
318.055	0.94
318.428	0.96
318.802	0.95
319.175	0.92
319.549	0.94
319.922	0.92
320.295	0.96
320.669	0.96
321.042	0.99
321.415	1
321.788	0.95
322.162	0.96
322.535	0.95
322.908	0.94
323.281	0.96
323.654	0.96
324.027	0.92
324.4	0.96
324.773	0.95
325.145	0.93
325.518	0.92
325.891	0.96
326.264	0.97
326.636	0.96
327.009	0.96
327.382	0.96
327.754	0.97
328.127	1
328.499	0.97
328.872	0.91
329.244	1
329.616	0.94
329.989	0.96
330.361	0.99
330.733	0.97
331.106	0.99
331.478	1.07
331.85	0.99
332.222	1.01
332.594	1.03
332.966	1
333.338	1.1
333.71	1.04
334.082	1.08
334.454	1
334.826	1.03
335.197	1.02
335.569	1.04
335.941	1.09
336.312	1.09
336.684	1.06
337.056	1.05
337.427	1.12
337.799	1.13
338.17	1.11
338.542	1.06
338.913	1.14
339.284	1.14
339.656	1.11
340.027	1.13
340.398	1.14
340.769	1.08
341.141	1.17
341.512	1.15
341.883	1.15
342.254	1.16
342.625	1.16
342.996	1.17
343.367	1.15
343.738	1.17
344.108	1.16
344.479	1.21
344.85	1.12
345.221	1.18
345.591	1.12
345.962	1.24
346.333	1.23
346.703	1.16
347.074	1.2
347.444	1.15
347.815	1.22
348.185	1.32
348.556	1.24
348.926	1.19
349.296	1.25
349.666	1.24
350.037	1.19
350.407	1.19
350.777	1.23
351.147	1.22
351.517	1.28
351.887	1.27
352.257	1.29
352.627	1.18
352.997	1.2
353.367	1.43
353.737	1.34
354.106	1.34
354.476	1.27
354.846	1.25
355.216	1.34
355.585	1.53
355.955	1.41
356.324	1.42
356.694	1.33
357.063	1.35
357.433	1.39
357.802	1.41
358.171	1.65
358.541	1.43
358.91	1.51
359.279	1.58
359.648	1.39
360.017	1.47
360.387	1.55
360.756	1.53
361.125	1.48
361.494	1.59
361.863	1.44
362.231	1.44
362.6	1.51
362.969	1.49
363.338	1.5
363.707	1.69
364.075	1.85
364.444	1.41
364.813	1.59
365.181	1.49
365.55	1.49
365.918	1.88
366.287	1.58
366.655	1.58
367.024	1.61
367.392	1.65
367.76	1.51
368.128	1.51
368.497	1.7
368.865	1.57
369.233	1.49
369.601	1.57
369.969	1.49
370.337	1.58
370.705	1.52
371.073	1.58
371.441	1.45
371.809	1.5
372.177	1.52
372.544	1.59
372.912	1.51
373.28	1.59
373.647	1.56
374.015	1.82
374.383	1.79
374.75	1.71
375.118	1.57
375.485	1.54
375.853	1.64
376.22	1.63
376.587	1.45
376.955	1.82
377.322	1.65
377.689	1.63
378.056	1.62
378.423	1.44
378.79	1.61
379.157	1.55
379.524	1.62
379.891	1.61
380.258	1.61
380.625	1.53
380.992	1.69
381.359	1.49
381.726	2.04
382.092	1.61
382.459	1.56
382.826	1.49
383.192	1.72
383.559	1.59
383.925	1.56
384.292	1.48
384.658	1.65
385.025	1.56
385.391	1.69
385.757	1.64
386.123	1.61
386.49	1.67
386.856	1.61
387.222	1.71
387.588	1.49
387.954	1.83
388.32	1.68
388.686	1.65
389.052	1.64
389.418	1.6
389.784	1.54
390.15	1.72
390.515	1.55
390.881	1.64
391.247	1.52
391.613	1.71
391.978	1.46
392.344	1.69
392.709	1.64
393.075	1.57
393.44	1.55
393.806	1.61
394.171	1.53
394.536	1.57
394.902	1.67
395.267	1.48
395.632	1.47
395.997	1.49
396.362	1.44
396.727	1.7
397.092	1.44
397.457	1.63
397.822	1.46
398.187	1.66
398.552	1.53
398.917	1.69
399.282	1.54
399.646	1.53
400.011	1.68
400.376	1.56
400.74	1.48
401.105	1.5
401.47	1.68
401.834	1.59
402.199	1.49
402.563	1.5
402.927	1.6
403.292	1.64
403.656	1.67
404.02	1.67
404.384	1.73
404.749	1.54
405.113	1.57
405.477	1.56
405.841	1.63
406.205	1.58
406.569	1.55
406.933	1.5
407.296	1.67
407.66	1.57
408.024	1.63
408.388	1.58
408.752	1.55
409.115	1.68
409.479	1.57
409.842	1.62
410.206	1.58
410.569	1.52
410.933	1.65
411.296	1.45
411.66	1.64
412.023	1.46
412.386	1.61
412.749	1.42
413.113	1.57
413.476	1.53
413.839	1.53
414.202	1.64
414.565	1.4
414.928	1.5
415.291	1.55
415.654	1.43
416.017	1.58
416.38	1.53
416.742	1.55
417.105	1.51
417.468	1.44
417.83	1.57
418.193	1.53
418.556	1.44
418.918	1.36
419.281	1.54
419.643	1.56
420.005	1.47
420.368	1.49
420.73	1.42
421.092	1.59
421.455	1.56
421.817	1.42
422.179	1.42
422.541	1.52
422.903	1.64
423.265	1.6
423.627	1.57
423.989	1.47
424.351	1.41
424.713	1.5
425.075	1.45
425.436	1.51
425.798	1.47
426.16	1.52
426.521	1.51
426.883	1.5
427.245	1.45
427.606	1.54
427.967	1.46
428.329	1.45
428.69	1.61
429.052	1.39
429.413	1.56
429.774	1.51
430.135	1.55
430.497	1.57
430.858	1.43
431.219	1.53
431.58	1.39
431.941	1.38
432.302	1.41
432.663	1.44
433.024	1.58
433.384	1.51
433.745	1.5
434.106	1.58
434.467	1.47
434.827	1.53
435.188	1.51
435.548	1.61
435.909	1.54
436.269	1.54
436.63	1.37
436.99	1.52
437.351	1.41
437.711	1.46
438.071	1.39
438.431	1.48
438.792	1.49
439.152	1.43
439.512	1.49
439.872	1.42
440.232	1.44
440.592	1.43
440.952	1.38
441.312	1.34
441.671	1.35
442.031	1.38
442.391	1.36
442.751	1.38
443.11	1.42
443.47	1.35
443.83	1.29
444.189	1.3
444.549	1.32
444.908	1.3
445.267	1.33
445.627	1.32
445.986	1.26
446.345	1.28
446.705	1.3
447.064	1.3
447.423	1.27
447.782	1.31
448.141	1.26
448.5	1.23
448.859	1.24
449.218	1.24
449.577	1.26
449.936	1.21
450.295	1.23
450.653	1.23
451.012	1.22
451.371	1.24
451.729	1.21
452.088	1.19
452.447	1.19
452.805	1.19
453.163	1.19
453.522	1.17
453.88	1.18
454.239	1.13
454.597	1.13
454.955	1.1
455.313	1.1
455.671	1.1
456.029	1.11
456.388	1.07
456.746	1.05
457.104	1.06
457.461	1.04
457.819	1.03
458.177	0.99
458.535	0.99
458.893	0.98
459.25	0.98
459.608	0.96
459.966	0.93
460.323	0.95
460.681	0.91
461.038	0.91
461.396	0.89
461.753	0.88
462.111	0.86
462.468	0.84
462.825	0.83
463.182	0.83
463.54	0.81
463.897	0.83
464.254	0.81
464.611	0.79
464.968	0.79
465.325	0.78
465.682	0.77
466.039	0.76
466.395	0.75
466.752	0.72
467.109	0.72
467.466	0.71
467.822	0.7
468.179	0.68
468.535	0.67
468.892	0.67
469.248	0.65
469.605	0.64
469.961	0.63
470.318	0.64
470.674	0.62
471.03	0.6
471.386	0.6
471.743	0.58
472.099	0.57
472.455	0.57
472.811	0.56
473.167	0.56
473.523	0.53
473.879	0.53
474.235	0.52
474.59	0.51
474.946	0.5
475.302	0.5
475.657	0.48
476.013	0.48
476.369	0.46
476.724	0.47
477.08	0.45
477.435	0.44
477.791	0.44
478.146	0.43
478.501	0.43
478.857	0.42
479.212	0.42
479.567	0.4
479.922	0.39
480.277	0.38
480.632	0.38
480.987	0.38
481.342	0.36
481.697	0.36
482.052	0.35
482.407	0.36
482.762	0.34
483.116	0.33
483.471	0.32
483.826	0.31
484.18	0.31
484.535	0.31
484.89	0.3
485.244	0.31
485.598	0.3
485.953	0.29
486.307	0.28
486.661	0.28
487.016	0.27
487.37	0.28
487.724	0.27
488.078	0.27
488.432	0.26
488.786	0.25
489.14	0.24
489.494	0.24
489.848	0.24
490.202	0.23
490.556	0.22
490.91	0.23
491.263	0.22
491.617	0.22
491.971	0.22
492.324	0.21
492.678	0.22
493.031	0.22
493.385	0.21
493.738	0.2
494.091	0.2
494.445	0.2
494.798	0.19
495.151	0.19
495.504	0.19
495.857	0.18
496.21	0.19
496.564	0.17
496.916	0.18
497.269	0.17
497.622	0.18
497.975	0.17
498.328	0.17
498.681	0.17
499.033	0.17
499.386	0.17
499.739	0.16
500.091	0.15
500.444	0.16
500.796	0.16
501.149	0.15
501.501	0.15
501.854	0.15
502.206	0.15
502.558	0.15
502.91	0.15
503.263	0.14
503.615	0.14
503.967	0.14
504.319	0.14
504.671	0.13
505.023	0.14
505.375	0.13
505.726	0.13
506.078	0.13
506.43	0.12
506.782	0.13
507.133	0.13
507.485	0.13
507.837	0.14
508.188	0.13
508.54	0.13
508.891	0.13
509.243	0.12
509.594	0.13
509.945	0.13
510.296	0.12
510.648	0.13
510.999	0.11
511.35	0.12
511.701	0.11
512.052	0.12
512.403	0.12
512.754	0.11
513.105	0.11
513.456	0.11
513.807	0.11
514.157	0.12
514.508	0.12
514.859	0.11
515.209	0.11
515.56	0.12
515.91	0.11
516.261	0.12
516.611	0.11
516.962	0.12
517.312	0.11
517.662	0.11
518.013	0.11
518.363	0.11
518.713	0.11
519.063	0.11
519.413	0.11
519.763	0.11
520.113	0.11
520.463	0.11
520.813	0.11
521.163	0.12
521.512	0.11
521.862	0.11
522.212	0.11
522.562	0.11
522.911	0.11
523.261	0.11
523.61	0.11
523.96	0.11
524.309	0.11
524.658	0.11
525.008	0.11
525.357	0.11
525.706	0.11
526.056	0.11
526.405	0.11
526.754	0.11
527.103	0.1
527.452	0.11
527.801	0.11
528.15	0.11
528.499	0.11
528.847	0.1
529.196	0.11
529.545	0.11
529.893	0.12
530.242	0.12
530.591	0.12
530.939	0.12
531.288	0.12
531.636	0.11
531.985	0.12
532.333	0.11
532.681	0.11
533.029	0.11
533.378	0.11
533.726	0.11
534.074	0.12
534.422	0.11
534.77	0.12
535.118	0.11
535.466	0.11
535.814	0.11
536.162	0.11
536.509	0.11
536.857	0.11
537.205	0.12
537.552	0.11
537.9	0.11
538.248	0.11
538.595	0.12
538.943	0.12
539.29	0.11
539.637	0.11
539.985	0.12
540.332	0.11
540.679	0.11
541.026	0.11
541.373	0.11
541.721	0.1
542.068	0.11
542.415	0.11
542.762	0.1
543.108	0.1
543.455	0.09
543.802	0.11
544.149	0.1
544.496	0.1
544.842	0.1
545.189	0.09
545.535	0.1
545.882	0.1
546.228	0.1
546.575	0.09
546.921	0.1
547.267	0.1
547.614	0.1
547.96	0.1
548.306	0.1
548.652	0.1
548.998	0.11
549.344	0.1
549.69	0.11
550.036	0.1
550.382	0.11
550.728	0.1
551.074	0.11
551.42	0.11
551.765	0.11
552.111	0.11
552.457	0.12
552.802	0.1
553.148	0.1
553.493	0.1
553.839	0.11
554.184	0.11
554.529	0.1
554.875	0.11
555.22	0.12
555.565	0.11
555.91	0.11
556.255	0.12
556.6	0.11
556.945	0.1
557.29	0.1
557.635	0.11
557.98	0.11
558.325	0.12
558.67	0.11
559.014	0.11
559.359	0.11
559.704	0.1
560.048	0.11
560.393	0.12
560.737	0.11
561.082	0.11
561.426	0.1
561.77	0.11
562.115	0.11
562.459	0.1
562.803	0.11
563.147	0.1
563.491	0.1
563.835	0.11
564.179	0.11
564.523	0.1
564.867	0.1
565.211	0.1
565.555	0.1
565.899	0.11
566.242	0.11
566.586	0.1
566.93	0.11
567.273	0.11
567.617	0.1
567.96	0.11
568.304	0.11
568.647	0.11
568.99	0.11
569.334	0.12
569.677	0.11
570.02	0.11
570.363	0.11
570.706	0.11
571.049	0.11
571.392	0.11
571.735	0.1
572.078	0.12
572.421	0.12
572.764	0.12
573.106	0.11
573.449	0.1
573.792	0.1
574.134	0.11
574.477	0.11
574.819	0.1
575.162	0.1
575.504	0.1
575.847	0.11
576.189	0.1
576.531	0.1
576.873	0.1
577.215	0.11
577.558	0.11
577.9	0.1
578.242	0.11
578.584	0.11
578.926	0.11
579.267	0.11
579.609	0.11
579.951	0.1
580.293	0.1
580.634	0.11
580.976	0.11
581.318	0.11
581.659	0.1
582.001	0.11
582.342	0.11
582.683	0.11
583.025	0.1
583.366	0.1
583.707	0.1
584.049	0.1
584.39	0.11
584.731	0.11
585.072	0.1
585.413	0.12
585.754	0.1
586.095	0.11
586.435	0.1
586.776	0.11
587.117	0.11
587.458	0.1
587.798	0.11
588.139	0.11
588.48	0.1
588.82	0.1
589.161	0.1
589.501	0.1
589.841	0.1
590.182	0.1
590.522	0.1
590.862	0.1
591.202	0.11
591.542	0.1
591.882	0.11
592.222	0.11
592.562	0.1
592.902	0.1
593.242	0.1
593.582	0.11
593.922	0.1
594.261	0.1
594.601	0.1
594.941	0.1
595.28	0.1
595.62	0.1
595.959	0.1
596.299	0.1
596.638	0.1
596.977	0.11
597.317	0.11
597.656	0.11
597.995	0.11
598.334	0.11
598.673	0.11
599.012	0.1
599.351	0.11
599.69	0.1
600.029	0.11
600.368	0.11
600.707	0.11
601.046	0.11
601.384	0.11
601.723	0.11
602.061	0.1
602.4	0.11
602.738	0.11
603.077	0.11
603.415	0.1
603.754	0.11
604.092	0.1
604.43	0.1
604.768	0.1
605.107	0.1
605.445	0.09
605.783	0.1
606.121	0.1
606.459	0.1
606.796	0.1
607.134	0.1
607.472	0.1
607.81	0.09
608.148	0.1
608.485	0.1
608.823	0.1
609.16	0.1
609.498	0.1
609.835	0.1
610.173	0.1
610.51	0.1
610.847	0.1
611.185	0.1
611.522	0.11
611.859	0.11
612.196	0.11
612.533	0.12
612.87	0.12
613.207	0.11
613.544	0.12
613.881	0.12
614.217	0.11
614.554	0.11
614.891	0.11
615.228	0.11
615.564	0.11
615.901	0.11
616.237	0.11
616.574	0.11
616.91	0.11
617.246	0.11
617.583	0.11
617.919	0.11
618.255	0.11
618.591	0.11
618.927	0.11
619.263	0.12
619.599	0.11
619.935	0.12
620.271	0.11
620.607	0.11
620.943	0.11
621.279	0.11
621.614	0.11
621.95	0.11
622.286	0.1
622.621	0.1
622.957	0.11
623.292	0.1
623.627	0.11
623.963	0.1
624.298	0.1
624.633	0.1
624.968	0.1
625.304	0.1
625.639	0.1
625.974	0.09
626.309	0.09
626.644	0.09
626.979	0.11
627.313	0.1
627.648	0.1
627.983	0.1
628.318	0.09
628.652	0.1
628.987	0.09
629.321	0.09
629.656	0.09
629.99	0.09
630.325	0.1
630.659	0.09
630.993	0.09
631.327	0.09
631.662	0.09
631.996	0.09
632.33	0.1
632.664	0.1
632.998	0.09
633.332	0.09
633.666	0.09
633.999	0.09
634.333	0.09
634.667	0.09
635.001	0.09
635.334	0.09
635.668	0.09
636.001	0.09
636.335	0.09
636.668	0.1
637.001	0.08
637.335	0.08
637.668	0.09
638.001	0.09
638.334	0.09
638.668	0.09
639.001	0.09
639.334	0.08
639.667	0.08
639.999	0.08
640.332	0.09
640.665	0.07
640.998	0.08
641.331	0.08
641.663	0.08
641.996	0.08
642.328	0.09
642.661	0.09
642.993	0.08
643.326	0.08
643.658	0.08
643.99	0.08
644.323	0.08
644.655	0.09
644.987	0.08
645.319	0.08
645.651	0.08
645.983	0.08
646.315	0.08
646.647	0.08
646.979	0.09
647.31	0.09
647.642	0.08
647.974	0.08
648.305	0.09
648.637	0.09
648.968	0.09
649.3	0.09
649.631	0.09
649.963	0.08
650.294	0.09
650.625	0.08
650.957	0.09
651.288	0.09
651.619	0.1
651.95	0.09
652.281	0.09
652.612	0.09
652.943	0.09
653.274	0.1
653.604	0.09
653.935	0.09
654.266	0.09
654.596	0.09
654.927	0.09
655.258	0.09
655.588	0.1
655.918	0.09
656.249	0.07
656.579	0.09
656.909	0.09
657.24	0.09
657.57	0.1
657.9	0.09
658.23	0.1
658.56	0.1
658.89	0.1
659.22	0.09
659.55	0.1
659.88	0.1
660.209	0.09
660.539	0.11
660.869	0.1
661.198	0.1
661.528	0.09
661.857	0.09
662.187	0.1
662.516	0.1
662.846	0.09
663.175	0.09
663.504	0.09
663.833	0.09
664.163	0.1
664.492	0.09
664.821	0.08
665.15	0.09
665.479	0.09
665.807	0.09
666.136	0.09
666.465	0.09
666.794	0.08
667.122	0.08
667.451	0.08
667.78	0.09
668.108	0.09
668.437	0.08
668.765	0.09
669.093	0.1
669.422	0.09
669.75	0.09
670.078	0.08
670.406	0.09
670.734	0.09
671.062	0.09
671.39	0.09
671.718	0.08
672.046	0.08
672.374	0.08
672.702	0.08
673.029	0.08
673.357	0.09
673.685	0.09
674.012	0.08
674.34	0.08
674.667	0.09
674.995	0.09
675.322	0.09
675.649	0.08
675.977	0.09
676.304	0.08
676.631	0.08
676.958	0.08
677.285	0.08
677.612	0.08
677.939	0.09
678.266	0.09
678.593	0.09
678.92	0.09
679.246	0.09
679.573	0.08
679.9	0.08
680.226	0.08
680.553	0.08
680.879	0.08
681.206	0.09
681.532	0.08
681.858	0.08
682.184	0.08
682.511	0.09
682.837	0.08
683.163	0.08
683.489	0.07
683.815	0.08
684.141	0.07
684.467	0.08
684.793	0.07
685.118	0.07
685.444	0.08
685.77	0.07
686.095	0.08
686.421	0.08
686.746	0.08
687.072	0.08
687.397	0.08
687.723	0.08
688.048	0.08
688.373	0.08
688.698	0.08
689.023	0.09
689.349	0.08
689.674	0.08
689.999	0.08
690.323	0.07
690.648	0.07
690.973	0.07
691.298	0.08
691.623	0.08
691.947	0.08
692.272	0.08
692.596	0.08
692.921	0.08
693.245	0.08
693.57	0.08
693.894	0.08
694.218	0.07
694.543	0.08
694.867	0.07
695.191	0.07
695.515	0.08
695.839	0.07
696.163	0.07
696.487	0.08
696.811	0.07
697.135	0.07
697.458	0.08
697.782	0.07
698.106	0.07
698.429	0.07
698.753	0.07
699.076	0.08
699.4	0.07
699.723	0.07
700.046	0.07
700.37	0.08
700.693	0.07
701.016	0.07
701.339	0.08
701.662	0.08
701.985	0.08
702.308	0.07
702.631	0.07
702.954	0.08
703.277	0.07
703.599	0.07
703.922	0.07
704.245	0.07
704.567	0.06
704.89	0.07
705.212	0.07
705.535	0.06
705.857	0.06
706.179	0.06
706.502	0.06
706.824	0.06
707.146	0.06
707.468	0.06
707.79	0.06
708.112	0.07
708.434	0.07
708.756	0.06
709.078	0.07
709.399	0.06
709.721	0.06
710.043	0.07
710.364	0.08
710.686	0.07
711.007	0.07
711.329	0.07
711.65	0.07
711.972	0.07
712.293	0.07
712.614	0.07
712.935	0.07
713.256	0.07
713.577	0.07
713.898	0.07
714.219	0.06
714.54	0.06
714.861	0.06
715.182	0.06
715.503	0.07
715.823	0.06
716.144	0.07
716.464	0.05
716.785	0.06
717.105	0.06
717.426	0.06
717.746	0.06
718.066	0.05
718.387	0.06
718.707	0.05
719.027	0.06
719.347	0.05
719.667	0.06
719.987	0.05
720.307	0.04
720.627	0.05
720.947	0.05
721.266	0.05
721.586	0.05
721.906	0.06
722.225	0.05
722.545	0.05
722.864	0.05
723.184	0.06
723.503	0.05
723.823	0.06
724.142	0.05
724.461	0.05
724.78	0.05
725.099	0.05
725.418	0.05
725.737	0.05
726.056	0.05
726.375	0.05
726.694	0.05
727.013	0.05
727.331	0.04
727.65	0.05
727.969	0.05
728.287	0.06
728.606	0.05
728.924	0.05
729.242	0.06
729.561	0.05
729.879	0.05
730.197	0.06
730.515	0.05
730.834	0.05
731.152	0.05
731.47	0.05
731.788	0.05
732.105	0.05
732.423	0.05
732.741	0.05
733.059	0.06
733.376	0.05
733.694	0.05
734.012	0.05
734.329	0.06
734.647	0.05
734.964	0.05
735.281	0.05
735.599	0.06
735.916	0.06
736.233	0.05
736.55	0.06
736.867	0.06
737.184	0.06
737.501	0.06
737.818	0.06
738.135	0.06
738.452	0.05
738.768	0.05
739.085	0.06
739.402	0.04
739.718	0.06
740.035	0.06
740.351	0.06
740.668	0.06
740.984	0.05
741.3	0.06
741.617	0.06
741.933	0.05
742.249	0.05
742.565	0.06
742.881	0.06
743.197	0.05
743.513	0.06
743.829	0.05
744.144	0.05
744.46	0.04
744.776	0.06
745.091	0.05
745.407	0.04
745.722	0.04
746.038	0.04
746.353	0.04
746.669	0.05
746.984	0.04
747.299	0.04
747.614	0.05
747.93	0.05
748.245	0.05
748.56	0.05
748.875	0.05
749.189	0.05
749.504	0.05
749.819	0.05
750.134	0.05
750.448	0.05
750.763	0.05
751.078	0.05
751.392	0.05
751.707	0.06
752.021	0.06
752.335	0.07
752.65	0.06
752.964	0.05
753.278	0.05
753.592	0.05
753.906	0.05
754.22	0.05
754.534	0.05
754.848	0.05
755.162	0.05
755.476	0.06
755.789	0.06
756.103	0.05
756.417	0.06
756.73	0.06
757.044	0.06
757.357	0.05
757.671	0.06
757.984	0.06
758.297	0.06
758.61	0.06
758.924	0.05
759.237	0.05
759.55	0.05
759.863	0.05
760.176	0.05
760.488	0.05
760.801	0.05
761.114	0.05
761.427	0.05
761.739	0.05
762.052	0.05
762.365	0.05
762.677	0.05
762.99	0.04
763.302	0.05
763.614	0.05
763.926	0.05
764.239	0.04
764.551	0.05
764.863	0.05
765.175	0.05
765.487	0.05
765.799	0.04
766.111	0.04
766.423	0.04
766.734	0.05
767.046	0.04
767.358	0.04
767.669	0.04
767.981	0.04
768.292	0.04
768.604	0.05
768.915	0.04
769.226	0.04
769.537	0.04
769.849	0.04
770.16	0.04
770.471	0.04
770.782	0.04
771.093	0.04
771.404	0.03
771.715	0.04
772.025	0.04
772.336	0.03
772.647	0.04
772.957	0.04
773.268	0.04
773.578	0.05
773.889	0.05
774.199	0.05
774.51	0.05
774.82	0.04
775.13	0.04
775.44	0.04
775.75	0.04
776.06	0.04
776.37	0.04
776.68	0.05
776.99	0.04
777.3	0.04
777.61	0.05
777.92	0.04
778.229	0.04
778.539	0.05
778.848	0.04
779.158	0.05
779.467	0.05
779.777	0.05
780.086	0.05
780.395	0.04
780.704	0.04
781.013	0.04
781.323	0.03
781.632	0.04
781.941	0.04
782.249	0.05
782.558	0.04
782.867	0.04
783.176	0.03
783.485	0.04
783.793	0.04
784.102	0.04
784.41	0.04
784.719	0.03
785.027	0.03
785.335	0.04
785.644	0.05
785.952	0.03
786.26	0.05
786.568	0.04
786.876	0.03
787.184	0.04
787.492	0.03
787.8	0.04
788.108	0.04
788.416	0.04
788.723	0.04
789.031	0.04
789.338	0.04
789.646	0.03
789.953	0.04
790.261	0.05
790.568	0.04
790.876	0.04
791.183	0.04
791.49	0.05
791.797	0.05
792.104	0.04
792.411	0.04
792.718	0.04
793.025	0.05
793.332	0.04
793.639	0.05
793.945	0.06
794.252	0.05
794.559	0.05
794.865	0.05
795.172	0.05
795.478	0.04
795.784	0.05
796.091	0.05
796.397	0.05
796.703	0.05
797.009	0.07
797.315	0.06
797.622	0.05
797.927	0.05
798.233	0.05
798.539	0.06
798.845	0.05
799.151	0.05
799.456	0.05
799.762	0.05
800.068	0.05
800.373	0.06
800.679	0.04
800.984	0.05
801.289	0.05
801.595	0.05
801.9	0.05
802.205	0.05
802.51	0.05
802.815	0.04
803.12	0.05
803.425	0.05
803.73	0.05
804.035	0.05
804.339	0.04
804.644	0.05
804.949	0.05
805.253	0.05
805.558	0.04
805.862	0.04
806.167	0.04
806.471	0.04
806.775	0.05
807.08	0.04
807.384	0.05
807.688	0.04
807.992	0.04
808.296	0.04
808.6	0.05
808.904	0.05
809.207	0.05
809.511	0.06
809.815	0.05
810.119	0.05
810.422	0.06
810.726	0.07
811.029	0.07
811.332	0.06
811.636	0.06
811.939	0.06
812.242	0.06
812.546	0.06
812.849	0.06
813.152	0.06
813.455	0.06
813.758	0.06
814.06	0.06
814.363	0.06
814.666	0.06
814.969	0.06
815.271	0.06
815.574	0.05
815.877	0.05
816.179	0.05
816.481	0.05
816.784	0.05
817.086	0.05
817.388	0.04
817.69	0.04
817.993	0.04
818.295	0.05
818.597	0.04
818.899	0.04
819.2	0.04
819.502	0.04
819.804	0.04
820.106	0.04
820.407	0.03
820.709	0.04
821.01	0.03
821.312	0.05
821.613	0.03
821.915	0.03
822.216	0.03
822.517	0.03
822.818	0.03
823.119	0.03
823.42	0.04
823.721	0.03
824.022	0.03
824.323	0.03
824.624	0.03
824.925	0.04
825.226	0.04
825.526	0.04
825.827	0.03
826.127	0.03
826.428	0.03
826.728	0.03
827.028	0.03
827.329	0.03
827.629	0.02
827.929	0.03
828.229	0.04
828.529	0.03
828.829	0.04
829.129	0.03
829.429	0.04
829.729	0.04
830.029	0.03
830.328	0.04
830.628	0.02
830.927	0.01
831.227	0.02
831.526	0.03
831.826	0.03
832.125	0.03
832.424	0.02
832.724	0.03
833.023	0.03
833.322	0.03
833.621	0.03
833.92	0.01
834.219	0.01
834.518	0.02
834.816	0
835.115	0.02
835.414	0.02
835.712	0.02
836.011	0.01
836.309	0.02
836.608	0
836.906	0
837.205	-0
837.503	0
837.801	0
838.099	-0
838.397	-0.01
838.695	-0
838.993	-0
839.291	-0.01
839.589	0
839.887	0
840.184	-0.01
840.482	-0.01
840.78	-0.01
841.077	-0.01
841.375	-0.01
841.672	-0.01
841.969	-0.01
842.267	-0.01
842.564	-0.02
842.861	-0
843.158	-0.02
843.455	-0.03
843.752	-0.02
844.049	-0.03
844.346	-0.03
844.643	-0.03
844.94	-0.03
845.236	-0.02
845.533	-0.03
845.83	-0.03
846.126	-0.04
846.423	-0.04
846.719	-0.05
847.015	-0.04
847.312	-0.05
847.608	-0.05
847.904	-0.05
848.2	-0.05
848.496	-0.05
848.792	-0.04
849.088	-0.03
849.384	-0.04
849.68	-0.05
849.975	-0.05
850.271	-0.06
850.567	-0.06
850.862	-0.06
851.158	-0.06
851.453	-0.06
851.748	-0.07
852.044	-0.07
852.339	-0.06
852.634	-0.07
852.929	-0.06
853.224	-0.07
853.519	-0.07
853.814	-0.06
854.109	-0.08
854.404	-0.07
854.699	-0.08
854.994	-0.08
855.288	-0.06
855.583	-0.06
855.877	-0.08
856.172	-0.08
856.466	-0.08
856.76	-0.09
857.055	-0.08
857.349	-0.09
857.643	-0.1
857.937	-0.09
858.231	-0.1
858.525	-0.11
858.819	-0.1
859.113	-0.12
859.407	-0.11
859.701	-0.11
859.994	-0.11
860.288	-0.1
860.581	-0.11
860.875	-0.1
861.168	-0.11
861.462	-0.11
861.755	-0.11
862.048	-0.1
862.341	-0.11
862.634	-0.1
862.928	-0.11
863.221	-0.1
863.513	-0.11
863.806	-0.12
864.099	-0.12
864.392	-0.13
864.685	-0.11
864.977	-0.12
865.27	-0.12
865.562	-0.12
865.855	-0.11
866.147	-0.13
866.44	-0.12
866.732	-0.13
867.024	-0.12
867.316	-0.13
867.608	-0.13
867.9	-0.13
868.192	-0.14
868.484	-0.13
868.776	-0.14
869.068	-0.13
869.359	-0.13
869.651	-0.13
869.943	-0.16
870.234	-0.14
870.526	-0.16
870.817	-0.15
871.108	-0.13
871.4	-0.15
871.691	-0.16
871.982	-0.17
872.273	-0.18
872.564	-0.16
872.855	-0.16
873.146	-0.17
873.437	-0.16
873.728	-0.18
874.019	-0.17
874.309	-0.17
874.6	-0.16
874.89	-0.18
875.181	-0.18
875.471	-0.16
875.762	-0.16
876.052	-0.17
876.342	-0.16
876.632	-0.16
876.922	-0.17
877.213	-0.17
877.503	-0.19
877.792	-0.17
878.082	-0.17
878.372	-0.16
878.662	-0.17
878.952	-0.16
879.241	-0.16
879.531	-0.16
879.82	-0.17
880.11	-0.17
880.399	-0.17
880.688	-0.16
880.978	-0.16
881.267	-0.16
