Data from 12-12-AQDScycling_Absorbance__604__00604.txt Node

Date: Tue Dec 12 13:27:44 EST 2023
User: kyuminlee
Spectrometer: FLMS00943
Trigger mode: 0
Integration Time (sec): 1.000000E-1
Scans to average: 1
Electric dark correction enabled: true
Nonlinearity correction enabled: false
Boxcar width: 0
XAxis mode: Wavelengths
Number of Pixels in Spectrum: 2048
>>>>>Begin Spectral Data<<<<<
179.651	-0
180.037	-0
180.424	-0
180.81	-0.2
181.197	0.26
181.583	-0
181.97	-0.58
182.356	-0
182.743	-0
183.129	0.92
183.515	0.38
183.901	-2.32
184.288	0.05
184.674	-0
185.06	0.29
185.446	-0.27
185.832	-1.52
186.218	0.2
186.604	-0.03
186.99	-0
187.376	-0
187.762	-0.29
188.148	0.3
188.534	-0.21
188.92	0.17
189.305	0.09
189.691	0.16
190.077	0.17
190.463	0.04
190.848	0.07
191.234	0.04
191.619	0.07
192.005	0.1
192.391	0.14
192.776	0.16
193.161	0.03
193.547	0.32
193.932	0
194.318	0.05
194.703	0.12
195.088	0.05
195.473	0.3
195.859	0.26
196.244	0.19
196.629	0.16
197.014	0.07
197.399	0.09
197.784	0.12
198.169	0.04
198.554	0.19
198.939	0.23
199.324	0.17
199.709	0.04
200.094	0.23
200.478	0.08
200.863	0.11
201.248	0.16
201.633	0.14
202.017	0.1
202.402	0.1
202.787	0.2
203.171	0.09
203.556	0.23
203.94	0.24
204.325	0.21
204.709	0.24
205.093	0.05
205.478	0.17
205.862	-0.04
206.246	0.12
206.631	0.12
207.015	0.14
207.399	0.12
207.783	0.27
208.167	0.18
208.551	0.27
208.935	0.26
209.319	0.11
209.703	0.16
210.087	0.25
210.471	0.05
210.855	0.2
211.239	0.22
211.623	0.23
212.007	0.13
212.39	0.36
212.774	0.17
213.158	0.09
213.541	0.21
213.925	0.21
214.309	0.31
214.692	0.21
215.076	0.3
215.459	0.07
215.842	0.18
216.226	0.22
216.609	0.22
216.993	0.17
217.376	0.41
217.759	0.29
218.142	0.3
218.525	0.5
218.909	0.37
219.292	0.33
219.675	0.6
220.058	0.41
220.441	0.63
220.824	0.41
221.207	0.53
221.59	0.5
221.973	0.57
222.355	0.54
222.738	0.73
223.121	0.56
223.504	0.59
223.886	0.78
224.269	0.59
224.652	0.62
225.034	0.71
225.417	0.66
225.799	0.83
226.182	0.79
226.564	0.85
226.947	0.79
227.329	0.81
227.711	0.92
228.094	0.85
228.476	0.92
228.858	0.9
229.24	0.79
229.623	0.76
230.005	0.76
230.387	0.9
230.769	0.77
231.151	1.07
231.533	0.92
231.915	0.92
232.297	1.01
232.679	0.95
233.061	0.99
233.442	0.96
233.824	1.05
234.206	1.1
234.588	0.97
234.969	0.98
235.351	0.95
235.733	1.01
236.114	1.01
236.496	1.09
236.877	1.26
237.259	0.93
237.64	1.1
238.022	1.03
238.403	0.98
238.784	1.04
239.165	1.05
239.547	1.04
239.928	1.16
240.309	1.14
240.69	1.1
241.071	1.15
241.452	1.15
241.834	1.03
242.215	1.1
242.595	0.96
242.976	1.06
243.357	1.16
243.738	1.2
244.119	1.17
244.5	1.03
244.881	1.22
245.261	1.16
245.642	1.19
246.023	1.18
246.403	1.15
246.784	1.21
247.164	1.31
247.545	1.33
247.925	1.34
248.306	1.13
248.686	1.39
249.067	1.28
249.447	1.41
249.827	1.44
250.207	1.35
250.588	1.3
250.968	1.51
251.348	1.33
251.728	1.43
252.108	1.34
252.488	1.32
252.868	1.27
253.248	1.3
253.628	1.36
254.008	1.62
254.388	1.4
254.768	1.27
255.147	1.42
255.527	1.45
255.907	1.37
256.287	1.33
256.666	1.51
257.046	1.5
257.425	1.38
257.805	1.29
258.184	1.38
258.564	1.32
258.943	1.29
259.323	1.43
259.702	1.46
260.081	1.36
260.461	1.42
260.84	1.45
261.219	1.68
261.598	1.51
261.977	1.5
262.356	1.35
262.736	1.47
263.115	1.55
263.494	1.51
263.873	1.49
264.251	1.55
264.63	1.59
265.009	1.43
265.388	1.38
265.767	1.29
266.145	1.44
266.524	1.4
266.903	1.42
267.281	1.39
267.66	1.52
268.039	1.5
268.417	1.57
268.796	1.39
269.174	1.34
269.552	1.37
269.931	1.47
270.309	1.38
270.687	1.53
271.066	1.62
271.444	1.32
271.822	1.59
272.2	1.56
272.578	1.39
272.956	1.44
273.334	1.41
273.712	1.52
274.09	1.37
274.468	1.29
274.846	1.32
275.224	1.35
275.602	1.36
275.98	1.56
276.357	1.38
276.735	1.36
277.113	1.47
277.49	1.27
277.868	1.34
278.246	1.31
278.623	1.33
279.001	1.29
279.378	1.34
279.756	1.47
280.133	1.49
280.51	1.52
280.888	1.55
281.265	1.36
281.642	1.42
282.019	1.6
282.396	1.54
282.773	1.58
283.151	1.58
283.528	1.45
283.905	1.36
284.282	1.51
284.659	1.52
285.035	1.3
285.412	1.29
285.789	1.56
286.166	1.46
286.543	1.68
286.919	1.48
287.296	1.35
287.673	1.63
288.049	1.63
288.426	1.58
288.802	1.44
289.179	1.37
289.555	1.57
289.932	1.39
290.308	1.35
290.684	1.34
291.061	1.4
291.437	1.36
291.813	1.5
292.189	1.26
292.565	1.42
292.942	1.4
293.318	1.33
293.694	1.39
294.07	1.36
294.446	1.39
294.822	1.65
295.197	1.37
295.573	1.4
295.949	1.36
296.325	1.44
296.701	1.43
297.076	1.44
297.452	1.41
297.828	1.43
298.203	1.52
298.579	1.25
298.954	1.37
299.33	1.3
299.705	1.29
300.081	1.34
300.456	1.28
300.831	1.25
301.206	1.18
301.582	1.27
301.957	1.23
302.332	1.3
302.707	1.18
303.082	1.16
303.457	1.14
303.832	1.11
304.207	1.05
304.582	1.03
304.957	1.03
305.332	1.08
305.707	1.03
306.082	1
306.456	1.01
306.831	0.96
307.206	0.96
307.58	0.91
307.955	0.88
308.33	0.9
308.704	0.89
309.079	0.88
309.453	0.88
309.828	0.85
310.202	0.86
310.576	0.81
310.951	0.82
311.325	0.78
311.699	0.77
312.073	0.78
312.447	0.76
312.821	0.73
313.196	0.76
313.57	0.68
313.944	0.68
314.317	0.68
314.691	0.7
315.065	0.69
315.439	0.71
315.813	0.68
316.187	0.66
316.56	0.66
316.934	0.65
317.308	0.64
317.681	0.63
318.055	0.62
318.428	0.59
318.802	0.62
319.175	0.62
319.549	0.65
319.922	0.59
320.295	0.6
320.669	0.63
321.042	0.58
321.415	0.62
321.788	0.57
322.162	0.56
322.535	0.6
322.908	0.58
323.281	0.57
323.654	0.57
324.027	0.56
324.4	0.59
324.773	0.55
325.145	0.59
325.518	0.56
325.891	0.57
326.264	0.57
326.636	0.56
327.009	0.58
327.382	0.57
327.754	0.59
328.127	0.61
328.499	0.59
328.872	0.61
329.244	0.59
329.616	0.6
329.989	0.6
330.361	0.62
330.733	0.6
331.106	0.61
331.478	0.63
331.85	0.6
332.222	0.62
332.594	0.64
332.966	0.64
333.338	0.67
333.71	0.65
334.082	0.69
334.454	0.68
334.826	0.7
335.197	0.69
335.569	0.7
335.941	0.72
336.312	0.74
336.684	0.72
337.056	0.73
337.427	0.77
337.799	0.81
338.17	0.77
338.542	0.77
338.913	0.82
339.284	0.8
339.656	0.8
340.027	0.81
340.398	0.84
340.769	0.83
341.141	0.9
341.512	0.87
341.883	0.89
342.254	0.86
342.625	0.88
342.996	0.88
343.367	0.92
343.738	0.9
344.108	0.92
344.479	1.03
344.85	0.98
345.221	0.97
345.591	1
345.962	1.01
346.333	1.04
346.703	0.96
347.074	1.04
347.444	1.06
347.815	1.05
348.185	1.11
348.556	1.11
348.926	1.06
349.296	1.16
349.666	1.2
350.037	1.1
350.407	1.16
350.777	1.16
351.147	1.23
351.517	1.23
351.887	1.14
352.257	1.24
352.627	1.33
352.997	1.26
353.367	1.2
353.737	1.4
354.106	1.35
354.476	1.27
354.846	1.36
355.216	1.49
355.585	1.4
355.955	1.35
356.324	1.55
356.694	1.42
357.063	1.33
357.433	1.32
357.802	1.48
358.171	1.46
358.541	1.44
358.91	1.58
359.279	1.55
359.648	1.39
360.017	1.58
360.387	1.64
360.756	1.41
361.125	1.58
361.494	1.62
361.863	1.53
362.231	1.47
362.6	1.54
362.969	1.65
363.338	1.44
363.707	1.58
364.075	1.63
364.444	1.39
364.813	1.49
365.181	1.63
365.55	1.49
365.918	1.6
366.287	1.85
366.655	1.67
367.024	1.7
367.392	1.68
367.76	1.6
368.128	1.5
368.497	1.49
368.865	1.55
369.233	1.52
369.601	1.53
369.969	1.48
370.337	1.64
370.705	1.52
371.073	1.49
371.441	1.56
371.809	1.47
372.177	1.54
372.544	1.62
372.912	1.56
373.28	1.6
373.647	1.55
374.015	1.62
374.383	1.6
374.75	1.6
375.118	1.61
375.485	1.61
375.853	1.63
376.22	1.47
376.587	1.45
376.955	1.58
377.322	1.7
377.689	1.47
378.056	1.43
378.423	1.46
378.79	1.55
379.157	1.54
379.524	1.66
379.891	1.4
380.258	1.41
380.625	1.39
380.992	1.61
381.359	1.66
381.726	1.63
382.092	1.49
382.459	1.57
382.826	1.47
383.192	1.6
383.559	1.61
383.925	1.46
384.292	1.56
384.658	1.65
385.025	1.58
385.391	1.69
385.757	1.56
386.123	1.42
386.49	1.51
386.856	1.56
387.222	1.61
387.588	1.54
387.954	1.71
388.32	1.64
388.686	1.57
389.052	1.56
389.418	1.58
389.784	1.53
390.15	1.68
390.515	1.37
390.881	1.61
391.247	1.39
391.613	1.6
391.978	1.48
392.344	1.66
392.709	1.51
393.075	1.56
393.44	1.63
393.806	1.49
394.171	1.46
394.536	1.52
394.902	1.54
395.267	1.44
395.632	1.54
395.997	1.42
396.362	1.52
396.727	1.51
397.092	1.54
397.457	1.51
397.822	1.46
398.187	1.58
398.552	1.68
398.917	1.57
399.282	1.54
399.646	1.47
400.011	1.57
400.376	1.53
400.74	1.51
401.105	1.53
401.47	1.52
401.834	1.52
402.199	1.6
402.563	1.57
402.927	1.42
403.292	1.6
403.656	1.58
404.02	1.7
404.384	1.65
404.749	1.6
405.113	1.63
405.477	1.73
405.841	1.73
406.205	1.62
406.569	1.72
406.933	1.51
407.296	1.56
407.66	1.55
408.024	1.49
408.388	1.69
408.752	1.52
409.115	1.69
409.479	1.56
409.842	1.47
410.206	1.69
410.569	1.59
410.933	1.63
411.296	1.62
411.66	1.72
412.023	1.38
412.386	1.56
412.749	1.45
413.113	1.5
413.476	1.43
413.839	1.45
414.202	1.57
414.565	1.41
414.928	1.41
415.291	1.34
415.654	1.48
416.017	1.64
416.38	1.53
416.742	1.55
417.105	1.41
417.468	1.4
417.83	1.51
418.193	1.57
418.556	1.43
418.918	1.48
419.281	1.44
419.643	1.63
420.005	1.58
420.368	1.6
420.73	1.58
421.092	1.59
421.455	1.7
421.817	1.4
422.179	1.59
422.541	1.61
422.903	1.77
423.265	1.69
423.627	1.6
423.989	1.54
424.351	1.46
424.713	1.61
425.075	1.52
425.436	1.6
425.798	1.54
426.16	1.62
426.521	1.49
426.883	1.64
427.245	1.67
427.606	1.36
427.967	1.4
428.329	1.53
428.69	1.54
429.052	1.38
429.413	1.6
429.774	1.63
430.135	1.64
430.497	1.55
430.858	1.53
431.219	1.59
431.58	1.49
431.941	1.49
432.302	1.42
432.663	1.58
433.024	1.73
433.384	1.56
433.745	1.51
434.106	1.74
434.467	1.51
434.827	1.59
435.188	1.61
435.548	1.56
435.909	1.42
436.269	1.58
436.63	1.5
436.99	1.55
437.351	1.48
437.711	1.54
438.071	1.49
438.431	1.44
438.792	1.45
439.152	1.49
439.512	1.47
439.872	1.5
440.232	1.45
440.592	1.66
440.952	1.58
441.312	1.45
441.671	1.48
442.031	1.47
442.391	1.45
442.751	1.45
443.11	1.57
443.47	1.49
443.83	1.45
444.189	1.46
444.549	1.43
444.908	1.46
445.267	1.42
445.627	1.45
445.986	1.42
446.345	1.49
446.705	1.41
447.064	1.41
447.423	1.38
447.782	1.37
448.141	1.46
448.5	1.33
448.859	1.36
449.218	1.4
449.577	1.4
449.936	1.36
450.295	1.36
450.653	1.38
451.012	1.39
451.371	1.36
451.729	1.31
452.088	1.35
452.447	1.36
452.805	1.34
453.163	1.31
453.522	1.31
453.88	1.31
454.239	1.31
454.597	1.28
454.955	1.27
455.313	1.25
455.671	1.23
456.029	1.27
456.388	1.21
456.746	1.21
457.104	1.21
457.461	1.18
457.819	1.18
458.177	1.15
458.535	1.12
458.893	1.12
459.25	1.11
459.608	1.11
459.966	1.09
460.323	1.06
460.681	1.02
461.038	1.05
461.396	1.01
461.753	1
462.111	1
462.468	0.97
462.825	0.95
463.182	0.95
463.54	0.93
463.897	0.94
464.254	0.92
464.611	0.88
464.968	0.88
465.325	0.9
465.682	0.88
466.039	0.85
466.395	0.84
466.752	0.83
467.109	0.82
467.466	0.8
467.822	0.8
468.179	0.78
468.535	0.77
468.892	0.75
469.248	0.72
469.605	0.71
469.961	0.71
470.318	0.71
470.674	0.69
471.03	0.67
471.386	0.66
471.743	0.67
472.099	0.64
472.455	0.63
472.811	0.63
473.167	0.62
473.523	0.6
473.879	0.58
474.235	0.58
474.59	0.56
474.946	0.56
475.302	0.54
475.657	0.54
476.013	0.52
476.369	0.51
476.724	0.51
477.08	0.5
477.435	0.48
477.791	0.48
478.146	0.47
478.501	0.46
478.857	0.46
479.212	0.44
479.567	0.43
479.922	0.42
480.277	0.41
480.632	0.4
480.987	0.4
481.342	0.39
481.697	0.38
482.052	0.37
482.407	0.36
482.762	0.36
483.116	0.34
483.471	0.34
483.826	0.34
484.18	0.33
484.535	0.32
484.89	0.31
485.244	0.31
485.598	0.3
485.953	0.29
486.307	0.28
486.661	0.28
487.016	0.27
487.37	0.27
487.724	0.26
488.078	0.26
488.432	0.25
488.786	0.25
489.14	0.23
489.494	0.23
489.848	0.22
490.202	0.22
490.556	0.21
490.91	0.22
491.263	0.21
491.617	0.2
491.971	0.2
492.324	0.2
492.678	0.19
493.031	0.19
493.385	0.19
493.738	0.19
494.091	0.18
494.445	0.17
494.798	0.17
495.151	0.17
495.504	0.17
495.857	0.16
496.21	0.15
496.564	0.15
496.916	0.15
497.269	0.13
497.622	0.14
497.975	0.13
498.328	0.13
498.681	0.13
499.033	0.13
499.386	0.12
499.739	0.12
500.091	0.12
500.444	0.11
500.796	0.11
501.149	0.12
501.501	0.11
501.854	0.11
502.206	0.11
502.558	0.1
502.91	0.1
503.263	0.1
503.615	0.1
503.967	0.1
504.319	0.1
504.671	0.09
505.023	0.09
505.375	0.08
505.726	0.09
506.078	0.09
506.43	0.09
506.782	0.08
507.133	0.08
507.485	0.08
507.837	0.08
508.188	0.08
508.54	0.08
508.891	0.08
509.243	0.08
509.594	0.08
509.945	0.07
510.296	0.06
510.648	0.07
510.999	0.06
511.35	0.07
511.701	0.06
512.052	0.06
512.403	0.06
512.754	0.06
513.105	0.06
513.456	0.06
513.807	0.06
514.157	0.06
514.508	0.06
514.859	0.05
515.209	0.06
515.56	0.05
515.91	0.06
516.261	0.06
516.611	0.05
516.962	0.06
517.312	0.05
517.662	0.06
518.013	0.06
518.363	0.06
518.713	0.06
519.063	0.06
519.413	0.06
519.763	0.05
520.113	0.06
520.463	0.05
520.813	0.05
521.163	0.05
521.512	0.05
521.862	0.05
522.212	0.05
522.562	0.05
522.911	0.05
523.261	0.05
523.61	0.05
523.96	0.05
524.309	0.05
524.658	0.05
525.008	0.04
525.357	0.04
525.706	0.05
526.056	0.04
526.405	0.05
526.754	0.04
527.103	0.04
527.452	0.04
527.801	0.05
528.15	0.05
528.499	0.04
528.847	0.04
529.196	0.05
529.545	0.05
529.893	0.05
530.242	0.04
530.591	0.05
530.939	0.05
531.288	0.05
531.636	0.05
531.985	0.05
532.333	0.05
532.681	0.05
533.029	0.05
533.378	0.05
533.726	0.05
534.074	0.06
534.422	0.04
534.77	0.05
535.118	0.05
535.466	0.04
535.814	0.04
536.162	0.05
536.509	0.05
536.857	0.05
537.205	0.05
537.552	0.05
537.9	0.04
538.248	0.04
538.595	0.04
538.943	0.04
539.29	0.05
539.637	0.04
539.985	0.04
540.332	0.04
540.679	0.04
541.026	0.04
541.373	0.04
541.721	0.03
542.068	0.04
542.415	0.04
542.762	0.04
543.108	0.03
543.455	0.03
543.802	0.03
544.149	0.03
544.496	0.04
544.842	0.03
545.189	0.02
545.535	0.02
545.882	0.03
546.228	0.02
546.575	0.02
546.921	0.02
547.267	0.02
547.614	0.03
547.96	0.03
548.306	0.03
548.652	0.03
548.998	0.04
549.344	0.03
549.69	0.03
550.036	0.03
550.382	0.03
550.728	0.03
551.074	0.04
551.42	0.03
551.765	0.03
552.111	0.04
552.457	0.04
552.802	0.03
553.148	0.03
553.493	0.03
553.839	0.03
554.184	0.03
554.529	0.03
554.875	0.04
555.22	0.04
555.565	0.04
555.91	0.02
556.255	0.04
556.6	0.04
556.945	0.03
557.29	0.04
557.635	0.04
557.98	0.04
558.325	0.04
558.67	0.03
559.014	0.04
559.359	0.03
559.704	0.04
560.048	0.02
560.393	0.03
560.737	0.02
561.082	0.03
561.426	0.02
561.77	0.04
562.115	0.03
562.459	0.03
562.803	0.04
563.147	0.02
563.491	0.03
563.835	0.04
564.179	0.03
564.523	0.03
564.867	0.03
565.211	0.03
565.555	0.03
565.899	0.04
566.242	0.03
566.586	0.03
566.93	0.03
567.273	0.04
567.617	0.03
567.96	0.04
568.304	0.04
568.647	0.03
568.99	0.03
569.334	0.04
569.677	0.04
570.02	0.03
570.363	0.04
570.706	0.04
571.049	0.04
571.392	0.04
571.735	0.03
572.078	0.04
572.421	0.05
572.764	0.04
573.106	0.03
573.449	0.03
573.792	0.03
574.134	0.04
574.477	0.04
574.819	0.04
575.162	0.03
575.504	0.03
575.847	0.04
576.189	0.03
576.531	0.03
576.873	0.04
577.215	0.04
577.558	0.04
577.9	0.03
578.242	0.03
578.584	0.03
578.926	0.03
579.267	0.03
579.609	0.03
579.951	0.03
580.293	0.04
580.634	0.04
580.976	0.03
581.318	0.03
581.659	0.03
582.001	0.03
582.342	0.03
582.683	0.04
583.025	0.02
583.366	0.03
583.707	0.03
584.049	0.03
584.39	0.02
584.731	0.02
585.072	0.02
585.413	0.04
585.754	0.03
586.095	0.03
586.435	0.03
586.776	0.04
587.117	0.03
587.458	0.03
587.798	0.03
588.139	0.03
588.48	0.03
588.82	0.03
589.161	0.03
589.501	0.02
589.841	0.03
590.182	0.03
590.522	0.02
590.862	0.03
591.202	0.03
591.542	0.03
591.882	0.03
592.222	0.03
592.562	0.03
592.902	0.03
593.242	0.02
593.582	0.04
593.922	0.03
594.261	0.03
594.601	0.03
594.941	0.03
595.28	0.03
595.62	0.03
595.959	0.03
596.299	0.02
596.638	0.03
596.977	0.03
597.317	0.04
597.656	0.03
597.995	0.03
598.334	0.04
598.673	0.04
599.012	0.03
599.351	0.04
599.69	0.03
600.029	0.05
600.368	0.04
600.707	0.04
601.046	0.03
601.384	0.04
601.723	0.04
602.061	0.03
602.4	0.03
602.738	0.04
603.077	0.04
603.415	0.04
603.754	0.04
604.092	0.03
604.43	0.03
604.768	0.04
605.107	0.04
605.445	0.03
605.783	0.03
606.121	0.03
606.459	0.03
606.796	0.04
607.134	0.03
607.472	0.03
607.81	0.04
608.148	0.03
608.485	0.03
608.823	0.03
609.16	0.03
609.498	0.03
609.835	0.03
610.173	0.03
610.51	0.04
610.847	0.03
611.185	0.03
611.522	0.03
611.859	0.04
612.196	0.04
612.533	0.04
612.87	0.04
613.207	0.04
613.544	0.04
613.881	0.05
614.217	0.04
614.554	0.04
614.891	0.04
615.228	0.04
615.564	0.04
615.901	0.05
616.237	0.04
616.574	0.04
616.91	0.04
617.246	0.04
617.583	0.04
617.919	0.05
618.255	0.05
618.591	0.04
618.927	0.04
619.263	0.05
619.599	0.04
619.935	0.04
620.271	0.05
620.607	0.04
620.943	0.04
621.279	0.05
621.614	0.04
621.95	0.04
622.286	0.04
622.621	0.04
622.957	0.05
623.292	0.04
623.627	0.04
623.963	0.04
624.298	0.05
624.633	0.03
624.968	0.04
625.304	0.04
625.639	0.03
625.974	0.04
626.309	0.03
626.644	0.04
626.979	0.04
627.313	0.04
627.648	0.03
627.983	0.04
628.318	0.04
628.652	0.03
628.987	0.03
629.321	0.04
629.656	0.03
629.99	0.02
630.325	0.03
630.659	0.04
630.993	0.02
631.327	0.03
631.662	0.02
631.996	0.02
632.33	0.03
632.664	0.03
632.998	0.03
633.332	0.03
633.666	0.03
633.999	0.04
634.333	0.03
634.667	0.03
635.001	0.03
635.334	0.03
635.668	0.03
636.001	0.03
636.335	0.03
636.668	0.03
637.001	0.02
637.335	0.03
637.668	0.03
638.001	0.03
638.334	0.03
638.668	0.03
639.001	0.03
639.334	0.03
639.667	0.03
639.999	0.03
640.332	0.03
640.665	0.03
640.998	0.03
641.331	0.04
641.663	0.02
641.996	0.03
642.328	0.04
642.661	0.03
642.993	0.03
643.326	0.03
643.658	0.03
643.99	0.03
644.323	0.03
644.655	0.03
644.987	0.03
645.319	0.03
645.651	0.03
645.983	0.03
646.315	0.02
646.647	0.03
646.979	0.04
647.31	0.04
647.642	0.03
647.974	0.03
648.305	0.04
648.637	0.03
648.968	0.04
649.3	0.04
649.631	0.04
649.963	0.03
650.294	0.04
650.625	0.03
650.957	0.04
651.288	0.04
651.619	0.04
651.95	0.04
652.281	0.04
652.612	0.04
652.943	0.04
653.274	0.05
653.604	0.04
653.935	0.03
654.266	0.04
654.596	0.04
654.927	0.04
655.258	0.04
655.588	0.04
655.918	0.04
656.249	0.02
656.579	0.04
656.909	0.03
657.24	0.03
657.57	0.04
657.9	0.04
658.23	0.04
658.56	0.04
658.89	0.04
659.22	0.04
659.55	0.04
659.88	0.04
660.209	0.04
660.539	0.05
660.869	0.04
661.198	0.04
661.528	0.04
661.857	0.04
662.187	0.04
662.516	0.04
662.846	0.04
663.175	0.03
663.504	0.04
663.833	0.03
664.163	0.04
664.492	0.03
664.821	0.04
665.15	0.04
665.479	0.04
665.807	0.04
666.136	0.04
666.465	0.04
666.794	0.04
667.122	0.04
667.451	0.04
667.78	0.04
668.108	0.04
668.437	0.04
668.765	0.04
669.093	0.04
669.422	0.04
669.75	0.04
670.078	0.04
670.406	0.04
670.734	0.05
671.062	0.04
671.39	0.04
671.718	0.04
672.046	0.04
672.374	0.04
672.702	0.04
673.029	0.03
673.357	0.04
673.685	0.04
674.012	0.03
674.34	0.04
674.667	0.05
674.995	0.04
675.322	0.04
675.649	0.04
675.977	0.04
676.304	0.04
676.631	0.04
676.958	0.04
677.285	0.04
677.612	0.04
677.939	0.04
678.266	0.04
678.593	0.04
678.92	0.04
679.246	0.03
679.573	0.04
679.9	0.04
680.226	0.03
680.553	0.03
680.879	0.04
681.206	0.04
681.532	0.04
681.858	0.04
682.184	0.04
682.511	0.04
682.837	0.04
683.163	0.05
683.489	0.04
683.815	0.04
684.141	0.04
684.467	0.04
684.793	0.03
685.118	0.03
685.444	0.04
685.77	0.03
686.095	0.04
686.421	0.04
686.746	0.04
687.072	0.04
687.397	0.03
687.723	0.04
688.048	0.04
688.373	0.04
688.698	0.04
689.023	0.04
689.349	0.04
689.674	0.05
689.999	0.04
690.323	0.03
690.648	0.03
690.973	0.03
691.298	0.04
691.623	0.03
691.947	0.04
692.272	0.04
692.596	0.04
692.921	0.04
693.245	0.04
693.57	0.05
693.894	0.05
694.218	0.04
694.543	0.04
694.867	0.04
695.191	0.04
695.515	0.05
695.839	0.04
696.163	0.05
696.487	0.05
696.811	0.04
697.135	0.05
697.458	0.04
697.782	0.05
698.106	0.04
698.429	0.04
698.753	0.04
699.076	0.04
699.4	0.04
699.723	0.04
700.046	0.04
700.37	0.04
700.693	0.04
701.016	0.04
701.339	0.04
701.662	0.05
701.985	0.04
702.308	0.04
702.631	0.05
702.954	0.04
703.277	0.04
703.599	0.05
703.922	0.04
704.245	0.04
704.567	0.04
704.89	0.03
705.212	0.03
705.535	0.03
705.857	0.04
706.179	0.03
706.502	0.03
706.824	0.03
707.146	0.04
707.468	0.04
707.79	0.04
708.112	0.04
708.434	0.05
708.756	0.04
709.078	0.04
709.399	0.04
709.721	0.04
710.043	0.04
710.364	0.05
710.686	0.05
711.007	0.04
711.329	0.05
711.65	0.04
711.972	0.05
712.293	0.05
712.614	0.05
712.935	0.04
713.256	0.04
713.577	0.05
713.898	0.04
714.219	0.04
714.54	0.04
714.861	0.04
715.182	0.04
715.503	0.04
715.823	0.03
716.144	0.04
716.464	0.03
716.785	0.03
717.105	0.03
717.426	0.04
717.746	0.04
718.066	0.03
718.387	0.03
718.707	0.03
719.027	0.04
719.347	0.02
719.667	0.04
719.987	0.03
720.307	0.03
720.627	0.03
720.947	0.03
721.266	0.04
721.586	0.03
721.906	0.03
722.225	0.03
722.545	0.03
722.864	0.03
723.184	0.04
723.503	0.04
723.823	0.04
724.142	0.03
724.461	0.04
724.78	0.03
725.099	0.04
725.418	0.04
725.737	0.03
726.056	0.04
726.375	0.04
726.694	0.04
727.013	0.04
727.331	0.03
727.65	0.03
727.969	0.03
728.287	0.04
728.606	0.03
728.924	0.03
729.242	0.04
729.561	0.03
729.879	0.03
730.197	0.04
730.515	0.03
730.834	0.04
731.152	0.04
731.47	0.03
731.788	0.04
732.105	0.04
732.423	0.05
732.741	0.04
733.059	0.03
733.376	0.04
733.694	0.03
734.012	0.04
734.329	0.04
734.647	0.04
734.964	0.05
735.281	0.05
735.599	0.05
735.916	0.05
736.233	0.04
736.55	0.04
736.867	0.05
737.184	0.05
737.501	0.04
737.818	0.04
738.135	0.04
738.452	0.04
738.768	0.04
739.085	0.04
739.402	0.03
739.718	0.04
740.035	0.04
740.351	0.04
740.668	0.04
740.984	0.04
741.3	0.04
741.617	0.04
741.933	0.04
742.249	0.05
742.565	0.04
742.881	0.04
743.197	0.04
743.513	0.04
743.829	0.04
744.144	0.03
744.46	0.03
744.776	0.04
745.091	0.04
745.407	0.04
745.722	0.03
746.038	0.03
746.353	0.02
746.669	0.03
746.984	0.02
747.299	0.03
747.614	0.03
747.93	0.04
748.245	0.02
748.56	0.03
748.875	0.03
749.189	0.03
749.504	0.03
749.819	0.03
750.134	0.03
750.448	0.03
750.763	0.03
751.078	0.02
751.392	0.03
751.707	0.04
752.021	0.04
752.335	0.04
752.65	0.04
752.964	0.04
753.278	0.04
753.592	0.05
753.906	0.04
754.22	0.05
754.534	0.04
754.848	0.04
755.162	0.04
755.476	0.03
755.789	0.05
756.103	0.04
756.417	0.05
756.73	0.05
757.044	0.05
757.357	0.04
757.671	0.05
757.984	0.04
758.297	0.04
758.61	0.05
758.924	0.05
759.237	0.04
759.55	0.04
759.863	0.04
760.176	0.04
760.488	0.04
760.801	0.03
761.114	0.04
761.427	0.04
761.739	0.05
762.052	0.03
762.365	0.03
762.677	0.04
762.99	0.04
763.302	0.03
763.614	0.04
763.926	0.04
764.239	0.03
764.551	0.03
764.863	0.04
765.175	0.04
765.487	0.04
765.799	0.03
766.111	0.03
766.423	0.04
766.734	0.03
767.046	0.03
767.358	0.04
767.669	0.04
767.981	0.04
768.292	0.05
768.604	0.04
768.915	0.04
769.226	0.03
769.537	0.03
769.849	0.04
770.16	0.03
770.471	0.03
770.782	0.03
771.093	0.04
771.404	0.03
771.715	0.03
772.025	0.04
772.336	0.03
772.647	0.03
772.957	0.03
773.268	0.03
773.578	0.04
773.889	0.04
774.199	0.05
774.51	0.04
774.82	0.04
775.13	0.04
775.44	0.04
775.75	0.04
776.06	0.04
776.37	0.03
776.68	0.05
776.99	0.05
777.3	0.04
777.61	0.04
777.92	0.04
778.229	0.04
778.539	0.04
778.848	0.04
779.158	0.04
779.467	0.04
779.777	0.03
780.086	0.04
780.395	0.03
780.704	0.04
781.013	0.03
781.323	0.03
781.632	0.03
781.941	0.03
782.249	0.04
782.558	0.03
782.867	0.04
783.176	0.02
783.485	0.02
783.793	0.03
784.102	0.03
784.41	0.03
784.719	0.03
785.027	0.03
785.335	0.03
785.644	0.03
785.952	0.03
786.26	0.04
786.568	0.03
786.876	0.03
787.184	0.04
787.492	0.03
787.8	0.03
788.108	0.03
788.416	0.03
788.723	0.04
789.031	0.03
789.338	0.03
789.646	0.02
789.953	0.04
790.261	0.04
790.568	0.04
790.876	0.04
791.183	0.04
791.49	0.03
791.797	0.04
792.104	0.03
792.411	0.04
792.718	0.03
793.025	0.03
793.332	0.04
793.639	0.05
793.945	0.05
794.252	0.05
794.559	0.04
794.865	0.04
795.172	0.05
795.478	0.04
795.784	0.05
796.091	0.05
796.397	0.04
796.703	0.06
797.009	0.05
797.315	0.05
797.622	0.05
797.927	0.05
798.233	0.04
798.539	0.05
798.845	0.05
799.151	0.05
799.456	0.06
799.762	0.05
800.068	0.05
800.373	0.06
800.679	0.05
800.984	0.05
801.289	0.05
801.595	0.06
801.9	0.05
802.205	0.05
802.51	0.05
802.815	0.05
803.12	0.05
803.425	0.05
803.73	0.05
804.035	0.05
804.339	0.05
804.644	0.04
804.949	0.05
805.253	0.04
805.558	0.05
805.862	0.04
806.167	0.04
806.471	0.04
806.775	0.05
807.08	0.05
807.384	0.04
807.688	0.04
807.992	0.04
808.296	0.04
808.6	0.04
808.904	0.05
809.207	0.04
809.511	0.06
809.815	0.06
810.119	0.05
810.422	0.05
810.726	0.06
811.029	0.06
811.332	0.05
811.636	0.06
811.939	0.05
812.242	0.06
812.546	0.06
812.849	0.06
813.152	0.06
813.455	0.05
813.758	0.06
814.06	0.06
814.363	0.06
814.666	0.07
814.969	0.06
815.271	0.06
815.574	0.05
815.877	0.06
816.179	0.05
816.481	0.05
816.784	0.06
817.086	0.05
817.388	0.04
817.69	0.04
817.993	0.05
818.295	0.05
818.597	0.04
818.899	0.04
819.2	0.03
819.502	0.04
819.804	0.04
820.106	0.04
820.407	0.03
820.709	0.04
821.01	0.04
821.312	0.04
821.613	0.03
821.915	0.04
822.216	0.04
822.517	0.03
822.818	0.03
823.119	0.03
823.42	0.04
823.721	0.03
824.022	0.03
824.323	0.03
824.624	0.03
824.925	0.04
825.226	0.04
825.526	0.03
825.827	0.04
826.127	0.03
826.428	0.03
826.728	0.03
827.028	0.03
827.329	0.03
827.629	0.03
827.929	0.03
828.229	0.03
828.529	0.04
828.829	0.03
829.129	0.04
829.429	0.04
829.729	0.03
830.029	0.03
830.328	0.03
830.628	0.03
830.927	0.02
831.227	0.03
831.526	0.03
831.826	0.03
832.125	0.02
832.424	0.02
832.724	0.03
833.023	0.02
833.322	0.03
833.621	0.02
833.92	0.02
834.219	0.02
834.518	0.02
834.816	0.01
835.115	0.01
835.414	0.02
835.712	0.01
836.011	0.01
836.309	0
836.608	0.01
836.906	0.01
837.205	-0
837.503	0
837.801	0.01
838.099	-0
838.397	-0.01
838.695	-0
838.993	-0
839.291	-0.01
839.589	-0.01
839.887	-0.02
840.184	-0.01
840.482	-0.02
840.78	-0.01
841.077	-0.02
841.375	-0.01
841.672	-0.01
841.969	-0.01
842.267	-0.01
842.564	-0.01
842.861	-0.01
843.158	-0.02
843.455	-0.03
843.752	-0.03
844.049	-0.03
844.346	-0.03
844.643	-0.02
844.94	-0.03
845.236	-0.02
845.533	-0.02
845.83	-0.02
846.126	-0.03
846.423	-0.03
846.719	-0.05
847.015	-0.03
847.312	-0.03
847.608	-0.03
847.904	-0.04
848.2	-0.04
848.496	-0.05
848.792	-0.03
849.088	-0.03
849.384	-0.04
849.68	-0.05
849.975	-0.04
850.271	-0.05
850.567	-0.05
850.862	-0.05
851.158	-0.05
851.453	-0.05
851.748	-0.06
852.044	-0.05
852.339	-0.04
852.634	-0.06
852.929	-0.05
853.224	-0.06
853.519	-0.05
853.814	-0.05
854.109	-0.06
854.404	-0.06
854.699	-0.07
854.994	-0.06
855.288	-0.06
855.583	-0.06
855.877	-0.07
856.172	-0.06
856.466	-0.07
856.76	-0.08
857.055	-0.07
857.349	-0.08
857.643	-0.08
857.937	-0.09
858.231	-0.09
858.525	-0.1
858.819	-0.1
859.113	-0.1
859.407	-0.11
859.701	-0.1
859.994	-0.11
860.288	-0.1
860.581	-0.1
860.875	-0.11
861.168	-0.11
861.462	-0.1
861.755	-0.1
862.048	-0.11
862.341	-0.11
862.634	-0.11
862.928	-0.11
863.221	-0.11
863.513	-0.11
863.806	-0.11
864.099	-0.12
864.392	-0.12
864.685	-0.1
864.977	-0.11
865.27	-0.11
865.562	-0.11
865.855	-0.12
866.147	-0.13
866.44	-0.12
866.732	-0.13
867.024	-0.13
867.316	-0.12
867.608	-0.13
867.9	-0.13
868.192	-0.13
868.484	-0.13
868.776	-0.14
869.068	-0.13
869.359	-0.13
869.651	-0.13
869.943	-0.15
870.234	-0.14
870.526	-0.14
870.817	-0.14
871.108	-0.13
871.4	-0.15
871.691	-0.14
871.982	-0.16
872.273	-0.16
872.564	-0.16
872.855	-0.15
873.146	-0.16
873.437	-0.16
873.728	-0.16
874.019	-0.16
874.309	-0.16
874.6	-0.16
874.89	-0.16
875.181	-0.17
875.471	-0.16
875.762	-0.17
876.052	-0.16
876.342	-0.16
876.632	-0.18
876.922	-0.18
877.213	-0.17
877.503	-0.18
877.792	-0.17
878.082	-0.17
878.372	-0.14
878.662	-0.18
878.952	-0.17
879.241	-0.16
879.531	-0.17
879.82	-0.16
880.11	-0.17
880.399	-0.16
880.688	-0.15
880.978	-0.15
881.267	-0.15
