Data from 12-12-AQDScycling_Absorbance__90__00090.txt Node

Date: Tue Dec 12 11:19:14 EST 2023
User: kyuminlee
Spectrometer: FLMS00943
Trigger mode: 0
Integration Time (sec): 1.000000E-1
Scans to average: 1
Electric dark correction enabled: true
Nonlinearity correction enabled: false
Boxcar width: 0
XAxis mode: Wavelengths
Number of Pixels in Spectrum: 2048
>>>>>Begin Spectral Data<<<<<
179.651	-0
180.037	-0
180.424	-0
180.81	-0
181.197	0.24
181.583	-0
181.97	-0.45
182.356	-0
182.743	-0.99
183.129	0.01
183.515	0.27
183.901	-2.34
184.288	0.11
184.674	0.35
185.06	-1.29
185.446	-0.24
185.832	-1.21
186.218	0.09
186.604	0.7
186.99	-0
187.376	-0
187.762	-0.16
188.148	0.79
188.534	0.11
188.92	0.19
189.305	0.05
189.691	0.11
190.077	0.1
190.463	0.25
190.848	0.13
191.234	0.08
191.619	0.17
192.005	-0.01
192.391	0.08
192.776	0.01
193.161	0.4
193.547	0.21
193.932	0.2
194.318	0.08
194.703	0.25
195.088	0.15
195.473	0.25
195.859	0.14
196.244	0.23
196.629	0.08
197.014	0.11
197.399	0.08
197.784	0.11
198.169	0.35
198.554	0.26
198.939	0.12
199.324	0.15
199.709	0.12
200.094	0.14
200.478	0.11
200.863	0.12
201.248	0.13
201.633	0.13
202.017	0.1
202.402	0.2
202.787	0.08
203.171	0.15
203.556	0.29
203.94	0.18
204.325	0.18
204.709	0.21
205.093	0.07
205.478	0.06
205.862	0.03
206.246	0.18
206.631	0.12
207.015	0.12
207.399	0.24
207.783	0.26
208.167	0.15
208.551	0.23
208.935	0.13
209.319	0.16
209.703	0.21
210.087	0.13
210.471	0.12
210.855	0.05
211.239	0.16
211.623	0.28
212.007	0.42
212.39	0.39
212.774	0.15
213.158	0.12
213.541	0.31
213.925	0.22
214.309	0.29
214.692	0.38
215.076	0.37
215.459	0.17
215.842	0.19
216.226	0.25
216.609	0.5
216.993	0.18
217.376	0.56
217.759	0.37
218.142	0.26
218.525	0.88
218.909	0.7
219.292	0.39
219.675	0.59
220.058	0.46
220.441	0.5
220.824	0.52
221.207	0.51
221.59	0.49
221.973	0.47
222.355	0.61
222.738	0.67
223.121	0.58
223.504	0.53
223.886	0.57
224.269	0.71
224.652	0.59
225.034	0.78
225.417	0.76
225.799	0.71
226.182	0.9
226.564	0.82
226.947	0.69
227.329	0.87
227.711	0.93
228.094	1.03
228.476	0.98
228.858	0.85
229.24	0.86
229.623	0.86
230.005	0.91
230.387	0.84
230.769	0.81
231.151	0.98
231.533	0.88
231.915	0.96
232.297	1.08
232.679	0.95
233.061	1.03
233.442	1.1
233.824	1.07
234.206	1.21
234.588	1.08
234.969	1
235.351	0.95
235.733	1.08
236.114	1.37
236.496	1.24
236.877	1.16
237.259	1
237.64	1.09
238.022	1.11
238.403	0.97
238.784	1.04
239.165	0.91
239.547	1.07
239.928	1.11
240.309	1.03
240.69	1.09
241.071	1.33
241.452	1.08
241.834	1.15
242.215	1.05
242.595	1.04
242.976	1.05
243.357	1.01
243.738	1.1
244.119	1.28
244.5	1.24
244.881	1.62
245.261	1.24
245.642	1.15
246.023	1.23
246.403	1.18
246.784	1.22
247.164	1.26
247.545	1.32
247.925	1.21
248.306	1.35
248.686	1.4
249.067	1.23
249.447	1.38
249.827	1.53
250.207	1.31
250.588	1.25
250.968	1.39
251.348	1.28
251.728	1.39
252.108	1.31
252.488	1.37
252.868	1.39
253.248	1.37
253.628	1.39
254.008	1.43
254.388	1.48
254.768	1.36
255.147	1.51
255.527	1.28
255.907	1.4
256.287	1.52
256.666	1.46
257.046	1.38
257.425	1.48
257.805	1.28
258.184	1.3
258.564	1.52
258.943	1.32
259.323	1.52
259.702	1.38
260.081	1.4
260.461	1.46
260.84	1.47
261.219	1.94
261.598	1.73
261.977	1.44
262.356	1.45
262.736	1.35
263.115	1.51
263.494	1.43
263.873	1.46
264.251	1.45
264.63	1.6
265.009	1.35
265.388	1.56
265.767	1.28
266.145	1.47
266.524	1.36
266.903	1.41
267.281	1.35
267.66	1.4
268.039	1.53
268.417	1.32
268.796	1.42
269.174	1.51
269.552	1.23
269.931	1.57
270.309	1.49
270.687	1.73
271.066	1.75
271.444	1.52
271.822	1.56
272.2	1.42
272.578	1.42
272.956	1.41
273.334	1.28
273.712	1.39
274.09	1.4
274.468	1.38
274.846	1.36
275.224	1.4
275.602	1.41
275.98	1.68
276.357	1.43
276.735	1.44
277.113	1.41
277.49	1.43
277.868	1.28
278.246	1.49
278.623	1.39
279.001	1.36
279.378	1.35
279.756	1.47
280.133	1.57
280.51	1.35
280.888	1.55
281.265	1.3
281.642	1.5
282.019	1.46
282.396	1.63
282.773	1.57
283.151	1.54
283.528	1.4
283.905	1.47
284.282	1.45
284.659	1.48
285.035	1.28
285.412	1.42
285.789	1.51
286.166	1.53
286.543	1.45
286.919	1.44
287.296	1.43
287.673	1.55
288.049	1.51
288.426	1.61
288.802	1.46
289.179	1.5
289.555	1.62
289.932	1.42
290.308	1.46
290.684	1.41
291.061	1.32
291.437	1.53
291.813	1.37
292.189	1.36
292.565	1.36
292.942	1.32
293.318	1.55
293.694	1.43
294.07	1.45
294.446	1.35
294.822	1.67
295.197	1.41
295.573	1.38
295.949	1.45
296.325	1.41
296.701	1.45
297.076	1.67
297.452	1.51
297.828	1.44
298.203	1.52
298.579	1.42
298.954	1.37
299.33	1.33
299.705	1.37
300.081	1.35
300.456	1.48
300.831	1.33
301.206	1.34
301.582	1.33
301.957	1.37
302.332	1.41
302.707	1.27
303.082	1.32
303.457	1.25
303.832	1.33
304.207	1.23
304.582	1.3
304.957	1.23
305.332	1.27
305.707	1.22
306.082	1.16
306.456	1.24
306.831	1.08
307.206	1.13
307.58	1.12
307.955	1.08
308.33	1.17
308.704	1.19
309.079	1.07
309.453	1.12
309.828	1.07
310.202	1
310.576	1.01
310.951	1.03
311.325	1.03
311.699	1.07
312.073	1.02
312.447	1.02
312.821	0.96
313.196	1.04
313.57	0.96
313.944	0.97
314.317	0.93
314.691	1.02
315.065	0.98
315.439	1.02
315.813	1.02
316.187	0.93
316.56	1.04
316.934	1
317.308	0.94
317.681	0.97
318.055	0.95
318.428	0.96
318.802	0.99
319.175	1
319.549	0.93
319.922	0.94
320.295	0.93
320.669	0.97
321.042	0.98
321.415	0.99
321.788	0.94
322.162	0.92
322.535	0.91
322.908	0.93
323.281	0.95
323.654	0.96
324.027	0.95
324.4	0.96
324.773	0.95
325.145	0.97
325.518	0.92
325.891	0.91
326.264	0.96
326.636	0.93
327.009	0.93
327.382	0.95
327.754	0.95
328.127	0.97
328.499	0.95
328.872	0.93
329.244	0.97
329.616	0.96
329.989	1
330.361	1
330.733	0.96
331.106	1
331.478	1.02
331.85	1.01
332.222	0.99
332.594	1.01
332.966	1.01
333.338	1.08
333.71	1.03
334.082	1.12
334.454	1.01
334.826	1.03
335.197	1.09
335.569	1.08
335.941	1.06
336.312	1.07
336.684	1.05
337.056	1.11
337.427	1.15
337.799	1.16
338.17	1.09
338.542	1.08
338.913	1.09
339.284	1.09
339.656	1.13
340.027	1.16
340.398	1.11
340.769	1.11
341.141	1.14
341.512	1.11
341.883	1.11
342.254	1.12
342.625	1.26
342.996	1.2
343.367	1.14
343.738	1.2
344.108	1.11
344.479	1.18
344.85	1.16
345.221	1.16
345.591	1.11
345.962	1.19
346.333	1.15
346.703	1.13
347.074	1.19
347.444	1.09
347.815	1.22
348.185	1.18
348.556	1.17
348.926	1.2
349.296	1.17
349.666	1.14
350.037	1.16
350.407	1.21
350.777	1.24
351.147	1.24
351.517	1.22
351.887	1.24
352.257	1.28
352.627	1.26
352.997	1.2
353.367	1.29
353.737	1.32
354.106	1.34
354.476	1.25
354.846	1.33
355.216	1.4
355.585	1.31
355.955	1.44
356.324	1.51
356.694	1.41
357.063	1.57
357.433	1.32
357.802	1.44
358.171	1.55
358.541	1.42
358.91	1.51
359.279	1.54
359.648	1.39
360.017	1.47
360.387	1.51
360.756	1.38
361.125	1.54
361.494	1.6
361.863	1.51
362.231	1.51
362.6	1.56
362.969	1.58
363.338	1.42
363.707	1.74
364.075	1.65
364.444	1.41
364.813	1.53
365.181	1.55
365.55	1.57
365.918	1.57
366.287	1.54
366.655	1.62
367.024	1.7
367.392	1.55
367.76	1.47
368.128	1.52
368.497	1.51
368.865	1.34
369.233	1.5
369.601	1.57
369.969	1.55
370.337	1.52
370.705	1.61
371.073	1.48
371.441	1.59
371.809	1.59
372.177	1.48
372.544	1.65
372.912	1.52
373.28	1.56
373.647	1.61
374.015	1.85
374.383	1.71
374.75	1.65
375.118	1.53
375.485	1.59
375.853	1.56
376.22	1.63
376.587	1.63
376.955	1.59
377.322	1.54
377.689	1.55
378.056	1.45
378.423	1.51
378.79	1.75
379.157	1.62
379.524	1.83
379.891	1.48
380.258	1.61
380.625	1.61
380.992	1.51
381.359	1.68
381.726	1.57
382.092	1.56
382.459	1.71
382.826	1.62
383.192	1.66
383.559	1.63
383.925	1.57
384.292	1.46
384.658	1.9
385.025	1.7
385.391	1.61
385.757	1.55
386.123	1.65
386.49	1.72
386.856	1.57
387.222	1.71
387.588	1.59
387.954	1.77
388.32	1.77
388.686	1.57
389.052	1.56
389.418	1.58
389.784	1.45
390.15	1.74
390.515	1.4
390.881	1.64
391.247	1.49
391.613	1.65
391.978	1.56
392.344	1.66
392.709	1.55
393.075	1.6
393.44	1.73
393.806	1.62
394.171	1.47
394.536	1.61
394.902	1.62
395.267	1.54
395.632	1.72
395.997	1.66
396.362	1.38
396.727	1.52
397.092	1.64
397.457	1.67
397.822	1.52
398.187	1.58
398.552	1.53
398.917	1.82
399.282	1.4
399.646	1.51
400.011	1.7
400.376	1.49
400.74	1.54
401.105	1.62
401.47	1.68
401.834	1.61
402.199	1.53
402.563	1.56
402.927	1.57
403.292	1.75
403.656	1.75
404.02	1.6
404.384	1.7
404.749	1.51
405.113	1.59
405.477	1.74
405.841	1.73
406.205	1.67
406.569	1.57
406.933	1.56
407.296	1.69
407.66	1.63
408.024	1.54
408.388	1.68
408.752	1.53
409.115	1.78
409.479	1.41
409.842	1.51
410.206	1.59
410.569	1.49
410.933	1.68
411.296	1.37
411.66	1.62
412.023	1.47
412.386	1.47
412.749	1.46
413.113	1.51
413.476	1.54
413.839	1.39
414.202	1.57
414.565	1.5
414.928	1.47
415.291	1.48
415.654	1.38
416.017	1.81
416.38	1.45
416.742	1.32
417.105	1.46
417.468	1.46
417.83	1.52
418.193	1.8
418.556	1.47
418.918	1.45
419.281	1.6
419.643	1.54
420.005	1.57
420.368	1.55
420.73	1.58
421.092	1.62
421.455	1.61
421.817	1.4
422.179	1.52
422.541	1.52
422.903	1.71
423.265	1.56
423.627	1.5
423.989	1.54
424.351	1.39
424.713	1.57
425.075	1.55
425.436	1.47
425.798	1.49
426.16	1.65
426.521	1.42
426.883	1.56
427.245	1.53
427.606	1.34
427.967	1.44
428.329	1.43
428.69	1.48
429.052	1.42
429.413	1.55
429.774	1.62
430.135	1.57
430.497	1.55
430.858	1.44
431.219	1.48
431.58	1.49
431.941	1.43
432.302	1.4
432.663	1.56
433.024	1.53
433.384	1.51
433.745	1.44
434.106	1.6
434.467	1.47
434.827	1.45
435.188	1.44
435.548	1.5
435.909	1.45
436.269	1.59
436.63	1.45
436.99	1.45
437.351	1.36
437.711	1.43
438.071	1.37
438.431	1.41
438.792	1.43
439.152	1.4
439.512	1.44
439.872	1.34
440.232	1.4
440.592	1.36
440.952	1.47
441.312	1.3
441.671	1.33
442.031	1.44
442.391	1.37
442.751	1.4
443.11	1.49
443.47	1.36
443.83	1.34
444.189	1.35
444.549	1.32
444.908	1.26
445.267	1.33
445.627	1.33
445.986	1.33
446.345	1.23
446.705	1.33
447.064	1.29
447.423	1.28
447.782	1.3
448.141	1.24
448.5	1.21
448.859	1.22
449.218	1.22
449.577	1.26
449.936	1.23
450.295	1.23
450.653	1.23
451.012	1.21
451.371	1.2
451.729	1.18
452.088	1.19
452.447	1.21
452.805	1.17
453.163	1.16
453.522	1.14
453.88	1.15
454.239	1.13
454.597	1.1
454.955	1.09
455.313	1.1
455.671	1.12
456.029	1.08
456.388	1.06
456.746	1.05
457.104	1.04
457.461	1.03
457.819	1.01
458.177	1.01
458.535	0.98
458.893	1
459.25	0.99
459.608	0.97
459.966	0.94
460.323	0.95
460.681	0.91
461.038	0.92
461.396	0.91
461.753	0.9
462.111	0.88
462.468	0.87
462.825	0.85
463.182	0.82
463.54	0.83
463.897	0.83
464.254	0.83
464.611	0.81
464.968	0.78
465.325	0.78
465.682	0.77
466.039	0.78
466.395	0.74
466.752	0.74
467.109	0.71
467.466	0.71
467.822	0.71
468.179	0.68
468.535	0.69
468.892	0.66
469.248	0.66
469.605	0.65
469.961	0.65
470.318	0.64
470.674	0.64
471.03	0.62
471.386	0.61
471.743	0.59
472.099	0.58
472.455	0.57
472.811	0.56
473.167	0.56
473.523	0.54
473.879	0.54
474.235	0.53
474.59	0.51
474.946	0.5
475.302	0.51
475.657	0.49
476.013	0.48
476.369	0.48
476.724	0.48
477.08	0.47
477.435	0.47
477.791	0.45
478.146	0.45
478.501	0.45
478.857	0.44
479.212	0.42
479.567	0.42
479.922	0.4
480.277	0.39
480.632	0.39
480.987	0.39
481.342	0.38
481.697	0.37
482.052	0.37
482.407	0.36
482.762	0.35
483.116	0.35
483.471	0.34
483.826	0.33
484.18	0.32
484.535	0.32
484.89	0.31
485.244	0.31
485.598	0.31
485.953	0.31
486.307	0.3
486.661	0.3
487.016	0.28
487.37	0.29
487.724	0.28
488.078	0.27
488.432	0.27
488.786	0.27
489.14	0.26
489.494	0.25
489.848	0.25
490.202	0.24
490.556	0.24
490.91	0.24
491.263	0.24
491.617	0.24
491.971	0.23
492.324	0.23
492.678	0.22
493.031	0.22
493.385	0.21
493.738	0.21
494.091	0.21
494.445	0.21
494.798	0.21
495.151	0.2
495.504	0.2
495.857	0.19
496.21	0.2
496.564	0.19
496.916	0.19
497.269	0.19
497.622	0.19
497.975	0.18
498.328	0.19
498.681	0.18
499.033	0.18
499.386	0.18
499.739	0.17
500.091	0.16
500.444	0.16
500.796	0.17
501.149	0.17
501.501	0.16
501.854	0.16
502.206	0.16
502.558	0.17
502.91	0.16
503.263	0.15
503.615	0.16
503.967	0.15
504.319	0.15
504.671	0.15
505.023	0.15
505.375	0.14
505.726	0.15
506.078	0.14
506.43	0.14
506.782	0.13
507.133	0.13
507.485	0.14
507.837	0.14
508.188	0.14
508.54	0.14
508.891	0.14
509.243	0.14
509.594	0.13
509.945	0.13
510.296	0.13
510.648	0.13
510.999	0.12
511.35	0.13
511.701	0.12
512.052	0.13
512.403	0.13
512.754	0.12
513.105	0.12
513.456	0.12
513.807	0.12
514.157	0.12
514.508	0.12
514.859	0.11
515.209	0.11
515.56	0.12
515.91	0.11
516.261	0.12
516.611	0.11
516.962	0.11
517.312	0.11
517.662	0.11
518.013	0.12
518.363	0.12
518.713	0.11
519.063	0.11
519.413	0.11
519.763	0.1
520.113	0.11
520.463	0.11
520.813	0.12
521.163	0.12
521.512	0.11
521.862	0.11
522.212	0.11
522.562	0.12
522.911	0.11
523.261	0.11
523.61	0.11
523.96	0.11
524.309	0.12
524.658	0.11
525.008	0.11
525.357	0.11
525.706	0.12
526.056	0.11
526.405	0.11
526.754	0.11
527.103	0.11
527.452	0.11
527.801	0.11
528.15	0.11
528.499	0.11
528.847	0.11
529.196	0.12
529.545	0.11
529.893	0.12
530.242	0.11
530.591	0.11
530.939	0.12
531.288	0.11
531.636	0.12
531.985	0.11
532.333	0.11
532.681	0.11
533.029	0.1
533.378	0.11
533.726	0.11
534.074	0.12
534.422	0.1
534.77	0.11
535.118	0.11
535.466	0.11
535.814	0.1
536.162	0.11
536.509	0.11
536.857	0.11
537.205	0.11
537.552	0.11
537.9	0.11
538.248	0.1
538.595	0.1
538.943	0.1
539.29	0.1
539.637	0.1
539.985	0.1
540.332	0.1
540.679	0.09
541.026	0.09
541.373	0.1
541.721	0.1
542.068	0.09
542.415	0.1
542.762	0.1
543.108	0.09
543.455	0.09
543.802	0.1
544.149	0.1
544.496	0.1
544.842	0.1
545.189	0.09
545.535	0.1
545.882	0.1
546.228	0.09
546.575	0.1
546.921	0.09
547.267	0.1
547.614	0.09
547.96	0.09
548.306	0.1
548.652	0.1
548.998	0.1
549.344	0.1
549.69	0.1
550.036	0.1
550.382	0.1
550.728	0.09
551.074	0.1
551.42	0.1
551.765	0.1
552.111	0.11
552.457	0.11
552.802	0.1
553.148	0.1
553.493	0.09
553.839	0.1
554.184	0.1
554.529	0.1
554.875	0.1
555.22	0.1
555.565	0.11
555.91	0.1
556.255	0.11
556.6	0.11
556.945	0.1
557.29	0.1
557.635	0.1
557.98	0.11
558.325	0.1
558.67	0.1
559.014	0.1
559.359	0.1
559.704	0.1
560.048	0.09
560.393	0.1
560.737	0.09
561.082	0.1
561.426	0.09
561.77	0.1
562.115	0.08
562.459	0.09
562.803	0.1
563.147	0.1
563.491	0.1
563.835	0.1
564.179	0.1
564.523	0.1
564.867	0.09
565.211	0.1
565.555	0.1
565.899	0.1
566.242	0.1
566.586	0.09
566.93	0.1
567.273	0.11
567.617	0.1
567.96	0.1
568.304	0.1
568.647	0.09
568.99	0.1
569.334	0.11
569.677	0.1
570.02	0.1
570.363	0.1
570.706	0.1
571.049	0.1
571.392	0.11
571.735	0.1
572.078	0.1
572.421	0.11
572.764	0.1
573.106	0.11
573.449	0.1
573.792	0.09
574.134	0.11
574.477	0.11
574.819	0.1
575.162	0.1
575.504	0.1
575.847	0.1
576.189	0.1
576.531	0.09
576.873	0.1
577.215	0.1
577.558	0.1
577.9	0.09
578.242	0.09
578.584	0.1
578.926	0.09
579.267	0.09
579.609	0.09
579.951	0.09
580.293	0.09
580.634	0.1
580.976	0.09
581.318	0.09
581.659	0.08
582.001	0.09
582.342	0.09
582.683	0.1
583.025	0.09
583.366	0.09
583.707	0.09
584.049	0.09
584.39	0.1
584.731	0.09
585.072	0.09
585.413	0.1
585.754	0.1
586.095	0.09
586.435	0.1
586.776	0.09
587.117	0.1
587.458	0.09
587.798	0.1
588.139	0.09
588.48	0.08
588.82	0.09
589.161	0.08
589.501	0.08
589.841	0.09
590.182	0.09
590.522	0.08
590.862	0.09
591.202	0.09
591.542	0.09
591.882	0.09
592.222	0.09
592.562	0.09
592.902	0.08
593.242	0.08
593.582	0.09
593.922	0.09
594.261	0.08
594.601	0.09
594.941	0.09
595.28	0.09
595.62	0.09
595.959	0.09
596.299	0.08
596.638	0.09
596.977	0.09
597.317	0.09
597.656	0.09
597.995	0.08
598.334	0.09
598.673	0.09
599.012	0.08
599.351	0.09
599.69	0.09
600.029	0.1
600.368	0.09
600.707	0.1
601.046	0.09
601.384	0.09
601.723	0.09
602.061	0.08
602.4	0.09
602.738	0.1
603.077	0.08
603.415	0.09
603.754	0.09
604.092	0.09
604.43	0.09
604.768	0.09
605.107	0.1
605.445	0.08
605.783	0.08
606.121	0.08
606.459	0.09
606.796	0.09
607.134	0.09
607.472	0.09
607.81	0.09
608.148	0.09
608.485	0.1
608.823	0.1
609.16	0.09
609.498	0.09
609.835	0.09
610.173	0.09
610.51	0.1
610.847	0.1
611.185	0.1
611.522	0.1
611.859	0.1
612.196	0.1
612.533	0.1
612.87	0.1
613.207	0.11
613.544	0.1
613.881	0.11
614.217	0.1
614.554	0.1
614.891	0.11
615.228	0.1
615.564	0.1
615.901	0.1
616.237	0.1
616.574	0.1
616.91	0.11
617.246	0.1
617.583	0.1
617.919	0.1
618.255	0.1
618.591	0.1
618.927	0.1
619.263	0.1
619.599	0.1
619.935	0.1
620.271	0.1
620.607	0.09
620.943	0.1
621.279	0.11
621.614	0.09
621.95	0.09
622.286	0.1
622.621	0.09
622.957	0.09
623.292	0.09
623.627	0.09
623.963	0.08
624.298	0.09
624.633	0.08
624.968	0.08
625.304	0.09
625.639	0.09
625.974	0.09
626.309	0.09
626.644	0.09
626.979	0.09
627.313	0.09
627.648	0.09
627.983	0.09
628.318	0.08
628.652	0.09
628.987	0.09
629.321	0.09
629.656	0.08
629.99	0.08
630.325	0.09
630.659	0.09
630.993	0.08
631.327	0.09
631.662	0.07
631.996	0.08
632.33	0.08
632.664	0.09
632.998	0.08
633.332	0.08
633.666	0.08
633.999	0.08
634.333	0.08
634.667	0.08
635.001	0.08
635.334	0.07
635.668	0.07
636.001	0.08
636.335	0.07
636.668	0.08
637.001	0.07
637.335	0.08
637.668	0.08
638.001	0.07
638.334	0.08
638.668	0.07
639.001	0.08
639.334	0.07
639.667	0.08
639.999	0.08
640.332	0.08
640.665	0.07
640.998	0.08
641.331	0.09
641.663	0.07
641.996	0.08
642.328	0.08
642.661	0.08
642.993	0.09
643.326	0.09
643.658	0.08
643.99	0.08
644.323	0.08
644.655	0.08
644.987	0.08
645.319	0.08
645.651	0.09
645.983	0.08
646.315	0.08
646.647	0.08
646.979	0.09
647.31	0.09
647.642	0.08
647.974	0.08
648.305	0.09
648.637	0.09
648.968	0.09
649.3	0.09
649.631	0.09
649.963	0.09
650.294	0.09
650.625	0.08
650.957	0.09
651.288	0.09
651.619	0.09
651.95	0.09
652.281	0.08
652.612	0.08
652.943	0.08
653.274	0.09
653.604	0.08
653.935	0.08
654.266	0.08
654.596	0.08
654.927	0.08
655.258	0.08
655.588	0.08
655.918	0.08
656.249	0.07
656.579	0.08
656.909	0.08
657.24	0.08
657.57	0.09
657.9	0.08
658.23	0.08
658.56	0.09
658.89	0.08
659.22	0.08
659.55	0.09
659.88	0.08
660.209	0.08
660.539	0.09
660.869	0.09
661.198	0.09
661.528	0.08
661.857	0.08
662.187	0.08
662.516	0.08
662.846	0.08
663.175	0.08
663.504	0.08
663.833	0.08
664.163	0.08
664.492	0.08
664.821	0.08
665.15	0.08
665.479	0.08
665.807	0.07
666.136	0.08
666.465	0.08
666.794	0.08
667.122	0.08
667.451	0.07
667.78	0.07
668.108	0.08
668.437	0.07
668.765	0.08
669.093	0.08
669.422	0.08
669.75	0.08
670.078	0.07
670.406	0.08
670.734	0.08
671.062	0.08
671.39	0.07
671.718	0.08
672.046	0.08
672.374	0.07
672.702	0.07
673.029	0.07
673.357	0.08
673.685	0.08
674.012	0.07
674.34	0.08
674.667	0.08
674.995	0.08
675.322	0.08
675.649	0.07
675.977	0.07
676.304	0.07
676.631	0.07
676.958	0.07
677.285	0.07
677.612	0.07
677.939	0.07
678.266	0.07
678.593	0.06
678.92	0.07
679.246	0.06
679.573	0.07
679.9	0.06
680.226	0.06
680.553	0.06
680.879	0.06
681.206	0.07
681.532	0.07
681.858	0.06
682.184	0.06
682.511	0.06
682.837	0.06
683.163	0.07
683.489	0.07
683.815	0.06
684.141	0.06
684.467	0.07
684.793	0.06
685.118	0.06
685.444	0.07
685.77	0.07
686.095	0.07
686.421	0.07
686.746	0.06
687.072	0.07
687.397	0.06
687.723	0.07
688.048	0.07
688.373	0.06
688.698	0.06
689.023	0.06
689.349	0.06
689.674	0.07
689.999	0.06
690.323	0.05
690.648	0.05
690.973	0.05
691.298	0.05
691.623	0.05
691.947	0.05
692.272	0.05
692.596	0.06
692.921	0.06
693.245	0.05
693.57	0.05
693.894	0.05
694.218	0.06
694.543	0.05
694.867	0.05
695.191	0.05
695.515	0.05
695.839	0.05
696.163	0.05
696.487	0.05
696.811	0.05
697.135	0.06
697.458	0.06
697.782	0.05
698.106	0.06
698.429	0.06
698.753	0.06
699.076	0.06
699.4	0.06
699.723	0.05
700.046	0.05
700.37	0.05
700.693	0.06
701.016	0.06
701.339	0.06
701.662	0.06
701.985	0.06
702.308	0.05
702.631	0.06
702.954	0.07
703.277	0.06
703.599	0.06
703.922	0.05
704.245	0.05
704.567	0.05
704.89	0.05
705.212	0.05
705.535	0.05
705.857	0.05
706.179	0.05
706.502	0.05
706.824	0.04
707.146	0.05
707.468	0.05
707.79	0.05
708.112	0.05
708.434	0.06
708.756	0.05
709.078	0.05
709.399	0.04
709.721	0.05
710.043	0.05
710.364	0.05
710.686	0.05
711.007	0.05
711.329	0.06
711.65	0.05
711.972	0.05
712.293	0.05
712.614	0.06
712.935	0.05
713.256	0.05
713.577	0.06
713.898	0.05
714.219	0.05
714.54	0.05
714.861	0.05
715.182	0.05
715.503	0.05
715.823	0.05
716.144	0.05
716.464	0.05
716.785	0.05
717.105	0.04
717.426	0.05
717.746	0.05
718.066	0.04
718.387	0.05
718.707	0.04
719.027	0.04
719.347	0.03
719.667	0.05
719.987	0.03
720.307	0.04
720.627	0.04
720.947	0.04
721.266	0.04
721.586	0.03
721.906	0.04
722.225	0.04
722.545	0.03
722.864	0.03
723.184	0.04
723.503	0.04
723.823	0.04
724.142	0.03
724.461	0.04
724.78	0.04
725.099	0.04
725.418	0.04
725.737	0.03
726.056	0.04
726.375	0.04
726.694	0.04
727.013	0.04
727.331	0.03
727.65	0.04
727.969	0.04
728.287	0.04
728.606	0.04
728.924	0.03
729.242	0.03
729.561	0.04
729.879	0.04
730.197	0.04
730.515	0.04
730.834	0.03
731.152	0.03
731.47	0.03
731.788	0.03
732.105	0.03
732.423	0.04
732.741	0.03
733.059	0.03
733.376	0.03
733.694	0.03
734.012	0.02
734.329	0.03
734.647	0.03
734.964	0.04
735.281	0.04
735.599	0.04
735.916	0.05
736.233	0.04
736.55	0.04
736.867	0.04
737.184	0.05
737.501	0.04
737.818	0.05
738.135	0.04
738.452	0.04
738.768	0.04
739.085	0.04
739.402	0.03
739.718	0.04
740.035	0.04
740.351	0.05
740.668	0.04
740.984	0.03
741.3	0.04
741.617	0.05
741.933	0.04
742.249	0.05
742.565	0.04
742.881	0.05
743.197	0.04
743.513	0.04
743.829	0.03
744.144	0.04
744.46	0.04
744.776	0.05
745.091	0.04
745.407	0.04
745.722	0.04
746.038	0.04
746.353	0.03
746.669	0.05
746.984	0.03
747.299	0.04
747.614	0.04
747.93	0.04
748.245	0.04
748.56	0.04
748.875	0.03
749.189	0.03
749.504	0.03
749.819	0.04
750.134	0.04
750.448	0.04
750.763	0.03
751.078	0.03
751.392	0.04
751.707	0.04
752.021	0.05
752.335	0.05
752.65	0.04
752.964	0.05
753.278	0.05
753.592	0.05
753.906	0.03
754.22	0.05
754.534	0.04
754.848	0.04
755.162	0.04
755.476	0.05
755.789	0.04
756.103	0.04
756.417	0.05
756.73	0.04
757.044	0.05
757.357	0.04
757.671	0.04
757.984	0.04
758.297	0.05
758.61	0.05
758.924	0.04
759.237	0.04
759.55	0.04
759.863	0.04
760.176	0.05
760.488	0.04
760.801	0.04
761.114	0.04
761.427	0.03
761.739	0.04
762.052	0.03
762.365	0.03
762.677	0.04
762.99	0.03
763.302	0.04
763.614	0.03
763.926	0.03
764.239	0.03
764.551	0.03
764.863	0.03
765.175	0.04
765.487	0.04
765.799	0.03
766.111	0.03
766.423	0.04
766.734	0.03
767.046	0.03
767.358	0.04
767.669	0.03
767.981	0.03
768.292	0.03
768.604	0.04
768.915	0.03
769.226	0.03
769.537	0.02
769.849	0.04
770.16	0.03
770.471	0.03
770.782	0.03
771.093	0.04
771.404	0.02
771.715	0.02
772.025	0.03
772.336	0.02
772.647	0.02
772.957	0.03
773.268	0.02
773.578	0.02
773.889	0.03
774.199	0.04
774.51	0.03
774.82	0.03
775.13	0.03
775.44	0.03
775.75	0.03
776.06	0.03
776.37	0.03
776.68	0.04
776.99	0.03
777.3	0.03
777.61	0.03
777.92	0.02
778.229	0.02
778.539	0.03
778.848	0.03
779.158	0.04
779.467	0.04
779.777	0.03
780.086	0.03
780.395	0.03
780.704	0.03
781.013	0.02
781.323	0.03
781.632	0.03
781.941	0.03
782.249	0.03
782.558	0.02
782.867	0.03
783.176	0.02
783.485	0.02
783.793	0.02
784.102	0.02
784.41	0.03
784.719	0.02
785.027	0.03
785.335	0.02
785.644	0.03
785.952	0.02
786.26	0.02
786.568	0.02
786.876	0.02
787.184	0.03
787.492	0.03
787.8	0.02
788.108	0.02
788.416	0.02
788.723	0.03
789.031	0.02
789.338	0.02
789.646	0.02
789.953	0.03
790.261	0.03
790.568	0.03
790.876	0.02
791.183	0.03
791.49	0.03
791.797	0.03
792.104	0.03
792.411	0.03
792.718	0.03
793.025	0.04
793.332	0.03
793.639	0.04
793.945	0.04
794.252	0.04
794.559	0.04
794.865	0.04
795.172	0.04
795.478	0.03
795.784	0.03
796.091	0.04
796.397	0.04
796.703	0.03
797.009	0.04
797.315	0.04
797.622	0.04
797.927	0.04
798.233	0.03
798.539	0.04
798.845	0.03
799.151	0.04
799.456	0.04
799.762	0.03
800.068	0.03
800.373	0.04
800.679	0.03
800.984	0.03
801.289	0.03
801.595	0.03
801.9	0.03
802.205	0.02
802.51	0.03
802.815	0.03
803.12	0.03
803.425	0.02
803.73	0.02
804.035	0.03
804.339	0.02
804.644	0.02
804.949	0.03
805.253	0.03
805.558	0.03
805.862	0.02
806.167	0.03
806.471	0.02
806.775	0.03
807.08	0.03
807.384	0.03
807.688	0.03
807.992	0.04
808.296	0.03
808.6	0.03
808.904	0.04
809.207	0.04
809.511	0.04
809.815	0.04
810.119	0.04
810.422	0.04
810.726	0.04
811.029	0.04
811.332	0.04
811.636	0.04
811.939	0.04
812.242	0.04
812.546	0.04
812.849	0.04
813.152	0.05
813.455	0.04
813.758	0.04
814.06	0.04
814.363	0.04
814.666	0.04
814.969	0.04
815.271	0.04
815.574	0.03
815.877	0.03
816.179	0.03
816.481	0.03
816.784	0.03
817.086	0.03
817.388	0.02
817.69	0.03
817.993	0.03
818.295	0.03
818.597	0.03
818.899	0.02
819.2	0.02
819.502	0.02
819.804	0.03
820.106	0.03
820.407	0.03
820.709	0.03
821.01	0.03
821.312	0.04
821.613	0.02
821.915	0.02
822.216	0.03
822.517	0.03
822.818	0.02
823.119	0.03
823.42	0.03
823.721	0.02
824.022	0.02
824.323	0.02
824.624	0.02
824.925	0.03
825.226	0.03
825.526	0.02
825.827	0.02
826.127	0.02
826.428	0.03
826.728	0.02
827.028	0.02
827.329	0.02
827.629	0.01
827.929	0.02
828.229	0.02
828.529	0.02
828.829	0.02
829.129	0.01
829.429	0.02
829.729	0.02
830.029	0.02
830.328	0.02
830.628	0.01
830.927	0.01
831.227	0
831.526	0.01
831.826	0.02
832.125	0.02
832.424	0.01
832.724	0.01
833.023	0.02
833.322	0.02
833.621	0.01
833.92	-0
834.219	0.01
834.518	0.01
834.816	-0
835.115	0.01
835.414	0.01
835.712	0.01
836.011	0
836.309	0
836.608	-0
836.906	-0
837.205	-0.01
837.503	-0.01
837.801	-0.01
838.099	-0.01
838.397	-0.02
838.695	-0.02
838.993	-0.01
839.291	-0.03
839.589	-0.02
839.887	-0.02
840.184	-0.03
840.482	-0.03
840.78	-0.04
841.077	-0.04
841.375	-0.04
841.672	-0.03
841.969	-0.05
842.267	-0.04
842.564	-0.05
842.861	-0.04
843.158	-0.05
843.455	-0.06
843.752	-0.05
844.049	-0.05
844.346	-0.05
844.643	-0.06
844.94	-0.06
845.236	-0.04
845.533	-0.06
845.83	-0.05
846.126	-0.06
846.423	-0.06
846.719	-0.06
847.015	-0.05
847.312	-0.06
847.608	-0.06
847.904	-0.06
848.2	-0.06
848.496	-0.06
848.792	-0.05
849.088	-0.05
849.384	-0.06
849.68	-0.07
849.975	-0.07
850.271	-0.07
850.567	-0.07
850.862	-0.07
851.158	-0.07
851.453	-0.08
851.748	-0.08
852.044	-0.08
852.339	-0.08
852.634	-0.1
852.929	-0.08
853.224	-0.09
853.519	-0.1
853.814	-0.08
854.109	-0.1
854.404	-0.09
854.699	-0.11
854.994	-0.09
855.288	-0.09
855.583	-0.09
855.877	-0.1
856.172	-0.1
856.466	-0.11
856.76	-0.11
857.055	-0.11
857.349	-0.12
857.643	-0.12
857.937	-0.13
858.231	-0.12
858.525	-0.12
858.819	-0.13
859.113	-0.15
859.407	-0.13
859.701	-0.14
859.994	-0.13
860.288	-0.12
860.581	-0.14
860.875	-0.14
861.168	-0.14
861.462	-0.14
861.755	-0.13
862.048	-0.14
862.341	-0.14
862.634	-0.14
862.928	-0.13
863.221	-0.14
863.513	-0.14
863.806	-0.14
864.099	-0.13
864.392	-0.13
864.685	-0.13
864.977	-0.13
865.27	-0.13
865.562	-0.13
865.855	-0.13
866.147	-0.15
866.44	-0.13
866.732	-0.14
867.024	-0.14
867.316	-0.15
867.608	-0.15
867.9	-0.14
868.192	-0.15
868.484	-0.14
868.776	-0.14
869.068	-0.15
869.359	-0.15
869.651	-0.14
869.943	-0.18
870.234	-0.16
870.526	-0.16
870.817	-0.15
871.108	-0.14
871.4	-0.14
871.691	-0.15
871.982	-0.17
872.273	-0.17
872.564	-0.17
872.855	-0.16
873.146	-0.16
873.437	-0.16
873.728	-0.17
874.019	-0.17
874.309	-0.16
874.6	-0.16
874.89	-0.18
875.181	-0.18
875.471	-0.16
875.762	-0.16
876.052	-0.16
876.342	-0.15
876.632	-0.17
876.922	-0.18
877.213	-0.17
877.503	-0.19
877.792	-0.16
878.082	-0.18
878.372	-0.16
878.662	-0.19
878.952	-0.18
879.241	-0.16
879.531	-0.17
879.82	-0.17
880.11	-0.18
880.399	-0.17
880.688	-0.16
880.978	-0.16
881.267	-0.16
