Data from 12-12-AQDScycling_Absorbance__41__00041.txt Node

Date: Tue Dec 12 11:06:59 EST 2023
User: kyuminlee
Spectrometer: FLMS00943
Trigger mode: 0
Integration Time (sec): 1.000000E-1
Scans to average: 1
Electric dark correction enabled: true
Nonlinearity correction enabled: false
Boxcar width: 0
XAxis mode: Wavelengths
Number of Pixels in Spectrum: 2048
>>>>>Begin Spectral Data<<<<<
179.651	-0
180.037	-0
180.424	-0
180.81	-0.1
181.197	0.15
181.583	1.69
181.97	-0
182.356	-0
182.743	-0
183.129	-0
183.515	0.24
183.901	-2.51
184.288	0.38
184.674	-0
185.06	-1.32
185.446	-0.27
185.832	-0
186.218	-0.08
186.604	-0
186.99	0.83
187.376	-0
187.762	-0
188.148	-0
188.534	0.2
188.92	0.06
189.305	0.12
189.691	0.18
190.077	0.29
190.463	0.17
190.848	0.08
191.234	0.06
191.619	0.18
192.005	0.19
192.391	0.14
192.776	0.14
193.161	0.08
193.547	0.05
193.932	0.15
194.318	-0.02
194.703	0.04
195.088	0.28
195.473	0.18
195.859	0.24
196.244	0.23
196.629	0.2
197.014	0.09
197.399	0.11
197.784	0.2
198.169	0.1
198.554	0.2
198.939	0.21
199.324	0.17
199.709	0.14
200.094	0.16
200.478	0.28
200.863	0.24
201.248	0.25
201.633	0.2
202.017	0.09
202.402	0.28
202.787	0.09
203.171	0.26
203.556	0.35
203.94	0.14
204.325	0.18
204.709	0.33
205.093	0.12
205.478	0.06
205.862	0.04
206.246	0.08
206.631	0.21
207.015	0.1
207.399	0.18
207.783	0.02
208.167	0.22
208.551	0.26
208.935	0.23
209.319	0.14
209.703	0.15
210.087	0.25
210.471	0.13
210.855	0.11
211.239	0.1
211.623	0.33
212.007	0.09
212.39	0.26
212.774	0.21
213.158	0.15
213.541	0.33
213.925	0.31
214.309	0.33
214.692	0.41
215.076	0.15
215.459	0.24
215.842	0.18
216.226	0.22
216.609	0.32
216.993	0.19
217.376	0.45
217.759	0.2
218.142	0.34
218.525	0.75
218.909	0.42
219.292	0.29
219.675	0.83
220.058	0.36
220.441	0.53
220.824	0.45
221.207	0.51
221.59	0.5
221.973	0.51
222.355	0.64
222.738	0.57
223.121	0.66
223.504	0.52
223.886	0.93
224.269	0.68
224.652	0.62
225.034	0.82
225.417	0.65
225.799	0.83
226.182	0.86
226.564	0.94
226.947	0.81
227.329	0.78
227.711	1.06
228.094	0.9
228.476	0.83
228.858	0.83
229.24	0.76
229.623	0.87
230.005	0.82
230.387	0.86
230.769	0.82
231.151	0.89
231.533	0.96
231.915	0.88
232.297	1.09
232.679	0.96
233.061	1.06
233.442	1.07
233.824	1.07
234.206	1.05
234.588	1.19
234.969	1.16
235.351	1.03
235.733	1.09
236.114	1.22
236.496	1.27
236.877	1.05
237.259	1.06
237.64	1.1
238.022	1.1
238.403	1.07
238.784	1.08
239.165	1.03
239.547	1.05
239.928	1.06
240.309	1.15
240.69	1.08
241.071	1.05
241.452	1.2
241.834	1.1
242.215	1.17
242.595	1.11
242.976	1.16
243.357	1.16
243.738	1.01
244.119	1.36
244.5	1.09
244.881	1.39
245.261	1.26
245.642	1.22
246.023	1.08
246.403	1.26
246.784	1.22
247.164	1.23
247.545	1.24
247.925	1.49
248.306	1.2
248.686	1.35
249.067	1.19
249.447	1.36
249.827	1.59
250.207	1.56
250.588	1.45
250.968	1.43
251.348	1.41
251.728	1.38
252.108	1.37
252.488	1.47
252.868	1.41
253.248	1.31
253.628	1.61
254.008	1.41
254.388	1.32
254.768	1.2
255.147	1.44
255.527	1.54
255.907	1.4
256.287	1.33
256.666	1.36
257.046	1.29
257.425	1.56
257.805	1.39
258.184	1.33
258.564	1.37
258.943	1.38
259.323	1.36
259.702	1.58
260.081	1.49
260.461	1.52
260.84	1.51
261.219	1.64
261.598	1.51
261.977	1.62
262.356	1.55
262.736	1.57
263.115	1.75
263.494	1.43
263.873	1.54
264.251	1.5
264.63	1.58
265.009	1.52
265.388	1.36
265.767	1.28
266.145	1.52
266.524	1.47
266.903	1.49
267.281	1.42
267.66	1.45
268.039	1.43
268.417	1.39
268.796	1.49
269.174	1.43
269.552	1.29
269.931	1.49
270.309	1.4
270.687	1.57
271.066	1.67
271.444	1.49
271.822	1.51
272.2	1.44
272.578	1.41
272.956	1.4
273.334	1.32
273.712	1.48
274.09	1.3
274.468	1.43
274.846	1.37
275.224	1.46
275.602	1.43
275.98	1.54
276.357	1.49
276.735	1.57
277.113	1.45
277.49	1.38
277.868	1.27
278.246	1.5
278.623	1.38
279.001	1.31
279.378	1.4
279.756	1.48
280.133	1.64
280.51	1.38
280.888	1.42
281.265	1.35
281.642	1.47
282.019	1.59
282.396	1.53
282.773	1.52
283.151	1.59
283.528	1.43
283.905	1.4
284.282	1.51
284.659	1.55
285.035	1.33
285.412	1.32
285.789	1.55
286.166	1.45
286.543	1.42
286.919	1.54
287.296	1.49
287.673	1.61
288.049	1.46
288.426	1.52
288.802	1.63
289.179	1.6
289.555	1.72
289.932	1.44
290.308	1.33
290.684	1.39
291.061	1.36
291.437	1.57
291.813	1.45
292.189	1.41
292.565	1.42
292.942	1.42
293.318	1.41
293.694	1.41
294.07	1.36
294.446	1.37
294.822	1.6
295.197	1.43
295.573	1.45
295.949	1.44
296.325	1.51
296.701	1.65
297.076	1.47
297.452	1.72
297.828	1.4
298.203	1.67
298.579	1.47
298.954	1.51
299.33	1.47
299.705	1.47
300.081	1.53
300.456	1.61
300.831	1.44
301.206	1.46
301.582	1.56
301.957	1.48
302.332	1.69
302.707	1.43
303.082	1.48
303.457	1.54
303.832	1.48
304.207	1.36
304.582	1.41
304.957	1.46
305.332	1.39
305.707	1.53
306.082	1.61
306.456	1.59
306.831	1.49
307.206	1.48
307.58	1.56
307.955	1.37
308.33	1.42
308.704	1.5
309.079	1.39
309.453	1.59
309.828	1.49
310.202	1.37
310.576	1.43
310.951	1.47
311.325	1.52
311.699	1.52
312.073	1.38
312.447	1.55
312.821	1.37
313.196	1.57
313.57	1.53
313.944	1.43
314.317	1.45
314.691	1.51
315.065	1.72
315.439	1.72
315.813	1.48
316.187	1.47
316.56	1.73
316.934	1.49
317.308	1.48
317.681	1.46
318.055	1.43
318.428	1.46
318.802	1.5
319.175	1.45
319.549	1.47
319.922	1.41
320.295	1.37
320.669	1.63
321.042	1.55
321.415	1.87
321.788	1.37
322.162	1.5
322.535	1.54
322.908	1.55
323.281	1.54
323.654	1.61
324.027	1.38
324.4	1.64
324.773	1.45
325.145	1.53
325.518	1.47
325.891	1.53
326.264	1.56
326.636	1.44
327.009	1.41
327.382	1.54
327.754	1.57
328.127	1.45
328.499	1.62
328.872	1.48
329.244	1.53
329.616	1.44
329.989	1.51
330.361	1.46
330.733	1.56
331.106	1.44
331.478	1.68
331.85	1.57
332.222	1.52
332.594	1.5
332.966	1.63
333.338	1.67
333.71	1.67
334.082	1.68
334.454	1.52
334.826	1.47
335.197	1.68
335.569	1.47
335.941	1.43
336.312	1.58
336.684	1.41
337.056	1.53
337.427	1.42
337.799	1.52
338.17	1.51
338.542	1.41
338.913	1.7
339.284	1.55
339.656	1.52
340.027	1.5
340.398	1.46
340.769	1.54
341.141	1.81
341.512	1.47
341.883	1.71
342.254	1.59
342.625	1.57
342.996	1.48
343.367	1.55
343.738	1.52
344.108	1.45
344.479	1.62
344.85	1.44
345.221	1.78
345.591	1.39
345.962	1.5
346.333	1.51
346.703	1.35
347.074	1.34
347.444	1.35
347.815	1.38
348.185	1.38
348.556	1.33
348.926	1.3
349.296	1.37
349.666	1.33
350.037	1.22
350.407	1.23
350.777	1.31
351.147	1.48
351.517	1.42
351.887	1.24
352.257	1.4
352.627	1.31
352.997	1.27
353.367	1.33
353.737	1.39
354.106	1.37
354.476	1.38
354.846	1.48
355.216	1.31
355.585	1.5
355.955	1.3
356.324	1.33
356.694	1.38
357.063	1.38
357.433	1.27
357.802	1.34
358.171	1.39
358.541	1.27
358.91	1.32
359.279	1.25
359.648	1.19
360.017	1.29
360.387	1.32
360.756	1.2
361.125	1.29
361.494	1.29
361.863	1.19
362.231	1.17
362.6	1.17
362.969	1.14
363.338	1.17
363.707	1.27
364.075	1.26
364.444	1.11
364.813	1.16
365.181	1.16
365.55	1.15
365.918	1.21
366.287	1.23
366.655	1.19
367.024	1.17
367.392	1.17
367.76	1.12
368.128	1.14
368.497	1.13
368.865	1.18
369.233	1.19
369.601	1.13
369.969	1.15
370.337	1.17
370.705	1.14
371.073	1.19
371.441	1.15
371.809	1.08
372.177	1.13
372.544	1.17
372.912	1.15
373.28	1.14
373.647	1.15
374.015	1.21
374.383	1.14
374.75	1.16
375.118	1.15
375.485	1.18
375.853	1.21
376.22	1.16
376.587	1.16
376.955	1.13
377.322	1.19
377.689	1.12
378.056	1.15
378.423	1.13
378.79	1.23
379.157	1.16
379.524	1.17
379.891	1.15
380.258	1.15
380.625	1.19
380.992	1.13
381.359	1.15
381.726	1.29
382.092	1.23
382.459	1.19
382.826	1.2
383.192	1.25
383.559	1.24
383.925	1.23
384.292	1.25
384.658	1.29
385.025	1.21
385.391	1.35
385.757	1.35
386.123	1.31
386.49	1.19
386.856	1.26
387.222	1.34
387.588	1.31
387.954	1.33
388.32	1.39
388.686	1.31
389.052	1.29
389.418	1.33
389.784	1.33
390.15	1.32
390.515	1.18
390.881	1.37
391.247	1.32
391.613	1.35
391.978	1.25
392.344	1.27
392.709	1.33
393.075	1.31
393.44	1.38
393.806	1.31
394.171	1.29
394.536	1.3
394.902	1.33
395.267	1.32
395.632	1.3
395.997	1.26
396.362	1.22
396.727	1.31
397.092	1.26
397.457	1.27
397.822	1.31
398.187	1.29
398.552	1.3
398.917	1.35
399.282	1.24
399.646	1.31
400.011	1.28
400.376	1.28
400.74	1.27
401.105	1.18
401.47	1.2
401.834	1.23
402.199	1.19
402.563	1.22
402.927	1.19
403.292	1.17
403.656	1.26
404.02	1.17
404.384	1.19
404.749	1.19
405.113	1.16
405.477	1.18
405.841	1.12
406.205	1.08
406.569	1.11
406.933	1.05
407.296	1.06
407.66	1.08
408.024	1.1
408.388	1.07
408.752	1.03
409.115	1.06
409.479	1.1
409.842	1.01
410.206	1.02
410.569	0.96
410.933	1.05
411.296	0.98
411.66	1
412.023	1.02
412.386	1.01
412.749	0.99
413.113	1
413.476	0.95
413.839	1
414.202	0.94
414.565	0.93
414.928	0.95
415.291	0.93
415.654	0.96
416.017	0.98
416.38	0.93
416.742	0.93
417.105	0.9
417.468	0.94
417.83	0.92
418.193	1.01
418.556	0.91
418.918	0.9
419.281	0.93
419.643	0.91
420.005	0.9
420.368	0.89
420.73	0.87
421.092	0.92
421.455	0.92
421.817	0.87
422.179	0.91
422.541	0.89
422.903	0.92
423.265	0.89
423.627	0.85
423.989	0.9
424.351	0.88
424.713	0.89
425.075	0.87
425.436	0.85
425.798	0.87
426.16	0.88
426.521	0.85
426.883	0.87
427.245	0.81
427.606	0.84
427.967	0.84
428.329	0.85
428.69	0.86
429.052	0.86
429.413	0.86
429.774	0.83
430.135	0.81
430.497	0.83
430.858	0.81
431.219	0.85
431.58	0.84
431.941	0.83
432.302	0.78
432.663	0.84
433.024	0.86
433.384	0.81
433.745	0.8
434.106	0.81
434.467	0.84
434.827	0.81
435.188	0.8
435.548	0.83
435.909	0.78
436.269	0.8
436.63	0.78
436.99	0.77
437.351	0.77
437.711	0.77
438.071	0.76
438.431	0.77
438.792	0.75
439.152	0.75
439.512	0.74
439.872	0.74
440.232	0.75
440.592	0.77
440.952	0.73
441.312	0.75
441.671	0.72
442.031	0.72
442.391	0.72
442.751	0.75
443.11	0.72
443.47	0.7
443.83	0.69
444.189	0.7
444.549	0.69
444.908	0.7
445.267	0.69
445.627	0.69
445.986	0.68
446.345	0.67
446.705	0.67
447.064	0.68
447.423	0.66
447.782	0.67
448.141	0.66
448.5	0.65
448.859	0.66
449.218	0.66
449.577	0.66
449.936	0.65
450.295	0.63
450.653	0.63
451.012	0.63
451.371	0.63
451.729	0.62
452.088	0.63
452.447	0.63
452.805	0.62
453.163	0.62
453.522	0.61
453.88	0.62
454.239	0.6
454.597	0.59
454.955	0.59
455.313	0.58
455.671	0.59
456.029	0.57
456.388	0.58
456.746	0.56
457.104	0.56
457.461	0.53
457.819	0.55
458.177	0.55
458.535	0.53
458.893	0.52
459.25	0.52
459.608	0.52
459.966	0.5
460.323	0.5
460.681	0.49
461.038	0.49
461.396	0.49
461.753	0.48
462.111	0.48
462.468	0.47
462.825	0.47
463.182	0.47
463.54	0.45
463.897	0.46
464.254	0.45
464.611	0.45
464.968	0.45
465.325	0.44
465.682	0.44
466.039	0.43
466.395	0.42
466.752	0.42
467.109	0.41
467.466	0.41
467.822	0.41
468.179	0.4
468.535	0.4
468.892	0.4
469.248	0.39
469.605	0.38
469.961	0.39
470.318	0.39
470.674	0.38
471.03	0.37
471.386	0.36
471.743	0.35
472.099	0.35
472.455	0.34
472.811	0.35
473.167	0.34
473.523	0.33
473.879	0.33
474.235	0.33
474.59	0.33
474.946	0.32
475.302	0.32
475.657	0.31
476.013	0.3
476.369	0.31
476.724	0.31
477.08	0.3
477.435	0.3
477.791	0.29
478.146	0.29
478.501	0.29
478.857	0.29
479.212	0.28
479.567	0.28
479.922	0.27
480.277	0.27
480.632	0.26
480.987	0.26
481.342	0.26
481.697	0.26
482.052	0.25
482.407	0.25
482.762	0.24
483.116	0.25
483.471	0.23
483.826	0.23
484.18	0.23
484.535	0.23
484.89	0.22
485.244	0.23
485.598	0.23
485.953	0.22
486.307	0.22
486.661	0.23
487.016	0.21
487.37	0.22
487.724	0.21
488.078	0.21
488.432	0.21
488.786	0.21
489.14	0.21
489.494	0.2
489.848	0.2
490.202	0.19
490.556	0.19
490.91	0.2
491.263	0.2
491.617	0.19
491.971	0.19
492.324	0.19
492.678	0.18
493.031	0.19
493.385	0.18
493.738	0.18
494.091	0.18
494.445	0.18
494.798	0.18
495.151	0.18
495.504	0.18
495.857	0.18
496.21	0.18
496.564	0.17
496.916	0.18
497.269	0.17
497.622	0.17
497.975	0.17
498.328	0.18
498.681	0.17
499.033	0.17
499.386	0.17
499.739	0.17
500.091	0.17
500.444	0.17
500.796	0.17
501.149	0.16
501.501	0.17
501.854	0.16
502.206	0.16
502.558	0.17
502.91	0.16
503.263	0.16
503.615	0.16
503.967	0.16
504.319	0.16
504.671	0.16
505.023	0.15
505.375	0.15
505.726	0.15
506.078	0.15
506.43	0.15
506.782	0.15
507.133	0.16
507.485	0.15
507.837	0.16
508.188	0.16
508.54	0.15
508.891	0.16
509.243	0.15
509.594	0.15
509.945	0.14
510.296	0.15
510.648	0.15
510.999	0.14
511.35	0.15
511.701	0.14
512.052	0.15
512.403	0.14
512.754	0.14
513.105	0.14
513.456	0.14
513.807	0.13
514.157	0.14
514.508	0.13
514.859	0.13
515.209	0.14
515.56	0.13
515.91	0.14
516.261	0.14
516.611	0.13
516.962	0.14
517.312	0.14
517.662	0.14
518.013	0.14
518.363	0.14
518.713	0.14
519.063	0.14
519.413	0.14
519.763	0.14
520.113	0.14
520.463	0.14
520.813	0.14
521.163	0.15
521.512	0.14
521.862	0.14
522.212	0.15
522.562	0.14
522.911	0.14
523.261	0.14
523.61	0.14
523.96	0.14
524.309	0.14
524.658	0.14
525.008	0.14
525.357	0.14
525.706	0.14
526.056	0.14
526.405	0.15
526.754	0.14
527.103	0.14
527.452	0.14
527.801	0.15
528.15	0.15
528.499	0.15
528.847	0.14
529.196	0.15
529.545	0.15
529.893	0.14
530.242	0.14
530.591	0.14
530.939	0.15
531.288	0.14
531.636	0.15
531.985	0.15
532.333	0.14
532.681	0.14
533.029	0.15
533.378	0.15
533.726	0.14
534.074	0.14
534.422	0.14
534.77	0.14
535.118	0.15
535.466	0.14
535.814	0.14
536.162	0.14
536.509	0.15
536.857	0.15
537.205	0.15
537.552	0.15
537.9	0.14
538.248	0.14
538.595	0.14
538.943	0.15
539.29	0.15
539.637	0.14
539.985	0.13
540.332	0.13
540.679	0.14
541.026	0.13
541.373	0.15
541.721	0.13
542.068	0.15
542.415	0.15
542.762	0.14
543.108	0.13
543.455	0.13
543.802	0.14
544.149	0.14
544.496	0.14
544.842	0.15
545.189	0.13
545.535	0.14
545.882	0.14
546.228	0.14
546.575	0.14
546.921	0.14
547.267	0.14
547.614	0.14
547.96	0.15
548.306	0.14
548.652	0.14
548.998	0.15
549.344	0.14
549.69	0.14
550.036	0.14
550.382	0.14
550.728	0.14
551.074	0.15
551.42	0.14
551.765	0.14
552.111	0.14
552.457	0.15
552.802	0.15
553.148	0.14
553.493	0.15
553.839	0.14
554.184	0.15
554.529	0.14
554.875	0.15
555.22	0.15
555.565	0.15
555.91	0.15
556.255	0.15
556.6	0.15
556.945	0.14
557.29	0.14
557.635	0.15
557.98	0.15
558.325	0.15
558.67	0.15
559.014	0.15
559.359	0.14
559.704	0.14
560.048	0.14
560.393	0.14
560.737	0.13
561.082	0.14
561.426	0.14
561.77	0.13
562.115	0.13
562.459	0.14
562.803	0.14
563.147	0.14
563.491	0.14
563.835	0.14
564.179	0.15
564.523	0.14
564.867	0.13
565.211	0.14
565.555	0.14
565.899	0.15
566.242	0.14
566.586	0.14
566.93	0.14
567.273	0.14
567.617	0.14
567.96	0.15
568.304	0.15
568.647	0.15
568.99	0.15
569.334	0.15
569.677	0.15
570.02	0.15
570.363	0.15
570.706	0.15
571.049	0.15
571.392	0.15
571.735	0.15
572.078	0.16
572.421	0.16
572.764	0.15
573.106	0.15
573.449	0.15
573.792	0.15
574.134	0.15
574.477	0.15
574.819	0.15
575.162	0.14
575.504	0.14
575.847	0.14
576.189	0.14
576.531	0.15
576.873	0.14
577.215	0.15
577.558	0.15
577.9	0.14
578.242	0.14
578.584	0.15
578.926	0.15
579.267	0.14
579.609	0.14
579.951	0.14
580.293	0.14
580.634	0.15
580.976	0.14
581.318	0.14
581.659	0.14
582.001	0.14
582.342	0.14
582.683	0.15
583.025	0.14
583.366	0.14
583.707	0.15
584.049	0.13
584.39	0.15
584.731	0.13
585.072	0.14
585.413	0.15
585.754	0.14
586.095	0.14
586.435	0.14
586.776	0.14
587.117	0.14
587.458	0.14
587.798	0.14
588.139	0.14
588.48	0.14
588.82	0.14
589.161	0.14
589.501	0.14
589.841	0.14
590.182	0.13
590.522	0.12
590.862	0.14
591.202	0.14
591.542	0.13
591.882	0.13
592.222	0.13
592.562	0.14
592.902	0.14
593.242	0.13
593.582	0.14
593.922	0.14
594.261	0.13
594.601	0.13
594.941	0.14
595.28	0.14
595.62	0.14
595.959	0.14
596.299	0.14
596.638	0.13
596.977	0.13
597.317	0.14
597.656	0.14
597.995	0.14
598.334	0.14
598.673	0.14
599.012	0.14
599.351	0.15
599.69	0.13
600.029	0.14
600.368	0.14
600.707	0.14
601.046	0.14
601.384	0.14
601.723	0.14
602.061	0.14
602.4	0.14
602.738	0.14
603.077	0.14
603.415	0.14
603.754	0.14
604.092	0.14
604.43	0.14
604.768	0.14
605.107	0.14
605.445	0.14
605.783	0.14
606.121	0.14
606.459	0.14
606.796	0.14
607.134	0.14
607.472	0.14
607.81	0.14
608.148	0.14
608.485	0.15
608.823	0.14
609.16	0.14
609.498	0.14
609.835	0.14
610.173	0.14
610.51	0.14
610.847	0.14
611.185	0.15
611.522	0.15
611.859	0.16
612.196	0.15
612.533	0.16
612.87	0.15
613.207	0.16
613.544	0.15
613.881	0.16
614.217	0.15
614.554	0.15
614.891	0.15
615.228	0.15
615.564	0.15
615.901	0.15
616.237	0.15
616.574	0.15
616.91	0.15
617.246	0.14
617.583	0.15
617.919	0.15
618.255	0.15
618.591	0.15
618.927	0.15
619.263	0.15
619.599	0.14
619.935	0.15
620.271	0.16
620.607	0.14
620.943	0.14
621.279	0.15
621.614	0.14
621.95	0.15
622.286	0.14
622.621	0.14
622.957	0.14
623.292	0.14
623.627	0.14
623.963	0.14
624.298	0.14
624.633	0.14
624.968	0.14
625.304	0.13
625.639	0.13
625.974	0.14
626.309	0.14
626.644	0.14
626.979	0.15
627.313	0.14
627.648	0.14
627.983	0.14
628.318	0.14
628.652	0.14
628.987	0.14
629.321	0.14
629.656	0.13
629.99	0.14
630.325	0.13
630.659	0.14
630.993	0.13
631.327	0.14
631.662	0.12
631.996	0.13
632.33	0.13
632.664	0.13
632.998	0.13
633.332	0.13
633.666	0.12
633.999	0.12
634.333	0.12
634.667	0.12
635.001	0.12
635.334	0.13
635.668	0.12
636.001	0.12
636.335	0.13
636.668	0.13
637.001	0.12
637.335	0.12
637.668	0.13
638.001	0.12
638.334	0.12
638.668	0.12
639.001	0.12
639.334	0.12
639.667	0.12
639.999	0.12
640.332	0.12
640.665	0.12
640.998	0.12
641.331	0.13
641.663	0.12
641.996	0.13
642.328	0.13
642.661	0.12
642.993	0.13
643.326	0.12
643.658	0.12
643.99	0.11
644.323	0.12
644.655	0.12
644.987	0.13
645.319	0.13
645.651	0.12
645.983	0.12
646.315	0.12
646.647	0.12
646.979	0.13
647.31	0.13
647.642	0.13
647.974	0.12
648.305	0.14
648.637	0.13
648.968	0.13
649.3	0.13
649.631	0.13
649.963	0.13
650.294	0.13
650.625	0.13
650.957	0.13
651.288	0.13
651.619	0.13
651.95	0.12
652.281	0.13
652.612	0.12
652.943	0.13
653.274	0.13
653.604	0.12
653.935	0.12
654.266	0.13
654.596	0.12
654.927	0.12
655.258	0.12
655.588	0.13
655.918	0.12
656.249	0.11
656.579	0.12
656.909	0.13
657.24	0.12
657.57	0.13
657.9	0.13
658.23	0.13
658.56	0.13
658.89	0.13
659.22	0.12
659.55	0.12
659.88	0.13
660.209	0.12
660.539	0.14
660.869	0.13
661.198	0.13
661.528	0.12
661.857	0.12
662.187	0.13
662.516	0.13
662.846	0.12
663.175	0.12
663.504	0.12
663.833	0.12
664.163	0.12
664.492	0.12
664.821	0.12
665.15	0.12
665.479	0.12
665.807	0.11
666.136	0.12
666.465	0.12
666.794	0.12
667.122	0.11
667.451	0.11
667.78	0.12
668.108	0.12
668.437	0.11
668.765	0.12
669.093	0.11
669.422	0.12
669.75	0.11
670.078	0.11
670.406	0.12
670.734	0.12
671.062	0.12
671.39	0.11
671.718	0.12
672.046	0.11
672.374	0.11
672.702	0.1
673.029	0.11
673.357	0.11
673.685	0.12
674.012	0.12
674.34	0.11
674.667	0.12
674.995	0.11
675.322	0.12
675.649	0.11
675.977	0.11
676.304	0.11
676.631	0.1
676.958	0.11
677.285	0.1
677.612	0.1
677.939	0.11
678.266	0.1
678.593	0.1
678.92	0.1
679.246	0.09
679.573	0.1
679.9	0.09
680.226	0.1
680.553	0.09
680.879	0.1
681.206	0.09
681.532	0.09
681.858	0.1
682.184	0.09
682.511	0.09
682.837	0.09
683.163	0.1
683.489	0.1
683.815	0.09
684.141	0.1
684.467	0.1
684.793	0.09
685.118	0.09
685.444	0.1
685.77	0.09
686.095	0.1
686.421	0.09
686.746	0.1
687.072	0.1
687.397	0.09
687.723	0.1
688.048	0.1
688.373	0.09
688.698	0.1
689.023	0.1
689.349	0.1
689.674	0.1
689.999	0.09
690.323	0.09
690.648	0.08
690.973	0.08
691.298	0.08
691.623	0.09
691.947	0.08
692.272	0.08
692.596	0.09
692.921	0.08
693.245	0.08
693.57	0.09
693.894	0.08
694.218	0.09
694.543	0.09
694.867	0.08
695.191	0.08
695.515	0.09
695.839	0.07
696.163	0.08
696.487	0.09
696.811	0.08
697.135	0.09
697.458	0.09
697.782	0.09
698.106	0.08
698.429	0.09
698.753	0.08
699.076	0.09
699.4	0.08
699.723	0.09
700.046	0.08
700.37	0.09
700.693	0.09
701.016	0.08
701.339	0.09
701.662	0.09
701.985	0.09
702.308	0.09
702.631	0.08
702.954	0.09
703.277	0.08
703.599	0.08
703.922	0.07
704.245	0.08
704.567	0.07
704.89	0.08
705.212	0.09
705.535	0.07
705.857	0.07
706.179	0.07
706.502	0.07
706.824	0.07
707.146	0.07
707.468	0.07
707.79	0.07
708.112	0.07
708.434	0.07
708.756	0.07
709.078	0.07
709.399	0.07
709.721	0.07
710.043	0.07
710.364	0.08
710.686	0.07
711.007	0.06
711.329	0.08
711.65	0.08
711.972	0.07
712.293	0.08
712.614	0.07
712.935	0.07
713.256	0.07
713.577	0.07
713.898	0.07
714.219	0.07
714.54	0.07
714.861	0.07
715.182	0.07
715.503	0.07
715.823	0.07
716.144	0.07
716.464	0.07
716.785	0.07
717.105	0.07
717.426	0.07
717.746	0.06
718.066	0.06
718.387	0.06
718.707	0.06
719.027	0.07
719.347	0.06
719.667	0.07
719.987	0.06
720.307	0.06
720.627	0.06
720.947	0.06
721.266	0.06
721.586	0.06
721.906	0.06
722.225	0.06
722.545	0.06
722.864	0.06
723.184	0.06
723.503	0.07
723.823	0.07
724.142	0.06
724.461	0.06
724.78	0.06
725.099	0.06
725.418	0.07
725.737	0.06
726.056	0.07
726.375	0.07
726.694	0.07
727.013	0.06
727.331	0.06
727.65	0.06
727.969	0.07
728.287	0.06
728.606	0.06
728.924	0.06
729.242	0.06
729.561	0.06
729.879	0.05
730.197	0.06
730.515	0.05
730.834	0.05
731.152	0.05
731.47	0.06
731.788	0.05
732.105	0.05
732.423	0.05
732.741	0.05
733.059	0.06
733.376	0.06
733.694	0.04
734.012	0.05
734.329	0.06
734.647	0.05
734.964	0.06
735.281	0.06
735.599	0.06
735.916	0.06
736.233	0.05
736.55	0.06
736.867	0.06
737.184	0.06
737.501	0.05
737.818	0.07
738.135	0.06
738.452	0.06
738.768	0.06
739.085	0.06
739.402	0.05
739.718	0.05
740.035	0.06
740.351	0.06
740.668	0.06
740.984	0.06
741.3	0.05
741.617	0.06
741.933	0.06
742.249	0.06
742.565	0.06
742.881	0.06
743.197	0.06
743.513	0.05
743.829	0.05
744.144	0.06
744.46	0.05
744.776	0.05
745.091	0.05
745.407	0.04
745.722	0.05
746.038	0.05
746.353	0.04
746.669	0.06
746.984	0.04
747.299	0.04
747.614	0.05
747.93	0.05
748.245	0.05
748.56	0.04
748.875	0.04
749.189	0.04
749.504	0.05
749.819	0.05
750.134	0.05
750.448	0.05
750.763	0.05
751.078	0.04
751.392	0.05
751.707	0.06
752.021	0.06
752.335	0.06
752.65	0.05
752.964	0.05
753.278	0.06
753.592	0.06
753.906	0.05
754.22	0.05
754.534	0.06
754.848	0.05
755.162	0.05
755.476	0.06
755.789	0.05
756.103	0.05
756.417	0.06
756.73	0.06
757.044	0.06
757.357	0.05
757.671	0.06
757.984	0.05
758.297	0.06
758.61	0.06
758.924	0.06
759.237	0.05
759.55	0.06
759.863	0.05
760.176	0.05
760.488	0.05
760.801	0.05
761.114	0.05
761.427	0.05
761.739	0.05
762.052	0.04
762.365	0.05
762.677	0.05
762.99	0.04
763.302	0.05
763.614	0.05
763.926	0.05
764.239	0.04
764.551	0.05
764.863	0.05
765.175	0.05
765.487	0.05
765.799	0.05
766.111	0.04
766.423	0.05
766.734	0.05
767.046	0.04
767.358	0.05
767.669	0.05
767.981	0.05
768.292	0.05
768.604	0.05
768.915	0.04
769.226	0.04
769.537	0.04
769.849	0.05
770.16	0.05
770.471	0.04
770.782	0.04
771.093	0.04
771.404	0.03
771.715	0.03
772.025	0.04
772.336	0.04
772.647	0.03
772.957	0.04
773.268	0.04
773.578	0.03
773.889	0.04
774.199	0.05
774.51	0.03
774.82	0.04
775.13	0.04
775.44	0.05
775.75	0.05
776.06	0.04
776.37	0.04
776.68	0.03
776.99	0.03
777.3	0.04
777.61	0.05
777.92	0.04
778.229	0.04
778.539	0.04
778.848	0.04
779.158	0.04
779.467	0.04
779.777	0.05
780.086	0.04
780.395	0.03
780.704	0.04
781.013	0.03
781.323	0.03
781.632	0.04
781.941	0.04
782.249	0.04
782.558	0.05
782.867	0.04
783.176	0.03
783.485	0.03
783.793	0.04
784.102	0.03
784.41	0.04
784.719	0.04
785.027	0.04
785.335	0.04
785.644	0.04
785.952	0.04
786.26	0.04
786.568	0.03
786.876	0.03
787.184	0.04
787.492	0.04
787.8	0.03
788.108	0.04
788.416	0.03
788.723	0.05
789.031	0.03
789.338	0.04
789.646	0.04
789.953	0.04
790.261	0.05
790.568	0.05
790.876	0.05
791.183	0.05
791.49	0.04
791.797	0.05
792.104	0.04
792.411	0.05
792.718	0.04
793.025	0.05
793.332	0.04
793.639	0.05
793.945	0.05
794.252	0.05
794.559	0.05
794.865	0.05
795.172	0.05
795.478	0.05
795.784	0.05
796.091	0.06
796.397	0.05
796.703	0.05
797.009	0.05
797.315	0.05
797.622	0.05
797.927	0.04
798.233	0.04
798.539	0.04
798.845	0.05
799.151	0.04
799.456	0.04
799.762	0.04
800.068	0.03
800.373	0.05
800.679	0.03
800.984	0.03
801.289	0.03
801.595	0.03
801.9	0.03
802.205	0.03
802.51	0.03
802.815	0.03
803.12	0.04
803.425	0.03
803.73	0.03
804.035	0.03
804.339	0.03
804.644	0.03
804.949	0.03
805.253	0.03
805.558	0.04
805.862	0.03
806.167	0.04
806.471	0.04
806.775	0.04
807.08	0.04
807.384	0.03
807.688	0.04
807.992	0.04
808.296	0.04
808.6	0.04
808.904	0.04
809.207	0.03
809.511	0.04
809.815	0.04
810.119	0.04
810.422	0.05
810.726	0.05
811.029	0.04
811.332	0.04
811.636	0.05
811.939	0.04
812.242	0.04
812.546	0.04
812.849	0.04
813.152	0.04
813.455	0.05
813.758	0.05
814.06	0.04
814.363	0.04
814.666	0.05
814.969	0.04
815.271	0.05
815.574	0.05
815.877	0.04
816.179	0.05
816.481	0.04
816.784	0.05
817.086	0.04
817.388	0.03
817.69	0.04
817.993	0.03
818.295	0.04
818.597	0.04
818.899	0.03
819.2	0.03
819.502	0.03
819.804	0.03
820.106	0.02
820.407	0.03
820.709	0.04
821.01	0.03
821.312	0.03
821.613	0.02
821.915	0.02
822.216	0.02
822.517	0.02
822.818	0.02
823.119	0.02
823.42	0.03
823.721	0.01
824.022	0.01
824.323	0.02
824.624	0.02
824.925	0.02
825.226	0.03
825.526	0.02
825.827	0.02
826.127	0.02
826.428	0.03
826.728	0.01
827.028	0.02
827.329	0.01
827.629	0.01
827.929	0.02
828.229	0.03
828.529	0.03
828.829	0.02
829.129	0.02
829.429	0.03
829.729	0.01
830.029	0.02
830.328	0.02
830.628	0.01
830.927	0.01
831.227	0.02
831.526	0.01
831.826	0.01
832.125	0.01
832.424	0
832.724	0.01
833.023	0.01
833.322	0.01
833.621	0.01
833.92	0.01
834.219	0
834.518	0.01
834.816	-0
835.115	0.01
835.414	0
835.712	-0
836.011	0
836.309	0
836.608	-0.01
836.906	-0.01
837.205	-0.01
837.503	-0.01
837.801	-0.01
838.099	-0.02
838.397	-0.03
838.695	-0.02
838.993	-0.02
839.291	-0.02
839.589	-0.02
839.887	-0.03
840.184	-0.03
840.482	-0.04
840.78	-0.03
841.077	-0.03
841.375	-0.04
841.672	-0.03
841.969	-0.04
842.267	-0.03
842.564	-0.03
842.861	-0.03
843.158	-0.04
843.455	-0.05
843.752	-0.05
844.049	-0.04
844.346	-0.04
844.643	-0.05
844.94	-0.05
845.236	-0.03
845.533	-0.04
845.83	-0.04
846.126	-0.05
846.423	-0.04
846.719	-0.05
847.015	-0.05
847.312	-0.04
847.608	-0.05
847.904	-0.06
848.2	-0.06
848.496	-0.06
848.792	-0.06
849.088	-0.05
849.384	-0.07
849.68	-0.07
849.975	-0.06
850.271	-0.07
850.567	-0.08
850.862	-0.08
851.158	-0.08
851.453	-0.08
851.748	-0.09
852.044	-0.09
852.339	-0.09
852.634	-0.1
852.929	-0.09
853.224	-0.1
853.519	-0.1
853.814	-0.09
854.109	-0.1
854.404	-0.1
854.699	-0.11
854.994	-0.1
855.288	-0.09
855.583	-0.1
855.877	-0.11
856.172	-0.1
856.466	-0.11
856.76	-0.11
857.055	-0.11
857.349	-0.12
857.643	-0.12
857.937	-0.13
858.231	-0.13
858.525	-0.12
858.819	-0.12
859.113	-0.13
859.407	-0.14
859.701	-0.13
859.994	-0.14
860.288	-0.12
860.581	-0.13
860.875	-0.14
861.168	-0.14
861.462	-0.13
861.755	-0.12
862.048	-0.14
862.341	-0.12
862.634	-0.13
862.928	-0.12
863.221	-0.14
863.513	-0.13
863.806	-0.13
864.099	-0.13
864.392	-0.13
864.685	-0.12
864.977	-0.12
865.27	-0.13
865.562	-0.13
865.855	-0.12
866.147	-0.14
866.44	-0.12
866.732	-0.14
867.024	-0.14
867.316	-0.14
867.608	-0.14
867.9	-0.14
868.192	-0.14
868.484	-0.14
868.776	-0.15
869.068	-0.15
869.359	-0.13
869.651	-0.14
869.943	-0.15
870.234	-0.15
870.526	-0.15
870.817	-0.15
871.108	-0.13
871.4	-0.14
871.691	-0.14
871.982	-0.15
872.273	-0.16
872.564	-0.16
872.855	-0.16
873.146	-0.15
873.437	-0.16
873.728	-0.17
874.019	-0.16
874.309	-0.16
874.6	-0.17
874.89	-0.16
875.181	-0.17
875.471	-0.16
875.762	-0.16
876.052	-0.15
876.342	-0.14
876.632	-0.17
876.922	-0.17
877.213	-0.17
877.503	-0.18
877.792	-0.17
878.082	-0.18
878.372	-0.16
878.662	-0.18
878.952	-0.18
879.241	-0.17
879.531	-0.16
879.82	-0.18
880.11	-0.17
880.399	-0.18
880.688	-0.17
880.978	-0.17
881.267	-0.17
