Data from 12-12-AQDScycling_Absorbance__0__00000.txt Node

Date: Tue Dec 12 10:56:44 EST 2023
User: kyuminlee
Spectrometer: FLMS00943
Trigger mode: 0
Integration Time (sec): 1.000000E-1
Scans to average: 1
Electric dark correction enabled: true
Nonlinearity correction enabled: false
Boxcar width: 0
XAxis mode: Wavelengths
Number of Pixels in Spectrum: 2048
>>>>>Begin Spectral Data<<<<<
179.651	0.07
180.037	0.07
180.424	0.07
180.81	-0
181.197	0.12
181.583	-0
181.97	0.2
182.356	-0
182.743	-0
183.129	0.39
183.515	0.21
183.901	-2.19
184.288	1.2
184.674	-0
185.06	-1.02
185.446	-0
185.832	-0.39
186.218	0.23
186.604	-0
186.99	-0
187.376	-0.09
187.762	-0.39
188.148	0.9
188.534	-0.25
188.92	0.08
189.305	-0.03
189.691	0.11
190.077	0.17
190.463	0.09
190.848	0.13
191.234	0.18
191.619	-0.01
192.005	0.1
192.391	0.17
192.776	0.11
193.161	0.14
193.547	-0.01
193.932	0.26
194.318	0.01
194.703	0.1
195.088	0.21
195.473	0.12
195.859	0.13
196.244	0.12
196.629	0.08
197.014	0.16
197.399	0.13
197.784	0
198.169	-0
198.554	0.14
198.939	0.14
199.324	0.03
199.709	0.15
200.094	0.09
200.478	0.08
200.863	0.11
201.248	0.14
201.633	0.06
202.017	0.12
202.402	0.17
202.787	0.2
203.171	0.18
203.556	0.12
203.94	0.27
204.325	0.28
204.709	0.19
205.093	-0.02
205.478	0.04
205.862	0
206.246	0.07
206.631	0.11
207.015	0.09
207.399	0.18
207.783	0.16
208.167	0.14
208.551	0.08
208.935	0.16
209.319	0.12
209.703	0.14
210.087	0.23
210.471	0.03
210.855	0.13
211.239	0.11
211.623	0.24
212.007	0.2
212.39	0.32
212.774	0.1
213.158	0.11
213.541	0.21
213.925	0.24
214.309	0.39
214.692	0.36
215.076	0.16
215.459	0.14
215.842	0.02
216.226	0.31
216.609	0.24
216.993	0.18
217.376	0.55
217.759	0.15
218.142	0.21
218.525	0.44
218.909	0.35
219.292	0.35
219.675	0.38
220.058	0.7
220.441	0.63
220.824	0.59
221.207	0.61
221.59	0.56
221.973	0.43
222.355	0.63
222.738	0.64
223.121	0.49
223.504	0.64
223.886	0.67
224.269	0.69
224.652	0.7
225.034	0.85
225.417	0.78
225.799	0.83
226.182	0.9
226.564	0.79
226.947	0.81
227.329	0.88
227.711	1.18
228.094	1.1
228.476	0.87
228.858	0.82
229.24	0.84
229.623	0.95
230.005	0.79
230.387	0.77
230.769	0.8
231.151	0.96
231.533	0.95
231.915	0.96
232.297	0.93
232.679	0.93
233.061	1.08
233.442	1.03
233.824	1.03
234.206	1.07
234.588	1.04
234.969	0.98
235.351	1.02
235.733	1.09
236.114	1.07
236.496	1.02
236.877	1.19
237.259	1
237.64	0.99
238.022	1.06
238.403	1.05
238.784	0.88
239.165	0.92
239.547	1.16
239.928	1.12
240.309	1.09
240.69	1.02
241.071	1.13
241.452	1.1
241.834	1.09
242.215	1.08
242.595	1.13
242.976	1.12
243.357	1.1
243.738	0.99
244.119	1.36
244.5	1.17
244.881	1.11
245.261	1.17
245.642	1.11
246.023	1.07
246.403	1.21
246.784	1.21
247.164	1.39
247.545	1.27
247.925	1.27
248.306	1.14
248.686	1.37
249.067	1.19
249.447	1.25
249.827	1.76
250.207	1.5
250.588	1.24
250.968	1.52
251.348	1.28
251.728	1.44
252.108	1.42
252.488	1.36
252.868	1.27
253.248	1.22
253.628	1.35
254.008	1.37
254.388	1.32
254.768	1.3
255.147	1.33
255.527	1.47
255.907	1.25
256.287	1.24
256.666	1.38
257.046	1.5
257.425	1.5
257.805	1.26
258.184	1.27
258.564	1.43
258.943	1.3
259.323	1.43
259.702	1.54
260.081	1.4
260.461	1.49
260.84	1.51
261.219	1.62
261.598	1.47
261.977	1.43
262.356	1.43
262.736	1.47
263.115	1.55
263.494	1.47
263.873	1.47
264.251	1.48
264.63	1.55
265.009	1.41
265.388	1.4
265.767	1.37
266.145	1.56
266.524	1.38
266.903	1.36
267.281	1.36
267.66	1.56
268.039	1.38
268.417	1.43
268.796	1.33
269.174	1.49
269.552	1.34
269.931	1.52
270.309	1.47
270.687	1.64
271.066	1.68
271.444	1.3
271.822	1.39
272.2	1.44
272.578	1.59
272.956	1.43
273.334	1.38
273.712	1.41
274.09	1.35
274.468	1.41
274.846	1.33
275.224	1.4
275.602	1.46
275.98	1.45
276.357	1.46
276.735	1.35
277.113	1.36
277.49	1.4
277.868	1.32
278.246	1.6
278.623	1.41
279.001	1.38
279.378	1.45
279.756	1.61
280.133	1.77
280.51	1.4
280.888	1.52
281.265	1.24
281.642	1.46
282.019	1.37
282.396	1.7
282.773	1.43
283.151	1.48
283.528	1.36
283.905	1.34
284.282	1.56
284.659	1.41
285.035	1.33
285.412	1.34
285.789	1.41
286.166	1.33
286.543	1.42
286.919	1.45
287.296	1.31
287.673	1.69
288.049	1.48
288.426	1.65
288.802	1.49
289.179	1.39
289.555	1.63
289.932	1.34
290.308	1.37
290.684	1.37
291.061	1.28
291.437	1.44
291.813	1.43
292.189	1.32
292.565	1.29
292.942	1.22
293.318	1.33
293.694	1.43
294.07	1.3
294.446	1.4
294.822	1.6
295.197	1.41
295.573	1.37
295.949	1.49
296.325	1.49
296.701	1.51
297.076	1.48
297.452	1.53
297.828	1.41
298.203	1.8
298.579	1.44
298.954	1.37
299.33	1.44
299.705	1.45
300.081	1.43
300.456	1.59
300.831	1.48
301.206	1.52
301.582	1.53
301.957	1.52
302.332	1.59
302.707	1.41
303.082	1.44
303.457	1.53
303.832	1.61
304.207	1.45
304.582	1.47
304.957	1.43
305.332	1.54
305.707	1.41
306.082	1.47
306.456	1.69
306.831	1.42
307.206	1.59
307.58	1.59
307.955	1.49
308.33	1.55
308.704	1.46
309.079	1.39
309.453	1.71
309.828	1.44
310.202	1.38
310.576	1.55
310.951	1.56
311.325	1.46
311.699	1.55
312.073	1.44
312.447	1.47
312.821	1.5
313.196	1.55
313.57	1.4
313.944	1.42
314.317	1.38
314.691	1.52
315.065	1.41
315.439	1.6
315.813	1.62
316.187	1.4
316.56	1.64
316.934	1.44
317.308	1.46
317.681	1.46
318.055	1.48
318.428	1.56
318.802	1.51
319.175	1.49
319.549	1.56
319.922	1.31
320.295	1.45
320.669	1.75
321.042	1.49
321.415	1.61
321.788	1.5
322.162	1.55
322.535	1.67
322.908	1.5
323.281	1.59
323.654	1.64
324.027	1.4
324.4	1.65
324.773	1.59
325.145	1.55
325.518	1.44
325.891	1.41
326.264	1.67
326.636	1.35
327.009	1.46
327.382	1.42
327.754	1.58
328.127	1.45
328.499	1.54
328.872	1.47
329.244	1.63
329.616	1.37
329.989	1.53
330.361	1.58
330.733	1.44
331.106	1.42
331.478	1.6
331.85	1.43
332.222	1.37
332.594	1.47
332.966	1.43
333.338	1.52
333.71	1.54
334.082	1.65
334.454	1.51
334.826	1.45
335.197	1.48
335.569	1.49
335.941	1.39
336.312	1.51
336.684	1.39
337.056	1.43
337.427	1.46
337.799	1.49
338.17	1.63
338.542	1.44
338.913	1.54
339.284	1.53
339.656	1.51
340.027	1.54
340.398	1.55
340.769	1.67
341.141	1.83
341.512	1.47
341.883	1.48
342.254	1.51
342.625	1.59
342.996	1.43
343.367	1.48
343.738	1.51
344.108	1.42
344.479	1.63
344.85	1.37
345.221	1.53
345.591	1.35
345.962	1.33
346.333	1.41
346.703	1.32
347.074	1.27
347.444	1.31
347.815	1.29
348.185	1.36
348.556	1.44
348.926	1.37
349.296	1.42
349.666	1.32
350.037	1.31
350.407	1.3
350.777	1.37
351.147	1.4
351.517	1.24
351.887	1.32
352.257	1.36
352.627	1.3
352.997	1.35
353.367	1.28
353.737	1.49
354.106	1.28
354.476	1.3
354.846	1.32
355.216	1.34
355.585	1.35
355.955	1.28
356.324	1.27
356.694	1.25
357.063	1.23
357.433	1.17
357.802	1.16
358.171	1.15
358.541	1.22
358.91	1.13
359.279	1.17
359.648	1.09
360.017	1.07
360.387	1.03
360.756	1.02
361.125	1.04
361.494	0.96
361.863	0.94
362.231	0.9
362.6	0.94
362.969	0.9
363.338	0.84
363.707	0.87
364.075	0.84
364.444	0.78
364.813	0.79
365.181	0.77
365.55	0.75
365.918	0.75
366.287	0.71
366.655	0.7
367.024	0.66
367.392	0.67
367.76	0.61
368.128	0.65
368.497	0.62
368.865	0.59
369.233	0.56
369.601	0.57
369.969	0.54
370.337	0.55
370.705	0.51
371.073	0.51
371.441	0.51
371.809	0.47
372.177	0.46
372.544	0.45
372.912	0.45
373.28	0.45
373.647	0.44
374.015	0.43
374.383	0.42
374.75	0.42
375.118	0.38
375.485	0.39
375.853	0.39
376.22	0.35
376.587	0.35
376.955	0.37
377.322	0.34
377.689	0.35
378.056	0.33
378.423	0.32
378.79	0.34
379.157	0.32
379.524	0.3
379.891	0.3
380.258	0.29
380.625	0.28
380.992	0.29
381.359	0.28
381.726	0.28
382.092	0.28
382.459	0.28
382.826	0.27
383.192	0.27
383.559	0.25
383.925	0.25
384.292	0.25
384.658	0.25
385.025	0.24
385.391	0.23
385.757	0.25
386.123	0.24
386.49	0.23
386.856	0.22
387.222	0.22
387.588	0.22
387.954	0.22
388.32	0.22
388.686	0.22
389.052	0.22
389.418	0.22
389.784	0.21
390.15	0.2
390.515	0.21
390.881	0.21
391.247	0.21
391.613	0.22
391.978	0.2
392.344	0.21
392.709	0.19
393.075	0.2
393.44	0.2
393.806	0.2
394.171	0.19
394.536	0.18
394.902	0.18
395.267	0.18
395.632	0.17
395.997	0.18
396.362	0.18
396.727	0.19
397.092	0.18
397.457	0.16
397.822	0.18
398.187	0.16
398.552	0.16
398.917	0.16
399.282	0.16
399.646	0.16
400.011	0.18
400.376	0.16
400.74	0.17
401.105	0.16
401.47	0.17
401.834	0.15
402.199	0.15
402.563	0.13
402.927	0.14
403.292	0.15
403.656	0.16
404.02	0.16
404.384	0.15
404.749	0.15
405.113	0.15
405.477	0.15
405.841	0.14
406.205	0.15
406.569	0.15
406.933	0.14
407.296	0.14
407.66	0.14
408.024	0.14
408.388	0.14
408.752	0.14
409.115	0.13
409.479	0.13
409.842	0.13
410.206	0.13
410.569	0.14
410.933	0.13
411.296	0.14
411.66	0.12
412.023	0.13
412.386	0.12
412.749	0.12
413.113	0.12
413.476	0.1
413.839	0.13
414.202	0.11
414.565	0.1
414.928	0.12
415.291	0.09
415.654	0.11
416.017	0.11
416.38	0.1
416.742	0.1
417.105	0.09
417.468	0.11
417.83	0.11
418.193	0.1
418.556	0.1
418.918	0.09
419.281	0.09
419.643	0.08
420.005	0.1
420.368	0.09
420.73	0.08
421.092	0.08
421.455	0.08
421.817	0.08
422.179	0.08
422.541	0.08
422.903	0.08
423.265	0.08
423.627	0.08
423.989	0.08
424.351	0.08
424.713	0.08
425.075	0.07
425.436	0.07
425.798	0.06
426.16	0.07
426.521	0.08
426.883	0.08
427.245	0.07
427.606	0.06
427.967	0.08
428.329	0.07
428.69	0.07
429.052	0.07
429.413	0.06
429.774	0.06
430.135	0.06
430.497	0.06
430.858	0.06
431.219	0.05
431.58	0.06
431.941	0.06
432.302	0.08
432.663	0.05
433.024	0.06
433.384	0.06
433.745	0.05
434.106	0.06
434.467	0.06
434.827	0.06
435.188	0.07
435.548	0.07
435.909	0.05
436.269	0.06
436.63	0.06
436.99	0.06
437.351	0.06
437.711	0.06
438.071	0.06
438.431	0.06
438.792	0.05
439.152	0.05
439.512	0.05
439.872	0.06
440.232	0.06
440.592	0.06
440.952	0.05
441.312	0.05
441.671	0.05
442.031	0.04
442.391	0.05
442.751	0.05
443.11	0.05
443.47	0.04
443.83	0.04
444.189	0.05
444.549	0.04
444.908	0.05
445.267	0.04
445.627	0.04
445.986	0.03
446.345	0.03
446.705	0.03
447.064	0.04
447.423	0.05
447.782	0.05
448.141	0.05
448.5	0.04
448.859	0.05
449.218	0.05
449.577	0.05
449.936	0.05
450.295	0.06
450.653	0.04
451.012	0.05
451.371	0.05
451.729	0.06
452.088	0.05
452.447	0.05
452.805	0.05
453.163	0.05
453.522	0.06
453.88	0.05
454.239	0.05
454.597	0.04
454.955	0.04
455.313	0.04
455.671	0.05
456.029	0.03
456.388	0.04
456.746	0.04
457.104	0.04
457.461	0.03
457.819	0.04
458.177	0.03
458.535	0.03
458.893	0.02
459.25	0.03
459.608	0.03
459.966	0.03
460.323	0.02
460.681	0.02
461.038	0.03
461.396	0.03
461.753	0.04
462.111	0.03
462.468	0.03
462.825	0.03
463.182	0.03
463.54	0.03
463.897	0.03
464.254	0.03
464.611	0.03
464.968	0.03
465.325	0.03
465.682	0.02
466.039	0.03
466.395	0.03
466.752	0.02
467.109	0.03
467.466	0.04
467.822	0.03
468.179	0.02
468.535	0.03
468.892	0.03
469.248	0.02
469.605	0.03
469.961	0.02
470.318	0.04
470.674	0.03
471.03	0.02
471.386	0.04
471.743	0.02
472.099	0.02
472.455	0.03
472.811	0.02
473.167	0.03
473.523	0.03
473.879	0.03
474.235	0.03
474.59	0.03
474.946	0.03
475.302	0.03
475.657	0.03
476.013	0.03
476.369	0.02
476.724	0.03
477.08	0.03
477.435	0.03
477.791	0.03
478.146	0.03
478.501	0.03
478.857	0.03
479.212	0.03
479.567	0.03
479.922	0.02
480.277	0.02
480.632	0.02
480.987	0.02
481.342	0.02
481.697	0.02
482.052	0.02
482.407	0.02
482.762	0.02
483.116	0.02
483.471	0.02
483.826	0.02
484.18	0.03
484.535	0.02
484.89	0.02
485.244	0.02
485.598	0.03
485.953	0.03
486.307	0.03
486.661	0.03
487.016	0.02
487.37	0.03
487.724	0.02
488.078	0.03
488.432	0.03
488.786	0.03
489.14	0.02
489.494	0.02
489.848	0.02
490.202	0.02
490.556	0.02
490.91	0.02
491.263	0.02
491.617	0.03
491.971	0.02
492.324	0.02
492.678	0.02
493.031	0.03
493.385	0.02
493.738	0.02
494.091	0.02
494.445	0.03
494.798	0.03
495.151	0.02
495.504	0.02
495.857	0.02
496.21	0.02
496.564	0.02
496.916	0.03
497.269	0.02
497.622	0.03
497.975	0.02
498.328	0.03
498.681	0.03
499.033	0.03
499.386	0.02
499.739	0.03
500.091	0.02
500.444	0.02
500.796	0.03
501.149	0.02
501.501	0.02
501.854	0.03
502.206	0.02
502.558	0.02
502.91	0.02
503.263	0.02
503.615	0.02
503.967	0.02
504.319	0.02
504.671	0.02
505.023	0.02
505.375	0.02
505.726	0.02
506.078	0.02
506.43	0.01
506.782	0.01
507.133	0.02
507.485	0.03
507.837	0.03
508.188	0.03
508.54	0.03
508.891	0.02
509.243	0.02
509.594	0.02
509.945	0.02
510.296	0.02
510.648	0.02
510.999	0.01
511.35	0.02
511.701	0.02
512.052	0.02
512.403	0.02
512.754	0.01
513.105	0.01
513.456	0.01
513.807	0.01
514.157	0.01
514.508	0.01
514.859	0
515.209	0.01
515.56	0.01
515.91	0.01
516.261	0.02
516.611	0.01
516.962	0.01
517.312	0.01
517.662	0.01
518.013	0.01
518.363	0.02
518.713	0.01
519.063	0.02
519.413	0.02
519.763	0.01
520.113	0.01
520.463	0.02
520.813	0.01
521.163	0.02
521.512	0.02
521.862	0.02
522.212	0.02
522.562	0.02
522.911	0.02
523.261	0.01
523.61	0.02
523.96	0.02
524.309	0.02
524.658	0.01
525.008	0.02
525.357	0.02
525.706	0.03
526.056	0.01
526.405	0.02
526.754	0.02
527.103	0.02
527.452	0.02
527.801	0.01
528.15	0.01
528.499	0.01
528.847	0.01
529.196	0.02
529.545	0.02
529.893	0.02
530.242	0.01
530.591	0.02
530.939	0.02
531.288	0.02
531.636	0.02
531.985	0.02
532.333	0.01
532.681	0.02
533.029	0.01
533.378	0.02
533.726	0.02
534.074	0.02
534.422	0.01
534.77	0.02
535.118	0.01
535.466	0.02
535.814	0.01
536.162	0.01
536.509	0.01
536.857	0.01
537.205	0.02
537.552	0.01
537.9	0.02
538.248	0.01
538.595	0.01
538.943	0.02
539.29	0.01
539.637	0.01
539.985	0.01
540.332	0.01
540.679	0.01
541.026	0.01
541.373	0.01
541.721	0.01
542.068	0.01
542.415	0.02
542.762	0.01
543.108	0
543.455	0.01
543.802	0
544.149	0
544.496	0.01
544.842	0.01
545.189	0
545.535	0.01
545.882	0.01
546.228	0
546.575	0.01
546.921	0
547.267	0.01
547.614	-0
547.96	0
548.306	0.01
548.652	0.01
548.998	0.01
549.344	0
549.69	-0
550.036	0.01
550.382	0
550.728	0
551.074	0.01
551.42	0
551.765	0.01
552.111	0.01
552.457	0.01
552.802	0.01
553.148	-0
553.493	0
553.839	0.01
554.184	0.01
554.529	0
554.875	0.01
555.22	0.01
555.565	0.01
555.91	-0
556.255	0.01
556.6	0
556.945	-0
557.29	0
557.635	0
557.98	0
558.325	-0
558.67	0
559.014	0.01
559.359	0
559.704	-0
560.048	-0
560.393	-0.01
560.737	-0.01
561.082	0
561.426	-0.01
561.77	-0
562.115	-0.01
562.459	-0.01
562.803	-0.01
563.147	-0
563.491	-0
563.835	-0
564.179	-0.01
564.523	-0.01
564.867	-0.01
565.211	-0
565.555	-0
565.899	0
566.242	-0
566.586	-0.01
566.93	0
567.273	0
567.617	0
567.96	0
568.304	0.01
568.647	-0
568.99	0
569.334	0.01
569.677	0
570.02	0
570.363	0.01
570.706	0.01
571.049	0.01
571.392	0.01
571.735	0.01
572.078	0.01
572.421	0.01
572.764	0
573.106	0.01
573.449	0
573.792	-0
574.134	0
574.477	0.01
574.819	-0
575.162	0.01
575.504	-0
575.847	0
576.189	0
576.531	-0
576.873	-0
577.215	-0
577.558	-0
577.9	-0
578.242	-0
578.584	-0
578.926	-0.01
579.267	-0.01
579.609	-0.01
579.951	-0.01
580.293	-0
580.634	-0
580.976	-0
581.318	-0.01
581.659	-0.01
582.001	0
582.342	-0.01
582.683	-0
583.025	-0.01
583.366	-0
583.707	-0.01
584.049	-0.01
584.39	-0
584.731	-0.01
585.072	-0.01
585.413	-0.01
585.754	-0.01
586.095	0
586.435	-0
586.776	-0
587.117	0
587.458	-0
587.798	-0
588.139	-0
588.48	-0.01
588.82	-0.01
589.161	-0
589.501	-0.01
589.841	-0.01
590.182	-0.01
590.522	-0.01
590.862	-0
591.202	-0.01
591.542	-0.01
591.882	-0
592.222	-0
592.562	-0.01
592.902	-0
593.242	-0.01
593.582	-0
593.922	-0.01
594.261	-0.01
594.601	-0
594.941	-0.01
595.28	-0
595.62	-0
595.959	-0
596.299	-0.01
596.638	-0
596.977	-0.01
597.317	0
597.656	0.01
597.995	-0
598.334	0
598.673	-0
599.012	-0
599.351	0
599.69	-0
600.029	0
600.368	-0
600.707	0
601.046	-0
601.384	0
601.723	0
602.061	0
602.4	-0
602.738	-0
603.077	0
603.415	-0.01
603.754	0
604.092	0
604.43	-0
604.768	0
605.107	0
605.445	0
605.783	-0
606.121	-0
606.459	0
606.796	0.01
607.134	0
607.472	-0
607.81	0
608.148	0
608.485	0
608.823	0
609.16	-0
609.498	0
609.835	0
610.173	0.01
610.51	0.01
610.847	0.01
611.185	0.01
611.522	0.01
611.859	0.01
612.196	0.01
612.533	0.02
612.87	0.01
613.207	0.02
613.544	0.01
613.881	0.02
614.217	0.01
614.554	0.01
614.891	0.01
615.228	0.01
615.564	0.01
615.901	0.01
616.237	0.01
616.574	0.01
616.91	0.02
617.246	0.01
617.583	0.02
617.919	0.02
618.255	0.01
618.591	0.02
618.927	0.01
619.263	0.02
619.599	0.02
619.935	0.01
620.271	0.01
620.607	0.01
620.943	0.01
621.279	0.01
621.614	0.01
621.95	0.02
622.286	0.01
622.621	0.01
622.957	0.01
623.292	0
623.627	0.01
623.963	0.01
624.298	0.01
624.633	0
624.968	-0
625.304	0
625.639	0
625.974	0
626.309	0.01
626.644	0.01
626.979	0.02
627.313	0.01
627.648	0.01
627.983	0.01
628.318	0.01
628.652	0.01
628.987	0.01
629.321	0.01
629.656	0.01
629.99	-0
630.325	0.01
630.659	0.01
630.993	-0
631.327	0
631.662	-0.01
631.996	-0.01
632.33	-0
632.664	-0
632.998	-0.01
633.332	-0.01
633.666	-0
633.999	-0
634.333	-0.01
634.667	-0.01
635.001	-0.01
635.334	-0.01
635.668	-0.01
636.001	-0
636.335	0
636.668	0
637.001	-0.01
637.335	0
637.668	0.01
638.001	-0
638.334	0
638.668	0
639.001	-0.01
639.334	-0
639.667	-0.01
639.999	-0.01
640.332	-0
640.665	-0.01
640.998	-0
641.331	0
641.663	-0
641.996	-0
642.328	0
642.661	0
642.993	-0
643.326	0
643.658	0
643.99	-0.01
644.323	-0
644.655	0.01
644.987	0
645.319	0.01
645.651	0.01
645.983	0
646.315	-0
646.647	0.01
646.979	0.02
647.31	0.01
647.642	0.01
647.974	0.01
648.305	0.01
648.637	0.01
648.968	0.01
649.3	0.01
649.631	0.01
649.963	0.01
650.294	0.01
650.625	0.01
650.957	0.01
651.288	0.01
651.619	0.01
651.95	0.01
652.281	0.01
652.612	0.01
652.943	0.01
653.274	0.01
653.604	0.01
653.935	0.01
654.266	0.01
654.596	0.01
654.927	0.01
655.258	0.01
655.588	0.02
655.918	0.02
656.249	-0
656.579	0.01
656.909	0.01
657.24	0.01
657.57	0.01
657.9	0.02
658.23	0.02
658.56	0.02
658.89	0.02
659.22	0.02
659.55	0.01
659.88	0.01
660.209	0.02
660.539	0.03
660.869	0.02
661.198	0.02
661.528	0.01
661.857	0.02
662.187	0.02
662.516	0.02
662.846	0.01
663.175	0.01
663.504	0.02
663.833	0.01
664.163	0.02
664.492	0.01
664.821	0.01
665.15	0.01
665.479	0.01
665.807	0
666.136	0.01
666.465	0.01
666.794	0.01
667.122	0.01
667.451	0.01
667.78	0.01
668.108	0.01
668.437	0.01
668.765	0.01
669.093	0.01
669.422	0.01
669.75	0.01
670.078	0.01
670.406	0.02
670.734	0.02
671.062	0.01
671.39	0.02
671.718	0.02
672.046	0.02
672.374	0.01
672.702	0.01
673.029	0.02
673.357	0.02
673.685	0.02
674.012	0.02
674.34	0.02
674.667	0.02
674.995	0.02
675.322	0.02
675.649	0.01
675.977	0.01
676.304	0.02
676.631	0.01
676.958	0.01
677.285	0
677.612	0
677.939	0
678.266	0.01
678.593	0
678.92	0.01
679.246	-0
679.573	0
679.9	-0
680.226	0
680.553	-0
680.879	0.01
681.206	0
681.532	0
681.858	0.01
682.184	0
682.511	0
682.837	-0
683.163	0
683.489	0
683.815	0.01
684.141	0
684.467	0.01
684.793	0
685.118	0
685.444	0.01
685.77	0
686.095	0.01
686.421	0.01
686.746	0.01
687.072	0.01
687.397	-0
687.723	0.02
688.048	0.01
688.373	0.01
688.698	0.01
689.023	0.01
689.349	0.01
689.674	0.01
689.999	0.01
690.323	0.01
690.648	0
690.973	0.01
691.298	0
691.623	0.01
691.947	0.01
692.272	-0
692.596	0
692.921	0.01
693.245	-0
693.57	0.01
693.894	0.01
694.218	0
694.543	0
694.867	0
695.191	0
695.515	0.01
695.839	-0
696.163	0
696.487	0
696.811	0
697.135	0
697.458	0.01
697.782	0
698.106	0
698.429	0.01
698.753	0
699.076	0
699.4	0
699.723	0.01
700.046	0
700.37	0.01
700.693	0.01
701.016	0
701.339	0
701.662	0.01
701.985	0.01
702.308	0.01
702.631	0.01
702.954	0.01
703.277	0.01
703.599	0.01
703.922	0
704.245	0
704.567	-0.01
704.89	0
705.212	-0
705.535	-0.01
705.857	-0.01
706.179	-0.01
706.502	-0.01
706.824	-0.01
707.146	-0.01
707.468	-0
707.79	-0.01
708.112	-0.01
708.434	0
708.756	-0
709.078	-0.01
709.399	-0
709.721	-0.01
710.043	-0
710.364	-0.01
710.686	0
711.007	-0
711.329	-0
711.65	-0
711.972	0
712.293	0
712.614	0.01
712.935	0.01
713.256	0.01
713.577	0.02
713.898	0
714.219	0
714.54	0
714.861	0
715.182	0
715.503	0
715.823	0.01
716.144	0
716.464	0
716.785	0
717.105	0.01
717.426	0
717.746	-0
718.066	-0.01
718.387	-0
718.707	-0.01
719.027	0.01
719.347	-0.01
719.667	-0
719.987	-0
720.307	-0.01
720.627	-0
720.947	0
721.266	-0
721.586	-0.01
721.906	0
722.225	-0
722.545	0
722.864	-0
723.184	0.01
723.503	0
723.823	0.01
724.142	-0
724.461	0.01
724.78	0
725.099	0.01
725.418	0.01
725.737	0
726.056	0.01
726.375	0.01
726.694	0.01
727.013	0.01
727.331	0
727.65	0
727.969	0
728.287	0
728.606	0
728.924	-0
729.242	0.01
729.561	0
729.879	0
730.197	0
730.515	0
730.834	-0
731.152	0
731.47	0.01
731.788	0.01
732.105	-0
732.423	0.01
732.741	0
733.059	0
733.376	0.01
733.694	-0
734.012	0
734.329	0.01
734.647	0
734.964	0.01
735.281	0
735.599	0.01
735.916	0.01
736.233	0.01
736.55	0.01
736.867	0.01
737.184	0.01
737.501	0
737.818	0.01
738.135	0.02
738.452	0.01
738.768	0.01
739.085	0.01
739.402	0
739.718	0.01
740.035	0
740.351	0.02
740.668	0.01
740.984	0.01
741.3	0.01
741.617	0.01
741.933	0.01
742.249	0.02
742.565	0.01
742.881	0.01
743.197	0.01
743.513	0
743.829	0.01
744.144	0
744.46	0
744.776	0
745.091	0
745.407	0.01
745.722	0.01
746.038	0.01
746.353	0
746.669	0.01
746.984	-0
747.299	0
747.614	0.02
747.93	0.01
748.245	-0
748.56	0
748.875	-0
749.189	-0
749.504	0.01
749.819	0.01
750.134	0
750.448	-0
750.763	0
751.078	0
751.392	0.01
751.707	0.02
752.021	0.02
752.335	0.02
752.65	0.01
752.964	0.01
753.278	0.01
753.592	0
753.906	0
754.22	0.01
754.534	0.01
754.848	0.01
755.162	0.01
755.476	0.01
755.789	0.01
756.103	0
756.417	0.02
756.73	0.01
757.044	0.01
757.357	0.01
757.671	0.01
757.984	0.01
758.297	0.01
758.61	0.02
758.924	0.01
759.237	0.01
759.55	0.02
759.863	0.01
760.176	0.01
760.488	0.01
760.801	0.01
761.114	0.01
761.427	0.01
761.739	0.01
762.052	0.01
762.365	0.02
762.677	0.01
762.99	0
763.302	0.01
763.614	0.02
763.926	0.02
764.239	0.02
764.551	0.01
764.863	0.02
765.175	0.02
765.487	0.01
765.799	0.01
766.111	0
766.423	0.01
766.734	0.01
767.046	0.01
767.358	0.02
767.669	0.01
767.981	0.01
768.292	0.01
768.604	0.01
768.915	0.01
769.226	0.01
769.537	-0
769.849	0.01
770.16	0
770.471	0
770.782	0
771.093	0.01
771.404	-0.01
771.715	0
772.025	0
772.336	0
772.647	0
772.957	-0
773.268	0
773.578	-0
773.889	0.01
774.199	0.01
774.51	0
774.82	0
775.13	0.01
775.44	0
775.75	0.01
776.06	0.02
776.37	0.01
776.68	0.01
776.99	0.01
777.3	0.01
777.61	0.01
777.92	0.01
778.229	0.01
778.539	0.01
778.848	0
779.158	0.02
779.467	0.02
779.777	0.01
780.086	0.02
780.395	0.01
780.704	0.01
781.013	0
781.323	0.01
781.632	0.01
781.941	0.02
782.249	0.01
782.558	0.02
782.867	0.02
783.176	0.01
783.485	0
783.793	0.01
784.102	0.02
784.41	0.01
784.719	0.01
785.027	0.01
785.335	0
785.644	0.02
785.952	0.01
786.26	0.02
786.568	0.01
786.876	-0
787.184	0.01
787.492	0.02
787.8	0.01
788.108	0.01
788.416	0.01
788.723	0.01
789.031	0
789.338	0.01
789.646	0.01
789.953	0.01
790.261	0.02
790.568	0.02
790.876	0.01
791.183	0.02
791.49	0.01
791.797	0.02
792.104	0.01
792.411	0.02
792.718	0.01
793.025	0.02
793.332	0.01
793.639	0.02
793.945	0.03
794.252	0.02
794.559	0.02
794.865	0.02
795.172	0.02
795.478	0.01
795.784	0.02
796.091	0.02
796.397	0.02
796.703	0.02
797.009	0.03
797.315	0.02
797.622	0.02
797.927	0.01
798.233	0.01
798.539	0.02
798.845	0.01
799.151	0.02
799.456	0.01
799.762	0.01
800.068	0.01
800.373	0.02
800.679	0.01
800.984	0
801.289	0.01
801.595	0.01
801.9	0.01
802.205	0.01
802.51	0.01
802.815	0.01
803.12	0.01
803.425	0.01
803.73	0.01
804.035	0.01
804.339	0.01
804.644	0.01
804.949	0.02
805.253	0.01
805.558	0.01
805.862	0.01
806.167	0.01
806.471	0.01
806.775	0.01
807.08	0.01
807.384	0.01
807.688	0.02
807.992	0.01
808.296	0.01
808.6	0.01
808.904	0.02
809.207	0.02
809.511	0.02
809.815	0.02
810.119	0.02
810.422	0.02
810.726	0.03
811.029	0.03
811.332	0.02
811.636	0.02
811.939	0.01
812.242	0.03
812.546	0.03
812.849	0.02
813.152	0.03
813.455	0.02
813.758	0.03
814.06	0.03
814.363	0.02
814.666	0.03
814.969	0.03
815.271	0.03
815.574	0.03
815.877	0.03
816.179	0.02
816.481	0.02
816.784	0.03
817.086	0.02
817.388	0.01
817.69	0.02
817.993	0.01
818.295	0.02
818.597	0.02
818.899	0.01
819.2	0.01
819.502	0.01
819.804	0.02
820.106	0.01
820.407	0.01
820.709	0.02
821.01	0.01
821.312	0.01
821.613	-0.01
821.915	0
822.216	-0
822.517	-0
822.818	-0
823.119	0
823.42	-0
823.721	0
824.022	0
824.323	-0
824.624	-0
824.925	-0
825.226	0
825.526	-0
825.827	-0
826.127	0
826.428	0.01
826.728	-0
827.028	-0
827.329	-0
827.629	-0.01
827.929	0
828.229	0
828.529	0
828.829	-0
829.129	0
829.429	0
829.729	0
830.029	-0.01
830.328	-0
830.628	-0.01
830.927	-0.01
831.227	-0
831.526	-0
831.826	0
832.125	-0
832.424	-0.01
832.724	-0
833.023	0
833.322	-0.01
833.621	-0
833.92	-0.01
834.219	-0.01
834.518	-0.01
834.816	-0.02
835.115	-0.01
835.414	-0.01
835.712	-0.02
836.011	-0.02
836.309	-0.02
836.608	-0.02
836.906	-0.02
837.205	-0.03
837.503	-0.02
837.801	-0.02
838.099	-0.03
838.397	-0.04
838.695	-0.03
838.993	-0.03
839.291	-0.03
839.589	-0.03
839.887	-0.03
840.184	-0.04
840.482	-0.04
840.78	-0.04
841.077	-0.04
841.375	-0.04
841.672	-0.04
841.969	-0.04
842.267	-0.04
842.564	-0.05
842.861	-0.04
843.158	-0.05
843.455	-0.06
843.752	-0.05
844.049	-0.05
844.346	-0.05
844.643	-0.06
844.94	-0.05
845.236	-0.04
845.533	-0.05
845.83	-0.05
846.126	-0.06
846.423	-0.06
846.719	-0.07
847.015	-0.06
847.312	-0.06
847.608	-0.07
847.904	-0.08
848.2	-0.08
848.496	-0.07
848.792	-0.07
849.088	-0.07
849.384	-0.07
849.68	-0.08
849.975	-0.08
850.271	-0.1
850.567	-0.09
850.862	-0.09
851.158	-0.1
851.453	-0.09
851.748	-0.09
852.044	-0.09
852.339	-0.09
852.634	-0.11
852.929	-0.1
853.224	-0.11
853.519	-0.1
853.814	-0.1
854.109	-0.11
854.404	-0.12
854.699	-0.11
854.994	-0.1
855.288	-0.11
855.583	-0.11
855.877	-0.11
856.172	-0.12
856.466	-0.11
856.76	-0.11
857.055	-0.12
857.349	-0.13
857.643	-0.12
857.937	-0.13
858.231	-0.13
858.525	-0.12
858.819	-0.13
859.113	-0.14
859.407	-0.14
859.701	-0.14
859.994	-0.14
860.288	-0.12
860.581	-0.14
860.875	-0.14
861.168	-0.14
861.462	-0.13
861.755	-0.14
862.048	-0.14
862.341	-0.13
862.634	-0.14
862.928	-0.12
863.221	-0.13
863.513	-0.13
863.806	-0.13
864.099	-0.13
864.392	-0.13
864.685	-0.13
864.977	-0.13
865.27	-0.13
865.562	-0.13
865.855	-0.14
866.147	-0.13
866.44	-0.13
866.732	-0.14
867.024	-0.15
867.316	-0.14
867.608	-0.15
867.9	-0.15
868.192	-0.15
868.484	-0.15
868.776	-0.16
869.068	-0.16
869.359	-0.15
869.651	-0.16
869.943	-0.16
870.234	-0.17
870.526	-0.16
870.817	-0.17
871.108	-0.15
871.4	-0.16
871.691	-0.16
871.982	-0.16
872.273	-0.17
872.564	-0.17
872.855	-0.16
873.146	-0.18
873.437	-0.17
873.728	-0.17
874.019	-0.17
874.309	-0.18
874.6	-0.17
874.89	-0.17
875.181	-0.18
875.471	-0.18
875.762	-0.18
876.052	-0.16
876.342	-0.16
876.632	-0.17
876.922	-0.18
877.213	-0.18
877.503	-0.18
877.792	-0.18
878.082	-0.19
878.372	-0.18
878.662	-0.19
878.952	-0.18
879.241	-0.18
879.531	-0.17
879.82	-0.19
880.11	-0.18
880.399	-0.18
880.688	-0.18
880.978	-0.18
881.267	-0.18
