Data from 12-12-AQDScycling_Absorbance__485__00485.txt Node

Date: Tue Dec 12 12:57:59 EST 2023
User: kyuminlee
Spectrometer: FLMS00943
Trigger mode: 0
Integration Time (sec): 1.000000E-1
Scans to average: 1
Electric dark correction enabled: true
Nonlinearity correction enabled: false
Boxcar width: 0
XAxis mode: Wavelengths
Number of Pixels in Spectrum: 2048
>>>>>Begin Spectral Data<<<<<
179.651	-0
180.037	-0
180.424	-0
180.81	0.14
181.197	0.06
181.583	-0
181.97	0.51
182.356	-0
182.743	-0.54
183.129	0.33
183.515	-0
183.901	-0
184.288	-0.03
184.674	-0
185.06	-0
185.446	0.74
185.832	-1.08
186.218	0.4
186.604	-0
186.99	-0
187.376	-0
187.762	-0
188.148	1.19
188.534	-0.06
188.92	0.1
189.305	0.04
189.691	0.1
190.077	0.02
190.463	0.02
190.848	0.12
191.234	0.03
191.619	0.08
192.005	0.07
192.391	0.02
192.776	0.11
193.161	0.14
193.547	0.09
193.932	0.14
194.318	0.01
194.703	0.16
195.088	0.24
195.473	0.18
195.859	0.14
196.244	0.17
196.629	0.13
197.014	0.03
197.399	0
197.784	0.11
198.169	0.02
198.554	0.38
198.939	0.13
199.324	0.09
199.709	0.03
200.094	0.07
200.478	0.12
200.863	0.16
201.248	0.27
201.633	0.08
202.017	0.1
202.402	0.33
202.787	0.12
203.171	0.03
203.556	0.28
203.94	0.31
204.325	0.31
204.709	0.09
205.093	0.05
205.478	0.18
205.862	0.07
206.246	0.18
206.631	0.22
207.015	0.1
207.399	0.23
207.783	0.13
208.167	0.07
208.551	0.08
208.935	0.08
209.319	0.2
209.703	0.11
210.087	0.25
210.471	0.18
210.855	0.23
211.239	0.44
211.623	0.18
212.007	0.25
212.39	0.25
212.774	0.32
213.158	0.13
213.541	0.27
213.925	0.15
214.309	0.28
214.692	0.24
215.076	0.18
215.459	0.22
215.842	0.14
216.226	0.2
216.609	0.3
216.993	0.19
217.376	0.29
217.759	0.1
218.142	0.18
218.525	0.46
218.909	0.44
219.292	0.3
219.675	0.41
220.058	0.56
220.441	0.73
220.824	0.33
221.207	0.6
221.59	0.44
221.973	0.53
222.355	0.56
222.738	0.68
223.121	0.6
223.504	0.54
223.886	0.59
224.269	0.68
224.652	0.73
225.034	0.73
225.417	0.68
225.799	0.77
226.182	0.84
226.564	1.08
226.947	0.79
227.329	0.72
227.711	0.93
228.094	0.97
228.476	0.96
228.858	0.82
229.24	0.81
229.623	0.98
230.005	0.88
230.387	0.87
230.769	0.8
231.151	0.95
231.533	1.02
231.915	0.96
232.297	0.97
232.679	1.02
233.061	1.06
233.442	0.9
233.824	1.01
234.206	1.09
234.588	1.1
234.969	0.97
235.351	0.88
235.733	1.13
236.114	1.12
236.496	1.01
236.877	1.26
237.259	0.97
237.64	1.02
238.022	1
238.403	1
238.784	1.13
239.165	1.11
239.547	1.08
239.928	1.11
240.309	1.01
240.69	1.01
241.071	1.05
241.452	1.17
241.834	1.1
242.215	1.02
242.595	0.95
242.976	1.22
243.357	1.16
243.738	1.06
244.119	1.27
244.5	1.06
244.881	1.26
245.261	1.18
245.642	1.19
246.023	1.06
246.403	1.19
246.784	1.25
247.164	1.19
247.545	1.23
247.925	1.26
248.306	1.28
248.686	1.39
249.067	1.14
249.447	1.23
249.827	1.57
250.207	1.43
250.588	1.29
250.968	1.34
251.348	1.36
251.728	1.38
252.108	1.32
252.488	1.34
252.868	1.37
253.248	1.37
253.628	1.49
254.008	1.31
254.388	1.29
254.768	1.25
255.147	1.25
255.527	1.36
255.907	1.32
256.287	1.39
256.666	1.47
257.046	1.37
257.425	1.55
257.805	1.26
258.184	1.24
258.564	1.39
258.943	1.43
259.323	1.42
259.702	1.59
260.081	1.35
260.461	1.4
260.84	1.48
261.219	1.53
261.598	1.52
261.977	1.53
262.356	1.45
262.736	1.47
263.115	1.54
263.494	1.37
263.873	1.29
264.251	1.57
264.63	1.46
265.009	1.45
265.388	1.38
265.767	1.29
266.145	1.66
266.524	1.41
266.903	1.52
267.281	1.38
267.66	1.46
268.039	1.62
268.417	1.54
268.796	1.38
269.174	1.39
269.552	1.3
269.931	1.41
270.309	1.55
270.687	1.43
271.066	1.59
271.444	1.37
271.822	1.61
272.2	1.43
272.578	1.29
272.956	1.57
273.334	1.28
273.712	1.43
274.09	1.51
274.468	1.29
274.846	1.21
275.224	1.24
275.602	1.45
275.98	1.36
276.357	1.39
276.735	1.52
277.113	1.39
277.49	1.36
277.868	1.25
278.246	1.36
278.623	1.32
279.001	1.36
279.378	1.4
279.756	1.52
280.133	1.6
280.51	1.41
280.888	1.44
281.265	1.33
281.642	1.46
282.019	1.57
282.396	1.61
282.773	1.4
283.151	1.48
283.528	1.5
283.905	1.39
284.282	1.51
284.659	1.49
285.035	1.37
285.412	1.32
285.789	1.6
286.166	1.38
286.543	1.43
286.919	1.43
287.296	1.36
287.673	1.51
288.049	1.46
288.426	1.62
288.802	1.5
289.179	1.61
289.555	1.67
289.932	1.47
290.308	1.34
290.684	1.43
291.061	1.34
291.437	1.74
291.813	1.32
292.189	1.32
292.565	1.31
292.942	1.31
293.318	1.37
293.694	1.46
294.07	1.27
294.446	1.5
294.822	1.55
295.197	1.5
295.573	1.51
295.949	1.45
296.325	1.52
296.701	1.44
297.076	1.63
297.452	1.6
297.828	1.48
298.203	1.53
298.579	1.44
298.954	1.46
299.33	1.45
299.705	1.43
300.081	1.48
300.456	1.48
300.831	1.38
301.206	1.57
301.582	1.65
301.957	1.55
302.332	1.62
302.707	1.47
303.082	1.44
303.457	1.57
303.832	1.42
304.207	1.4
304.582	1.51
304.957	1.51
305.332	1.54
305.707	1.57
306.082	1.58
306.456	1.5
306.831	1.51
307.206	1.6
307.58	1.53
307.955	1.52
308.33	1.46
308.704	1.49
309.079	1.61
309.453	1.54
309.828	1.57
310.202	1.5
310.576	1.53
310.951	1.55
311.325	1.63
311.699	1.6
312.073	1.49
312.447	1.54
312.821	1.37
313.196	1.57
313.57	1.36
313.944	1.5
314.317	1.36
314.691	1.43
315.065	1.51
315.439	1.53
315.813	1.48
316.187	1.47
316.56	1.67
316.934	1.58
317.308	1.51
317.681	1.57
318.055	1.43
318.428	1.46
318.802	1.66
319.175	1.5
319.549	1.59
319.922	1.52
320.295	1.43
320.669	1.63
321.042	1.58
321.415	1.66
321.788	1.52
322.162	1.36
322.535	1.67
322.908	1.68
323.281	1.44
323.654	1.65
324.027	1.44
324.4	1.51
324.773	1.58
325.145	1.5
325.518	1.37
325.891	1.52
326.264	1.52
326.636	1.42
327.009	1.41
327.382	1.53
327.754	1.54
328.127	1.47
328.499	1.59
328.872	1.47
329.244	1.56
329.616	1.39
329.989	1.46
330.361	1.47
330.733	1.49
331.106	1.37
331.478	1.71
331.85	1.49
332.222	1.39
332.594	1.51
332.966	1.48
333.338	1.65
333.71	1.56
334.082	1.58
334.454	1.65
334.826	1.54
335.197	1.51
335.569	1.52
335.941	1.46
336.312	1.64
336.684	1.43
337.056	1.52
337.427	1.61
337.799	1.68
338.17	1.52
338.542	1.43
338.913	1.55
339.284	1.65
339.656	1.46
340.027	1.55
340.398	1.56
340.769	1.65
341.141	1.62
341.512	1.59
341.883	1.64
342.254	1.62
342.625	1.55
342.996	1.46
343.367	1.48
343.738	1.54
344.108	1.53
344.479	1.56
344.85	1.49
345.221	1.51
345.591	1.44
345.962	1.37
346.333	1.55
346.703	1.37
347.074	1.44
347.444	1.49
347.815	1.48
348.185	1.45
348.556	1.49
348.926	1.32
349.296	1.28
349.666	1.51
350.037	1.23
350.407	1.27
350.777	1.39
351.147	1.3
351.517	1.4
351.887	1.38
352.257	1.33
352.627	1.28
352.997	1.28
353.367	1.39
353.737	1.41
354.106	1.39
354.476	1.26
354.846	1.28
355.216	1.42
355.585	1.4
355.955	1.35
356.324	1.44
356.694	1.29
357.063	1.27
357.433	1.23
357.802	1.29
358.171	1.27
358.541	1.23
358.91	1.22
359.279	1.27
359.648	1.17
360.017	1.23
360.387	1.15
360.756	1.11
361.125	1.14
361.494	1.12
361.863	1.05
362.231	1.1
362.6	1.09
362.969	1.09
363.338	1.01
363.707	1.03
364.075	1.04
364.444	0.96
364.813	0.99
365.181	0.96
365.55	0.99
365.918	0.96
366.287	0.96
366.655	0.9
367.024	0.95
367.392	0.93
367.76	0.89
368.128	0.87
368.497	0.89
368.865	0.88
369.233	0.84
369.601	0.86
369.969	0.84
370.337	0.81
370.705	0.82
371.073	0.82
371.441	0.84
371.809	0.81
372.177	0.79
372.544	0.79
372.912	0.77
373.28	0.79
373.647	0.79
374.015	0.79
374.383	0.78
374.75	0.8
375.118	0.77
375.485	0.79
375.853	0.77
376.22	0.75
376.587	0.74
376.955	0.76
377.322	0.73
377.689	0.73
378.056	0.74
378.423	0.72
378.79	0.74
379.157	0.77
379.524	0.75
379.891	0.76
380.258	0.73
380.625	0.74
380.992	0.73
381.359	0.71
381.726	0.77
382.092	0.72
382.459	0.74
382.826	0.73
383.192	0.75
383.559	0.74
383.925	0.77
384.292	0.73
384.658	0.78
385.025	0.75
385.391	0.76
385.757	0.76
386.123	0.78
386.49	0.76
386.856	0.74
387.222	0.77
387.588	0.76
387.954	0.78
388.32	0.79
388.686	0.78
389.052	0.76
389.418	0.77
389.784	0.75
390.15	0.79
390.515	0.76
390.881	0.8
391.247	0.78
391.613	0.79
391.978	0.76
392.344	0.82
392.709	0.77
393.075	0.79
393.44	0.76
393.806	0.75
394.171	0.73
394.536	0.79
394.902	0.76
395.267	0.74
395.632	0.73
395.997	0.73
396.362	0.74
396.727	0.77
397.092	0.75
397.457	0.74
397.822	0.74
398.187	0.75
398.552	0.72
398.917	0.72
399.282	0.69
399.646	0.71
400.011	0.7
400.376	0.7
400.74	0.7
401.105	0.72
401.47	0.69
401.834	0.68
402.199	0.68
402.563	0.68
402.927	0.66
403.292	0.7
403.656	0.66
404.02	0.68
404.384	0.68
404.749	0.68
405.113	0.64
405.477	0.65
405.841	0.63
406.205	0.62
406.569	0.61
406.933	0.6
407.296	0.59
407.66	0.62
408.024	0.63
408.388	0.62
408.752	0.6
409.115	0.6
409.479	0.6
409.842	0.59
410.206	0.58
410.569	0.58
410.933	0.58
411.296	0.57
411.66	0.56
412.023	0.57
412.386	0.55
412.749	0.54
413.113	0.58
413.476	0.54
413.839	0.55
414.202	0.52
414.565	0.52
414.928	0.53
415.291	0.51
415.654	0.51
416.017	0.53
416.38	0.53
416.742	0.51
417.105	0.49
417.468	0.53
417.83	0.53
418.193	0.52
418.556	0.51
418.918	0.5
419.281	0.5
419.643	0.5
420.005	0.49
420.368	0.51
420.73	0.5
421.092	0.49
421.455	0.49
421.817	0.46
422.179	0.48
422.541	0.48
422.903	0.47
423.265	0.47
423.627	0.47
423.989	0.47
424.351	0.45
424.713	0.48
425.075	0.45
425.436	0.45
425.798	0.46
426.16	0.47
426.521	0.45
426.883	0.47
427.245	0.46
427.606	0.45
427.967	0.45
428.329	0.44
428.69	0.46
429.052	0.46
429.413	0.45
429.774	0.45
430.135	0.44
430.497	0.44
430.858	0.44
431.219	0.44
431.58	0.44
431.941	0.42
432.302	0.44
432.663	0.43
433.024	0.45
433.384	0.44
433.745	0.43
434.106	0.43
434.467	0.44
434.827	0.45
435.188	0.42
435.548	0.45
435.909	0.42
436.269	0.44
436.63	0.41
436.99	0.43
437.351	0.41
437.711	0.42
438.071	0.4
438.431	0.41
438.792	0.41
439.152	0.4
439.512	0.4
439.872	0.41
440.232	0.41
440.592	0.42
440.952	0.4
441.312	0.4
441.671	0.39
442.031	0.38
442.391	0.39
442.751	0.4
443.11	0.38
443.47	0.37
443.83	0.38
444.189	0.37
444.549	0.39
444.908	0.38
445.267	0.37
445.627	0.38
445.986	0.36
446.345	0.37
446.705	0.37
447.064	0.36
447.423	0.35
447.782	0.36
448.141	0.36
448.5	0.34
448.859	0.36
449.218	0.34
449.577	0.35
449.936	0.36
450.295	0.36
450.653	0.35
451.012	0.35
451.371	0.35
451.729	0.35
452.088	0.35
452.447	0.34
452.805	0.34
453.163	0.35
453.522	0.34
453.88	0.34
454.239	0.32
454.597	0.33
454.955	0.32
455.313	0.31
455.671	0.32
456.029	0.31
456.388	0.31
456.746	0.32
457.104	0.31
457.461	0.3
457.819	0.3
458.177	0.3
458.535	0.3
458.893	0.29
459.25	0.29
459.608	0.29
459.966	0.27
460.323	0.27
460.681	0.27
461.038	0.27
461.396	0.27
461.753	0.26
462.111	0.27
462.468	0.26
462.825	0.25
463.182	0.26
463.54	0.25
463.897	0.25
464.254	0.26
464.611	0.25
464.968	0.25
465.325	0.25
465.682	0.24
466.039	0.24
466.395	0.24
466.752	0.23
467.109	0.23
467.466	0.24
467.822	0.24
468.179	0.23
468.535	0.23
468.892	0.23
469.248	0.22
469.605	0.22
469.961	0.22
470.318	0.23
470.674	0.22
471.03	0.21
471.386	0.21
471.743	0.2
472.099	0.2
472.455	0.21
472.811	0.21
473.167	0.21
473.523	0.19
473.879	0.19
474.235	0.19
474.59	0.19
474.946	0.19
475.302	0.19
475.657	0.18
476.013	0.18
476.369	0.18
476.724	0.18
477.08	0.18
477.435	0.17
477.791	0.17
478.146	0.17
478.501	0.17
478.857	0.17
479.212	0.17
479.567	0.17
479.922	0.16
480.277	0.16
480.632	0.16
480.987	0.16
481.342	0.16
481.697	0.15
482.052	0.15
482.407	0.15
482.762	0.15
483.116	0.15
483.471	0.14
483.826	0.14
484.18	0.15
484.535	0.14
484.89	0.14
485.244	0.14
485.598	0.14
485.953	0.14
486.307	0.13
486.661	0.14
487.016	0.13
487.37	0.13
487.724	0.13
488.078	0.13
488.432	0.13
488.786	0.13
489.14	0.13
489.494	0.13
489.848	0.12
490.202	0.12
490.556	0.12
490.91	0.12
491.263	0.12
491.617	0.12
491.971	0.12
492.324	0.12
492.678	0.12
493.031	0.12
493.385	0.12
493.738	0.12
494.091	0.12
494.445	0.12
494.798	0.11
495.151	0.11
495.504	0.11
495.857	0.11
496.21	0.11
496.564	0.11
496.916	0.11
497.269	0.11
497.622	0.11
497.975	0.11
498.328	0.11
498.681	0.1
499.033	0.11
499.386	0.11
499.739	0.1
500.091	0.1
500.444	0.1
500.796	0.1
501.149	0.1
501.501	0.1
501.854	0.1
502.206	0.1
502.558	0.1
502.91	0.1
503.263	0.1
503.615	0.1
503.967	0.1
504.319	0.1
504.671	0.1
505.023	0.09
505.375	0.1
505.726	0.1
506.078	0.09
506.43	0.09
506.782	0.09
507.133	0.1
507.485	0.1
507.837	0.11
508.188	0.1
508.54	0.1
508.891	0.1
509.243	0.09
509.594	0.1
509.945	0.1
510.296	0.09
510.648	0.1
510.999	0.09
511.35	0.09
511.701	0.09
512.052	0.1
512.403	0.1
512.754	0.1
513.105	0.09
513.456	0.09
513.807	0.09
514.157	0.1
514.508	0.09
514.859	0.09
515.209	0.09
515.56	0.1
515.91	0.09
516.261	0.1
516.611	0.09
516.962	0.09
517.312	0.1
517.662	0.09
518.013	0.09
518.363	0.1
518.713	0.1
519.063	0.1
519.413	0.1
519.763	0.09
520.113	0.09
520.463	0.1
520.813	0.1
521.163	0.1
521.512	0.1
521.862	0.1
522.212	0.1
522.562	0.1
522.911	0.1
523.261	0.09
523.61	0.1
523.96	0.09
524.309	0.09
524.658	0.09
525.008	0.09
525.357	0.09
525.706	0.1
526.056	0.09
526.405	0.1
526.754	0.1
527.103	0.09
527.452	0.1
527.801	0.1
528.15	0.1
528.499	0.1
528.847	0.1
529.196	0.1
529.545	0.1
529.893	0.1
530.242	0.1
530.591	0.11
530.939	0.1
531.288	0.1
531.636	0.1
531.985	0.1
532.333	0.1
532.681	0.1
533.029	0.11
533.378	0.1
533.726	0.1
534.074	0.11
534.422	0.1
534.77	0.1
535.118	0.1
535.466	0.1
535.814	0.1
536.162	0.1
536.509	0.1
536.857	0.1
537.205	0.1
537.552	0.1
537.9	0.1
538.248	0.09
538.595	0.1
538.943	0.1
539.29	0.09
539.637	0.09
539.985	0.1
540.332	0.1
540.679	0.1
541.026	0.1
541.373	0.1
541.721	0.09
542.068	0.09
542.415	0.1
542.762	0.09
543.108	0.09
543.455	0.08
543.802	0.09
544.149	0.09
544.496	0.09
544.842	0.09
545.189	0.08
545.535	0.09
545.882	0.09
546.228	0.09
546.575	0.08
546.921	0.08
547.267	0.09
547.614	0.09
547.96	0.09
548.306	0.09
548.652	0.09
548.998	0.1
549.344	0.08
549.69	0.09
550.036	0.09
550.382	0.09
550.728	0.1
551.074	0.1
551.42	0.1
551.765	0.09
552.111	0.1
552.457	0.1
552.802	0.1
553.148	0.09
553.493	0.09
553.839	0.09
554.184	0.09
554.529	0.09
554.875	0.1
555.22	0.09
555.565	0.09
555.91	0.09
556.255	0.1
556.6	0.1
556.945	0.09
557.29	0.09
557.635	0.1
557.98	0.09
558.325	0.1
558.67	0.1
559.014	0.09
559.359	0.1
559.704	0.1
560.048	0.08
560.393	0.09
560.737	0.09
561.082	0.1
561.426	0.09
561.77	0.1
562.115	0.09
562.459	0.09
562.803	0.09
563.147	0.09
563.491	0.09
563.835	0.1
564.179	0.09
564.523	0.09
564.867	0.09
565.211	0.1
565.555	0.09
565.899	0.1
566.242	0.09
566.586	0.09
566.93	0.09
567.273	0.1
567.617	0.1
567.96	0.1
568.304	0.1
568.647	0.1
568.99	0.1
569.334	0.11
569.677	0.1
570.02	0.1
570.363	0.1
570.706	0.1
571.049	0.1
571.392	0.1
571.735	0.09
572.078	0.1
572.421	0.11
572.764	0.1
573.106	0.1
573.449	0.09
573.792	0.09
574.134	0.09
574.477	0.1
574.819	0.1
575.162	0.09
575.504	0.09
575.847	0.09
576.189	0.09
576.531	0.1
576.873	0.1
577.215	0.09
577.558	0.1
577.9	0.09
578.242	0.09
578.584	0.1
578.926	0.1
579.267	0.1
579.609	0.09
579.951	0.09
580.293	0.09
580.634	0.1
580.976	0.1
581.318	0.09
581.659	0.09
582.001	0.1
582.342	0.09
582.683	0.1
583.025	0.09
583.366	0.09
583.707	0.09
584.049	0.09
584.39	0.09
584.731	0.09
585.072	0.09
585.413	0.1
585.754	0.09
586.095	0.1
586.435	0.09
586.776	0.1
587.117	0.1
587.458	0.09
587.798	0.09
588.139	0.1
588.48	0.09
588.82	0.09
589.161	0.09
589.501	0.09
589.841	0.1
590.182	0.09
590.522	0.09
590.862	0.1
591.202	0.09
591.542	0.09
591.882	0.09
592.222	0.09
592.562	0.09
592.902	0.1
593.242	0.09
593.582	0.1
593.922	0.09
594.261	0.09
594.601	0.09
594.941	0.09
595.28	0.09
595.62	0.09
595.959	0.09
596.299	0.09
596.638	0.1
596.977	0.1
597.317	0.1
597.656	0.09
597.995	0.09
598.334	0.1
598.673	0.1
599.012	0.1
599.351	0.1
599.69	0.1
600.029	0.1
600.368	0.1
600.707	0.1
601.046	0.1
601.384	0.1
601.723	0.1
602.061	0.09
602.4	0.1
602.738	0.1
603.077	0.1
603.415	0.09
603.754	0.09
604.092	0.1
604.43	0.09
604.768	0.1
605.107	0.1
605.445	0.09
605.783	0.09
606.121	0.09
606.459	0.09
606.796	0.09
607.134	0.09
607.472	0.09
607.81	0.1
608.148	0.1
608.485	0.1
608.823	0.09
609.16	0.09
609.498	0.1
609.835	0.09
610.173	0.09
610.51	0.09
610.847	0.1
611.185	0.1
611.522	0.1
611.859	0.1
612.196	0.1
612.533	0.1
612.87	0.1
613.207	0.1
613.544	0.1
613.881	0.11
614.217	0.11
614.554	0.1
614.891	0.11
615.228	0.1
615.564	0.11
615.901	0.1
616.237	0.11
616.574	0.1
616.91	0.11
617.246	0.1
617.583	0.1
617.919	0.1
618.255	0.1
618.591	0.1
618.927	0.11
619.263	0.11
619.599	0.11
619.935	0.1
620.271	0.11
620.607	0.11
620.943	0.1
621.279	0.11
621.614	0.11
621.95	0.1
622.286	0.1
622.621	0.1
622.957	0.1
623.292	0.1
623.627	0.1
623.963	0.1
624.298	0.1
624.633	0.09
624.968	0.09
625.304	0.1
625.639	0.09
625.974	0.09
626.309	0.09
626.644	0.1
626.979	0.1
627.313	0.1
627.648	0.09
627.983	0.09
628.318	0.09
628.652	0.09
628.987	0.09
629.321	0.1
629.656	0.08
629.99	0.09
630.325	0.09
630.659	0.09
630.993	0.08
631.327	0.09
631.662	0.08
631.996	0.08
632.33	0.08
632.664	0.09
632.998	0.09
633.332	0.08
633.666	0.09
633.999	0.09
634.333	0.09
634.667	0.08
635.001	0.08
635.334	0.09
635.668	0.09
636.001	0.08
636.335	0.09
636.668	0.09
637.001	0.08
637.335	0.09
637.668	0.08
638.001	0.08
638.334	0.08
638.668	0.08
639.001	0.09
639.334	0.08
639.667	0.08
639.999	0.08
640.332	0.08
640.665	0.08
640.998	0.08
641.331	0.08
641.663	0.08
641.996	0.08
642.328	0.08
642.661	0.08
642.993	0.08
643.326	0.08
643.658	0.08
643.99	0.08
644.323	0.08
644.655	0.08
644.987	0.08
645.319	0.08
645.651	0.08
645.983	0.08
646.315	0.08
646.647	0.08
646.979	0.09
647.31	0.09
647.642	0.08
647.974	0.08
648.305	0.09
648.637	0.08
648.968	0.08
649.3	0.09
649.631	0.08
649.963	0.08
650.294	0.09
650.625	0.08
650.957	0.09
651.288	0.09
651.619	0.09
651.95	0.09
652.281	0.09
652.612	0.08
652.943	0.08
653.274	0.09
653.604	0.08
653.935	0.08
654.266	0.09
654.596	0.08
654.927	0.08
655.258	0.09
655.588	0.08
655.918	0.09
656.249	0.07
656.579	0.08
656.909	0.08
657.24	0.08
657.57	0.09
657.9	0.08
658.23	0.09
658.56	0.1
658.89	0.09
659.22	0.08
659.55	0.09
659.88	0.09
660.209	0.09
660.539	0.1
660.869	0.09
661.198	0.09
661.528	0.09
661.857	0.09
662.187	0.1
662.516	0.09
662.846	0.09
663.175	0.09
663.504	0.09
663.833	0.09
664.163	0.09
664.492	0.08
664.821	0.09
665.15	0.09
665.479	0.09
665.807	0.09
666.136	0.09
666.465	0.09
666.794	0.09
667.122	0.09
667.451	0.08
667.78	0.08
668.108	0.08
668.437	0.08
668.765	0.08
669.093	0.08
669.422	0.09
669.75	0.09
670.078	0.08
670.406	0.08
670.734	0.09
671.062	0.09
671.39	0.08
671.718	0.09
672.046	0.08
672.374	0.08
672.702	0.08
673.029	0.08
673.357	0.08
673.685	0.09
674.012	0.08
674.34	0.09
674.667	0.09
674.995	0.09
675.322	0.08
675.649	0.08
675.977	0.09
676.304	0.08
676.631	0.08
676.958	0.09
677.285	0.08
677.612	0.08
677.939	0.09
678.266	0.08
678.593	0.08
678.92	0.09
679.246	0.08
679.573	0.08
679.9	0.08
680.226	0.09
680.553	0.08
680.879	0.08
681.206	0.08
681.532	0.08
681.858	0.08
682.184	0.08
682.511	0.08
682.837	0.08
683.163	0.08
683.489	0.08
683.815	0.08
684.141	0.08
684.467	0.08
684.793	0.07
685.118	0.08
685.444	0.08
685.77	0.07
686.095	0.08
686.421	0.08
686.746	0.08
687.072	0.08
687.397	0.07
687.723	0.08
688.048	0.08
688.373	0.08
688.698	0.08
689.023	0.08
689.349	0.08
689.674	0.08
689.999	0.08
690.323	0.07
690.648	0.08
690.973	0.07
691.298	0.08
691.623	0.08
691.947	0.08
692.272	0.07
692.596	0.08
692.921	0.09
693.245	0.08
693.57	0.08
693.894	0.08
694.218	0.08
694.543	0.09
694.867	0.08
695.191	0.07
695.515	0.07
695.839	0.07
696.163	0.07
696.487	0.08
696.811	0.07
697.135	0.07
697.458	0.08
697.782	0.08
698.106	0.07
698.429	0.08
698.753	0.07
699.076	0.07
699.4	0.07
699.723	0.08
700.046	0.07
700.37	0.08
700.693	0.07
701.016	0.07
701.339	0.08
701.662	0.08
701.985	0.08
702.308	0.07
702.631	0.07
702.954	0.08
703.277	0.08
703.599	0.08
703.922	0.07
704.245	0.07
704.567	0.07
704.89	0.07
705.212	0.07
705.535	0.07
705.857	0.07
706.179	0.06
706.502	0.07
706.824	0.06
707.146	0.06
707.468	0.07
707.79	0.07
708.112	0.07
708.434	0.07
708.756	0.07
709.078	0.07
709.399	0.07
709.721	0.07
710.043	0.07
710.364	0.07
710.686	0.07
711.007	0.07
711.329	0.07
711.65	0.07
711.972	0.07
712.293	0.07
712.614	0.07
712.935	0.07
713.256	0.07
713.577	0.08
713.898	0.07
714.219	0.07
714.54	0.07
714.861	0.06
715.182	0.07
715.503	0.06
715.823	0.06
716.144	0.06
716.464	0.06
716.785	0.06
717.105	0.07
717.426	0.07
717.746	0.06
718.066	0.06
718.387	0.06
718.707	0.05
719.027	0.06
719.347	0.05
719.667	0.06
719.987	0.06
720.307	0.06
720.627	0.05
720.947	0.06
721.266	0.06
721.586	0.05
721.906	0.06
722.225	0.05
722.545	0.06
722.864	0.05
723.184	0.06
723.503	0.06
723.823	0.06
724.142	0.05
724.461	0.05
724.78	0.05
725.099	0.06
725.418	0.05
725.737	0.05
726.056	0.06
726.375	0.06
726.694	0.05
727.013	0.05
727.331	0.04
727.65	0.06
727.969	0.06
728.287	0.06
728.606	0.06
728.924	0.05
729.242	0.06
729.561	0.06
729.879	0.06
730.197	0.06
730.515	0.06
730.834	0.06
731.152	0.06
731.47	0.06
731.788	0.07
732.105	0.05
732.423	0.06
732.741	0.06
733.059	0.05
733.376	0.07
733.694	0.06
734.012	0.05
734.329	0.06
734.647	0.06
734.964	0.06
735.281	0.06
735.599	0.06
735.916	0.07
736.233	0.05
736.55	0.06
736.867	0.05
737.184	0.07
737.501	0.06
737.818	0.06
738.135	0.06
738.452	0.06
738.768	0.06
739.085	0.05
739.402	0.04
739.718	0.06
740.035	0.05
740.351	0.06
740.668	0.06
740.984	0.05
741.3	0.06
741.617	0.06
741.933	0.06
742.249	0.07
742.565	0.06
742.881	0.06
743.197	0.06
743.513	0.05
743.829	0.05
744.144	0.05
744.46	0.05
744.776	0.06
745.091	0.05
745.407	0.05
745.722	0.06
746.038	0.05
746.353	0.04
746.669	0.05
746.984	0.05
747.299	0.05
747.614	0.05
747.93	0.04
748.245	0.05
748.56	0.05
748.875	0.04
749.189	0.05
749.504	0.05
749.819	0.05
750.134	0.05
750.448	0.06
750.763	0.05
751.078	0.04
751.392	0.05
751.707	0.06
752.021	0.07
752.335	0.06
752.65	0.06
752.964	0.05
753.278	0.05
753.592	0.05
753.906	0.05
754.22	0.06
754.534	0.06
754.848	0.06
755.162	0.06
755.476	0.06
755.789	0.06
756.103	0.06
756.417	0.06
756.73	0.06
757.044	0.06
757.357	0.05
757.671	0.06
757.984	0.06
758.297	0.06
758.61	0.06
758.924	0.06
759.237	0.06
759.55	0.06
759.863	0.06
760.176	0.06
760.488	0.05
760.801	0.05
761.114	0.05
761.427	0.04
761.739	0.06
762.052	0.05
762.365	0.05
762.677	0.05
762.99	0.05
763.302	0.05
763.614	0.05
763.926	0.06
764.239	0.05
764.551	0.05
764.863	0.05
765.175	0.06
765.487	0.06
765.799	0.04
766.111	0.05
766.423	0.05
766.734	0.05
767.046	0.04
767.358	0.05
767.669	0.05
767.981	0.05
768.292	0.05
768.604	0.05
768.915	0.05
769.226	0.04
769.537	0.05
769.849	0.05
770.16	0.04
770.471	0.04
770.782	0.04
771.093	0.04
771.404	0.04
771.715	0.04
772.025	0.05
772.336	0.04
772.647	0.04
772.957	0.05
773.268	0.05
773.578	0.05
773.889	0.04
774.199	0.06
774.51	0.04
774.82	0.05
775.13	0.05
775.44	0.04
775.75	0.05
776.06	0.05
776.37	0.04
776.68	0.05
776.99	0.05
777.3	0.05
777.61	0.06
777.92	0.04
778.229	0.05
778.539	0.05
778.848	0.04
779.158	0.05
779.467	0.05
779.777	0.05
780.086	0.05
780.395	0.04
780.704	0.04
781.013	0.04
781.323	0.05
781.632	0.05
781.941	0.05
782.249	0.04
782.558	0.04
782.867	0.05
783.176	0.03
783.485	0.04
783.793	0.04
784.102	0.04
784.41	0.03
784.719	0.04
785.027	0.04
785.335	0.04
785.644	0.04
785.952	0.04
786.26	0.04
786.568	0.03
786.876	0.04
787.184	0.04
787.492	0.04
787.8	0.04
788.108	0.05
788.416	0.04
788.723	0.04
789.031	0.03
789.338	0.04
789.646	0.03
789.953	0.04
790.261	0.04
790.568	0.04
790.876	0.04
791.183	0.05
791.49	0.05
791.797	0.05
792.104	0.04
792.411	0.05
792.718	0.05
793.025	0.05
793.332	0.05
793.639	0.05
793.945	0.06
794.252	0.05
794.559	0.05
794.865	0.05
795.172	0.05
795.478	0.05
795.784	0.05
796.091	0.05
796.397	0.06
796.703	0.05
797.009	0.06
797.315	0.06
797.622	0.06
797.927	0.05
798.233	0.04
798.539	0.06
798.845	0.06
799.151	0.05
799.456	0.06
799.762	0.05
800.068	0.06
800.373	0.06
800.679	0.06
800.984	0.06
801.289	0.06
801.595	0.06
801.9	0.05
802.205	0.05
802.51	0.06
802.815	0.06
803.12	0.06
803.425	0.05
803.73	0.05
804.035	0.05
804.339	0.04
804.644	0.04
804.949	0.05
805.253	0.05
805.558	0.05
805.862	0.05
806.167	0.04
806.471	0.05
806.775	0.05
807.08	0.05
807.384	0.05
807.688	0.05
807.992	0.05
808.296	0.05
808.6	0.05
808.904	0.05
809.207	0.04
809.511	0.06
809.815	0.06
810.119	0.05
810.422	0.06
810.726	0.07
811.029	0.07
811.332	0.06
811.636	0.07
811.939	0.06
812.242	0.06
812.546	0.07
812.849	0.06
813.152	0.07
813.455	0.07
813.758	0.07
814.06	0.07
814.363	0.06
814.666	0.06
814.969	0.06
815.271	0.06
815.574	0.06
815.877	0.06
816.179	0.06
816.481	0.05
816.784	0.06
817.086	0.05
817.388	0.04
817.69	0.05
817.993	0.05
818.295	0.05
818.597	0.05
818.899	0.05
819.2	0.04
819.502	0.04
819.804	0.05
820.106	0.04
820.407	0.03
820.709	0.05
821.01	0.04
821.312	0.04
821.613	0.04
821.915	0.04
822.216	0.04
822.517	0.03
822.818	0.04
823.119	0.04
823.42	0.04
823.721	0.03
824.022	0.04
824.323	0.04
824.624	0.03
824.925	0.05
825.226	0.05
825.526	0.03
825.827	0.04
826.127	0.04
826.428	0.04
826.728	0.03
827.028	0.04
827.329	0.03
827.629	0.03
827.929	0.04
828.229	0.04
828.529	0.04
828.829	0.04
829.129	0.04
829.429	0.04
829.729	0.03
830.029	0.03
830.328	0.04
830.628	0.02
830.927	0.02
831.227	0.02
831.526	0.03
831.826	0.03
832.125	0.03
832.424	0.03
832.724	0.03
833.023	0.03
833.322	0.03
833.621	0.02
833.92	0.02
834.219	0.02
834.518	0.03
834.816	0.01
835.115	0.02
835.414	0.02
835.712	0.01
836.011	0
836.309	0.01
836.608	0.01
836.906	0.01
837.205	0.01
837.503	0.01
837.801	0.01
838.099	0
838.397	-0.01
838.695	-0.01
838.993	-0.01
839.291	-0.01
839.589	-0
839.887	-0
840.184	-0.01
840.482	-0.01
840.78	-0
841.077	-0.01
841.375	-0.01
841.672	-0
841.969	-0.02
842.267	-0.01
842.564	-0.01
842.861	-0
843.158	-0.02
843.455	-0.03
843.752	-0.02
844.049	-0.01
844.346	-0.02
844.643	-0.03
844.94	-0.03
845.236	-0.02
845.533	-0.02
845.83	-0.03
846.126	-0.03
846.423	-0.03
846.719	-0.04
847.015	-0.04
847.312	-0.04
847.608	-0.04
847.904	-0.04
848.2	-0.04
848.496	-0.05
848.792	-0.05
849.088	-0.03
849.384	-0.03
849.68	-0.05
849.975	-0.04
850.271	-0.05
850.567	-0.05
850.862	-0.05
851.158	-0.05
851.453	-0.05
851.748	-0.06
852.044	-0.05
852.339	-0.05
852.634	-0.06
852.929	-0.06
853.224	-0.06
853.519	-0.06
853.814	-0.05
854.109	-0.07
854.404	-0.06
854.699	-0.07
854.994	-0.06
855.288	-0.06
855.583	-0.06
855.877	-0.07
856.172	-0.07
856.466	-0.08
856.76	-0.07
857.055	-0.07
857.349	-0.08
857.643	-0.09
857.937	-0.1
858.231	-0.09
858.525	-0.1
858.819	-0.1
859.113	-0.11
859.407	-0.11
859.701	-0.11
859.994	-0.11
860.288	-0.1
860.581	-0.11
860.875	-0.11
861.168	-0.11
861.462	-0.11
861.755	-0.1
862.048	-0.11
862.341	-0.1
862.634	-0.11
862.928	-0.1
863.221	-0.1
863.513	-0.11
863.806	-0.11
864.099	-0.12
864.392	-0.12
864.685	-0.11
864.977	-0.11
865.27	-0.13
865.562	-0.11
865.855	-0.11
866.147	-0.12
866.44	-0.11
866.732	-0.11
867.024	-0.13
867.316	-0.12
867.608	-0.13
867.9	-0.12
868.192	-0.13
868.484	-0.13
868.776	-0.14
869.068	-0.12
869.359	-0.13
869.651	-0.14
869.943	-0.16
870.234	-0.13
870.526	-0.14
870.817	-0.15
871.108	-0.13
871.4	-0.14
871.691	-0.15
871.982	-0.16
872.273	-0.17
872.564	-0.16
872.855	-0.16
873.146	-0.16
873.437	-0.17
873.728	-0.17
874.019	-0.16
874.309	-0.17
874.6	-0.16
874.89	-0.16
875.181	-0.17
875.471	-0.16
875.762	-0.16
876.052	-0.16
876.342	-0.15
876.632	-0.15
876.922	-0.16
877.213	-0.16
877.503	-0.18
877.792	-0.16
878.082	-0.17
878.372	-0.16
878.662	-0.18
878.952	-0.17
879.241	-0.17
879.531	-0.16
879.82	-0.16
880.11	-0.16
880.399	-0.15
880.688	-0.15
880.978	-0.15
881.267	-0.15
