Data from 12-12-AQDScycling_Absorbance__330__00330.txt Node

Date: Tue Dec 12 12:19:14 EST 2023
User: kyuminlee
Spectrometer: FLMS00943
Trigger mode: 0
Integration Time (sec): 1.000000E-1
Scans to average: 1
Electric dark correction enabled: true
Nonlinearity correction enabled: false
Boxcar width: 0
XAxis mode: Wavelengths
Number of Pixels in Spectrum: 2048
>>>>>Begin Spectral Data<<<<<
179.651	-0
180.037	-0
180.424	-0
180.81	-0
181.197	0.17
181.583	-0.27
181.97	-0.65
182.356	-0
182.743	-1.2
183.129	0.57
183.515	0.52
183.901	-2.46
184.288	0.14
184.674	0.3
185.06	0.24
185.446	-0.15
185.832	-1.3
186.218	0.06
186.604	-0.18
186.99	-0
187.376	-0
187.762	-0.41
188.148	0.59
188.534	-0.21
188.92	0.02
189.305	0.05
189.691	0.05
190.077	0.12
190.463	0.09
190.848	-0.09
191.234	0.05
191.619	0.03
192.005	0.1
192.391	0.1
192.776	0.16
193.161	0.19
193.547	-0.01
193.932	-0.09
194.318	0.02
194.703	0.1
195.088	0.06
195.473	0.06
195.859	0.02
196.244	0.12
196.629	-0.09
197.014	0.1
197.399	0.05
197.784	0.15
198.169	0.07
198.554	0.33
198.939	0.19
199.324	0.08
199.709	0.03
200.094	0.04
200.478	0.03
200.863	0.31
201.248	0.13
201.633	0.1
202.017	0.02
202.402	0.17
202.787	0.1
203.171	0.04
203.556	0.12
203.94	0.18
204.325	0.19
204.709	0.2
205.093	-0.04
205.478	0.08
205.862	0.05
206.246	0.16
206.631	-0.04
207.015	0.08
207.399	0.15
207.783	0.07
208.167	0.14
208.551	0.16
208.935	0.13
209.319	0.05
209.703	0.09
210.087	0.27
210.471	0.07
210.855	0.08
211.239	0.25
211.623	0.14
212.007	0.22
212.39	0.14
212.774	0.01
213.158	0.08
213.541	0.25
213.925	0.31
214.309	0.12
214.692	0.22
215.076	0.09
215.459	0.1
215.842	0.11
216.226	0.19
216.609	0.29
216.993	0.19
217.376	0.25
217.759	0.21
218.142	0.17
218.525	0.41
218.909	0.26
219.292	0.25
219.675	0.32
220.058	0.39
220.441	0.55
220.824	0.45
221.207	0.58
221.59	0.47
221.973	0.55
222.355	0.51
222.738	0.51
223.121	0.55
223.504	0.57
223.886	0.6
224.269	0.68
224.652	0.65
225.034	0.7
225.417	0.65
225.799	0.64
226.182	0.76
226.564	0.7
226.947	0.8
227.329	0.81
227.711	0.96
228.094	0.92
228.476	0.83
228.858	0.91
229.24	0.8
229.623	0.87
230.005	0.71
230.387	0.82
230.769	0.75
231.151	0.88
231.533	0.86
231.915	0.88
232.297	1.04
232.679	0.94
233.061	0.94
233.442	0.96
233.824	0.98
234.206	1.03
234.588	1
234.969	1
235.351	0.92
235.733	1.08
236.114	1.1
236.496	1.01
236.877	1.03
237.259	1.06
237.64	0.99
238.022	0.89
238.403	0.93
238.784	0.94
239.165	0.91
239.547	1.15
239.928	1.08
240.309	1.03
240.69	1.05
241.071	0.99
241.452	1.15
241.834	0.96
242.215	1
242.595	0.98
242.976	1.05
243.357	1.09
243.738	1.06
244.119	1.2
244.5	1.1
244.881	1.19
245.261	1.11
245.642	1.08
246.023	1.1
246.403	1.17
246.784	1.21
247.164	1.23
247.545	1.24
247.925	1.28
248.306	1.19
248.686	1.34
249.067	1.23
249.447	1.35
249.827	1.51
250.207	1.44
250.588	1.26
250.968	1.43
251.348	1.29
251.728	1.44
252.108	1.24
252.488	1.41
252.868	1.22
253.248	1.25
253.628	1.28
254.008	1.32
254.388	1.19
254.768	1.3
255.147	1.39
255.527	1.46
255.907	1.25
256.287	1.24
256.666	1.28
257.046	1.39
257.425	1.5
257.805	1.29
258.184	1.29
258.564	1.38
258.943	1.33
259.323	1.43
259.702	1.34
260.081	1.31
260.461	1.52
260.84	1.46
261.219	1.63
261.598	1.52
261.977	1.5
262.356	1.38
262.736	1.4
263.115	1.51
263.494	1.47
263.873	1.39
264.251	1.39
264.63	1.39
265.009	1.34
265.388	1.37
265.767	1.23
266.145	1.43
266.524	1.39
266.903	1.43
267.281	1.3
267.66	1.44
268.039	1.49
268.417	1.32
268.796	1.44
269.174	1.44
269.552	1.29
269.931	1.47
270.309	1.32
270.687	1.58
271.066	1.53
271.444	1.39
271.822	1.48
272.2	1.32
272.578	1.46
272.956	1.55
273.334	1.29
273.712	1.44
274.09	1.72
274.468	1.31
274.846	1.27
275.224	1.43
275.602	1.39
275.98	1.45
276.357	1.37
276.735	1.47
277.113	1.43
277.49	1.43
277.868	1.3
278.246	1.43
278.623	1.23
279.001	1.27
279.378	1.27
279.756	1.49
280.133	1.53
280.51	1.3
280.888	1.3
281.265	1.43
281.642	1.43
282.019	1.62
282.396	1.4
282.773	1.36
283.151	1.43
283.528	1.48
283.905	1.35
284.282	1.46
284.659	1.56
285.035	1.27
285.412	1.39
285.789	1.49
286.166	1.47
286.543	1.38
286.919	1.56
287.296	1.35
287.673	1.51
288.049	1.38
288.426	1.64
288.802	1.57
289.179	1.4
289.555	1.64
289.932	1.46
290.308	1.23
290.684	1.46
291.061	1.37
291.437	1.42
291.813	1.35
292.189	1.24
292.565	1.28
292.942	1.3
293.318	1.3
293.694	1.39
294.07	1.23
294.446	1.41
294.822	1.5
295.197	1.38
295.573	1.43
295.949	1.36
296.325	1.48
296.701	1.32
297.076	1.38
297.452	1.42
297.828	1.42
298.203	1.46
298.579	1.33
298.954	1.34
299.33	1.27
299.705	1.27
300.081	1.31
300.456	1.29
300.831	1.24
301.206	1.2
301.582	1.3
301.957	1.26
302.332	1.35
302.707	1.13
303.082	1.16
303.457	1.16
303.832	1.14
304.207	1.11
304.582	1.08
304.957	1.1
305.332	1.07
305.707	1.05
306.082	1.06
306.456	1.03
306.831	1
307.206	1.01
307.58	1.05
307.955	0.98
308.33	0.96
308.704	0.94
309.079	0.94
309.453	0.99
309.828	0.88
310.202	0.87
310.576	0.82
310.951	0.91
311.325	0.89
311.699	0.85
312.073	0.79
312.447	0.83
312.821	0.8
313.196	0.86
313.57	0.77
313.944	0.77
314.317	0.74
314.691	0.79
315.065	0.77
315.439	0.77
315.813	0.78
316.187	0.73
316.56	0.76
316.934	0.74
317.308	0.73
317.681	0.71
318.055	0.75
318.428	0.69
318.802	0.73
319.175	0.68
319.549	0.69
319.922	0.68
320.295	0.7
320.669	0.71
321.042	0.72
321.415	0.7
321.788	0.7
322.162	0.68
322.535	0.69
322.908	0.68
323.281	0.66
323.654	0.68
324.027	0.67
324.4	0.71
324.773	0.66
325.145	0.67
325.518	0.67
325.891	0.67
326.264	0.7
326.636	0.67
327.009	0.68
327.382	0.71
327.754	0.72
328.127	0.65
328.499	0.72
328.872	0.69
329.244	0.69
329.616	0.71
329.989	0.73
330.361	0.72
330.733	0.73
331.106	0.73
331.478	0.75
331.85	0.74
332.222	0.72
332.594	0.78
332.966	0.76
333.338	0.79
333.71	0.78
334.082	0.83
334.454	0.79
334.826	0.82
335.197	0.81
335.569	0.8
335.941	0.78
336.312	0.83
336.684	0.8
337.056	0.85
337.427	0.88
337.799	0.85
338.17	0.86
338.542	0.83
338.913	0.9
339.284	0.9
339.656	0.86
340.027	0.93
340.398	0.91
340.769	0.9
341.141	0.97
341.512	0.91
341.883	0.94
342.254	0.97
342.625	0.94
342.996	0.95
343.367	0.98
343.738	0.99
344.108	1.01
344.479	1.01
344.85	1.01
345.221	1.04
345.591	1.01
345.962	1.02
346.333	1.06
346.703	1.02
347.074	1.05
347.444	1.07
347.815	1.14
348.185	1.15
348.556	1.09
348.926	1.14
349.296	1.12
349.666	1.09
350.037	1.13
350.407	1.1
350.777	1.12
351.147	1.13
351.517	1.19
351.887	1.23
352.257	1.26
352.627	1.21
352.997	1.15
353.367	1.26
353.737	1.3
354.106	1.3
354.476	1.27
354.846	1.36
355.216	1.36
355.585	1.35
355.955	1.41
356.324	1.41
356.694	1.4
357.063	1.38
357.433	1.33
357.802	1.45
358.171	1.45
358.541	1.41
358.91	1.47
359.279	1.5
359.648	1.39
360.017	1.59
360.387	1.49
360.756	1.41
361.125	1.59
361.494	1.59
361.863	1.48
362.231	1.39
362.6	1.55
362.969	1.6
363.338	1.44
363.707	1.59
364.075	1.74
364.444	1.38
364.813	1.44
365.181	1.44
365.55	1.57
365.918	1.67
366.287	1.5
366.655	1.8
367.024	1.59
367.392	1.52
367.76	1.38
368.128	1.65
368.497	1.57
368.865	1.51
369.233	1.53
369.601	1.41
369.969	1.63
370.337	1.66
370.705	1.54
371.073	1.52
371.441	1.56
371.809	1.42
372.177	1.43
372.544	1.47
372.912	1.5
373.28	1.49
373.647	1.51
374.015	1.71
374.383	1.63
374.75	1.71
375.118	1.54
375.485	1.61
375.853	1.55
376.22	1.54
376.587	1.57
376.955	1.72
377.322	1.59
377.689	1.46
378.056	1.53
378.423	1.4
378.79	1.57
379.157	1.75
379.524	1.58
379.891	1.56
380.258	1.62
380.625	1.54
380.992	1.56
381.359	1.65
381.726	1.6
382.092	1.46
382.459	1.53
382.826	1.42
383.192	1.56
383.559	1.44
383.925	1.55
384.292	1.48
384.658	1.69
385.025	1.49
385.391	1.71
385.757	1.56
386.123	1.52
386.49	1.44
386.856	1.55
387.222	1.53
387.588	1.49
387.954	1.63
388.32	1.71
388.686	1.5
389.052	1.52
389.418	1.46
389.784	1.41
390.15	1.58
390.515	1.38
390.881	1.53
391.247	1.44
391.613	1.49
391.978	1.44
392.344	1.6
392.709	1.54
393.075	1.63
393.44	1.55
393.806	1.55
394.171	1.47
394.536	1.53
394.902	1.52
395.267	1.39
395.632	1.42
395.997	1.45
396.362	1.41
396.727	1.49
397.092	1.48
397.457	1.58
397.822	1.55
398.187	1.6
398.552	1.55
398.917	1.46
399.282	1.4
399.646	1.46
400.011	1.66
400.376	1.42
400.74	1.49
401.105	1.51
401.47	1.51
401.834	1.62
402.199	1.53
402.563	1.51
402.927	1.44
403.292	1.6
403.656	1.6
404.02	1.57
404.384	1.86
404.749	1.51
405.113	1.61
405.477	1.59
405.841	1.61
406.205	1.53
406.569	1.59
406.933	1.43
407.296	1.49
407.66	1.54
408.024	1.64
408.388	1.65
408.752	1.48
409.115	1.75
409.479	1.61
409.842	1.46
410.206	1.53
410.569	1.43
410.933	1.47
411.296	1.4
411.66	1.6
412.023	1.36
412.386	1.45
412.749	1.34
413.113	1.52
413.476	1.56
413.839	1.45
414.202	1.44
414.565	1.42
414.928	1.43
415.291	1.36
415.654	1.48
416.017	1.59
416.38	1.43
416.742	1.36
417.105	1.46
417.468	1.35
417.83	1.45
418.193	1.58
418.556	1.44
418.918	1.32
419.281	1.44
419.643	1.44
420.005	1.44
420.368	1.41
420.73	1.45
421.092	1.56
421.455	1.67
421.817	1.38
422.179	1.38
422.541	1.48
422.903	1.72
423.265	1.59
423.627	1.57
423.989	1.53
424.351	1.53
424.713	1.51
425.075	1.54
425.436	1.43
425.798	1.47
426.16	1.64
426.521	1.52
426.883	1.59
427.245	1.63
427.606	1.55
427.967	1.42
428.329	1.43
428.69	1.69
429.052	1.51
429.413	1.58
429.774	1.52
430.135	1.58
430.497	1.59
430.858	1.51
431.219	1.55
431.58	1.47
431.941	1.49
432.302	1.44
432.663	1.54
433.024	1.6
433.384	1.62
433.745	1.5
434.106	1.54
434.467	1.46
434.827	1.5
435.188	1.5
435.548	1.48
435.909	1.47
436.269	1.58
436.63	1.45
436.99	1.5
437.351	1.38
437.711	1.51
438.071	1.43
438.431	1.42
438.792	1.47
439.152	1.42
439.512	1.42
439.872	1.32
440.232	1.49
440.592	1.48
440.952	1.43
441.312	1.37
441.671	1.42
442.031	1.5
442.391	1.38
442.751	1.39
443.11	1.44
443.47	1.36
443.83	1.36
444.189	1.4
444.549	1.37
444.908	1.36
445.267	1.39
445.627	1.34
445.986	1.39
446.345	1.28
446.705	1.39
447.064	1.34
447.423	1.34
447.782	1.34
448.141	1.37
448.5	1.26
448.859	1.32
449.218	1.33
449.577	1.36
449.936	1.36
450.295	1.34
450.653	1.28
451.012	1.28
451.371	1.28
451.729	1.3
452.088	1.27
452.447	1.27
452.805	1.27
453.163	1.25
453.522	1.28
453.88	1.2
454.239	1.24
454.597	1.2
454.955	1.19
455.313	1.17
455.671	1.2
456.029	1.19
456.388	1.17
456.746	1.18
457.104	1.14
457.461	1.11
457.819	1.12
458.177	1.11
458.535	1.08
458.893	1.07
459.25	1.07
459.608	1.07
459.966	1.02
460.323	1.02
460.681	0.99
461.038	0.97
461.396	0.98
461.753	0.96
462.111	0.97
462.468	0.93
462.825	0.92
463.182	0.92
463.54	0.89
463.897	0.9
464.254	0.88
464.611	0.87
464.968	0.85
465.325	0.86
465.682	0.83
466.039	0.82
466.395	0.81
466.752	0.79
467.109	0.77
467.466	0.77
467.822	0.77
468.179	0.74
468.535	0.74
468.892	0.72
469.248	0.7
469.605	0.68
469.961	0.7
470.318	0.7
470.674	0.68
471.03	0.66
471.386	0.65
471.743	0.63
472.099	0.62
472.455	0.62
472.811	0.6
473.167	0.59
473.523	0.57
473.879	0.57
474.235	0.56
474.59	0.54
474.946	0.54
475.302	0.53
475.657	0.52
476.013	0.51
476.369	0.5
476.724	0.5
477.08	0.49
477.435	0.48
477.791	0.48
478.146	0.46
478.501	0.45
478.857	0.44
479.212	0.44
479.567	0.43
479.922	0.4
480.277	0.41
480.632	0.4
480.987	0.4
481.342	0.38
481.697	0.37
482.052	0.37
482.407	0.36
482.762	0.35
483.116	0.35
483.471	0.33
483.826	0.33
484.18	0.32
484.535	0.31
484.89	0.31
485.244	0.31
485.598	0.3
485.953	0.3
486.307	0.29
486.661	0.29
487.016	0.28
487.37	0.28
487.724	0.27
488.078	0.26
488.432	0.26
488.786	0.26
489.14	0.25
489.494	0.24
489.848	0.24
490.202	0.23
490.556	0.23
490.91	0.22
491.263	0.22
491.617	0.22
491.971	0.22
492.324	0.2
492.678	0.2
493.031	0.21
493.385	0.2
493.738	0.19
494.091	0.2
494.445	0.19
494.798	0.18
495.151	0.18
495.504	0.18
495.857	0.17
496.21	0.17
496.564	0.16
496.916	0.17
497.269	0.16
497.622	0.16
497.975	0.15
498.328	0.16
498.681	0.15
499.033	0.15
499.386	0.15
499.739	0.15
500.091	0.14
500.444	0.14
500.796	0.14
501.149	0.14
501.501	0.14
501.854	0.13
502.206	0.13
502.558	0.13
502.91	0.12
503.263	0.12
503.615	0.12
503.967	0.12
504.319	0.12
504.671	0.11
505.023	0.11
505.375	0.11
505.726	0.11
506.078	0.1
506.43	0.1
506.782	0.09
507.133	0.1
507.485	0.1
507.837	0.11
508.188	0.11
508.54	0.1
508.891	0.1
509.243	0.09
509.594	0.1
509.945	0.09
510.296	0.09
510.648	0.1
510.999	0.09
511.35	0.09
511.701	0.09
512.052	0.09
512.403	0.09
512.754	0.08
513.105	0.08
513.456	0.08
513.807	0.08
514.157	0.09
514.508	0.09
514.859	0.08
515.209	0.08
515.56	0.08
515.91	0.08
516.261	0.08
516.611	0.08
516.962	0.08
517.312	0.08
517.662	0.07
518.013	0.07
518.363	0.07
518.713	0.07
519.063	0.08
519.413	0.07
519.763	0.07
520.113	0.07
520.463	0.08
520.813	0.08
521.163	0.08
521.512	0.07
521.862	0.07
522.212	0.07
522.562	0.08
522.911	0.07
523.261	0.07
523.61	0.07
523.96	0.07
524.309	0.08
524.658	0.07
525.008	0.06
525.357	0.06
525.706	0.08
526.056	0.07
526.405	0.07
526.754	0.07
527.103	0.06
527.452	0.07
527.801	0.07
528.15	0.07
528.499	0.07
528.847	0.06
529.196	0.07
529.545	0.07
529.893	0.07
530.242	0.06
530.591	0.07
530.939	0.08
531.288	0.07
531.636	0.07
531.985	0.07
532.333	0.07
532.681	0.07
533.029	0.07
533.378	0.07
533.726	0.07
534.074	0.07
534.422	0.06
534.77	0.07
535.118	0.07
535.466	0.07
535.814	0.06
536.162	0.07
536.509	0.07
536.857	0.07
537.205	0.07
537.552	0.07
537.9	0.07
538.248	0.06
538.595	0.07
538.943	0.07
539.29	0.07
539.637	0.07
539.985	0.06
540.332	0.07
540.679	0.06
541.026	0.06
541.373	0.07
541.721	0.05
542.068	0.06
542.415	0.06
542.762	0.05
543.108	0.05
543.455	0.05
543.802	0.05
544.149	0.05
544.496	0.06
544.842	0.05
545.189	0.05
545.535	0.05
545.882	0.05
546.228	0.04
546.575	0.05
546.921	0.05
547.267	0.05
547.614	0.05
547.96	0.05
548.306	0.05
548.652	0.05
548.998	0.05
549.344	0.05
549.69	0.05
550.036	0.05
550.382	0.06
550.728	0.05
551.074	0.06
551.42	0.06
551.765	0.06
552.111	0.05
552.457	0.06
552.802	0.06
553.148	0.06
553.493	0.06
553.839	0.06
554.184	0.05
554.529	0.05
554.875	0.06
555.22	0.05
555.565	0.06
555.91	0.06
556.255	0.06
556.6	0.06
556.945	0.06
557.29	0.06
557.635	0.06
557.98	0.05
558.325	0.05
558.67	0.06
559.014	0.06
559.359	0.06
559.704	0.05
560.048	0.05
560.393	0.06
560.737	0.04
561.082	0.05
561.426	0.05
561.77	0.05
562.115	0.05
562.459	0.04
562.803	0.05
563.147	0.05
563.491	0.05
563.835	0.05
564.179	0.05
564.523	0.05
564.867	0.05
565.211	0.05
565.555	0.06
565.899	0.06
566.242	0.05
566.586	0.05
566.93	0.05
567.273	0.06
567.617	0.05
567.96	0.05
568.304	0.06
568.647	0.06
568.99	0.06
569.334	0.07
569.677	0.05
570.02	0.06
570.363	0.05
570.706	0.05
571.049	0.06
571.392	0.06
571.735	0.04
572.078	0.06
572.421	0.06
572.764	0.05
573.106	0.06
573.449	0.05
573.792	0.05
574.134	0.05
574.477	0.06
574.819	0.05
575.162	0.05
575.504	0.05
575.847	0.05
576.189	0.05
576.531	0.04
576.873	0.05
577.215	0.06
577.558	0.06
577.9	0.04
578.242	0.05
578.584	0.05
578.926	0.05
579.267	0.05
579.609	0.05
579.951	0.05
580.293	0.05
580.634	0.05
580.976	0.06
581.318	0.05
581.659	0.05
582.001	0.05
582.342	0.05
582.683	0.05
583.025	0.04
583.366	0.05
583.707	0.05
584.049	0.05
584.39	0.05
584.731	0.05
585.072	0.04
585.413	0.06
585.754	0.05
586.095	0.05
586.435	0.05
586.776	0.06
587.117	0.05
587.458	0.05
587.798	0.05
588.139	0.05
588.48	0.05
588.82	0.05
589.161	0.05
589.501	0.05
589.841	0.04
590.182	0.05
590.522	0.04
590.862	0.05
591.202	0.05
591.542	0.05
591.882	0.04
592.222	0.05
592.562	0.05
592.902	0.04
593.242	0.05
593.582	0.05
593.922	0.05
594.261	0.04
594.601	0.04
594.941	0.04
595.28	0.05
595.62	0.05
595.959	0.05
596.299	0.05
596.638	0.05
596.977	0.05
597.317	0.06
597.656	0.05
597.995	0.05
598.334	0.05
598.673	0.05
599.012	0.05
599.351	0.05
599.69	0.05
600.029	0.05
600.368	0.05
600.707	0.05
601.046	0.04
601.384	0.05
601.723	0.05
602.061	0.05
602.4	0.05
602.738	0.05
603.077	0.05
603.415	0.05
603.754	0.05
604.092	0.05
604.43	0.05
604.768	0.05
605.107	0.06
605.445	0.05
605.783	0.04
606.121	0.05
606.459	0.05
606.796	0.05
607.134	0.05
607.472	0.05
607.81	0.05
608.148	0.04
608.485	0.05
608.823	0.05
609.16	0.05
609.498	0.05
609.835	0.05
610.173	0.05
610.51	0.05
610.847	0.05
611.185	0.06
611.522	0.06
611.859	0.05
612.196	0.06
612.533	0.06
612.87	0.06
613.207	0.06
613.544	0.06
613.881	0.07
614.217	0.06
614.554	0.06
614.891	0.06
615.228	0.05
615.564	0.06
615.901	0.05
616.237	0.06
616.574	0.06
616.91	0.06
617.246	0.06
617.583	0.06
617.919	0.06
618.255	0.06
618.591	0.06
618.927	0.06
619.263	0.06
619.599	0.06
619.935	0.06
620.271	0.06
620.607	0.06
620.943	0.06
621.279	0.06
621.614	0.06
621.95	0.06
622.286	0.06
622.621	0.06
622.957	0.05
623.292	0.05
623.627	0.05
623.963	0.05
624.298	0.05
624.633	0.05
624.968	0.05
625.304	0.05
625.639	0.05
625.974	0.05
626.309	0.05
626.644	0.05
626.979	0.05
627.313	0.05
627.648	0.05
627.983	0.05
628.318	0.04
628.652	0.04
628.987	0.05
629.321	0.05
629.656	0.04
629.99	0.04
630.325	0.05
630.659	0.05
630.993	0.04
631.327	0.05
631.662	0.04
631.996	0.04
632.33	0.05
632.664	0.05
632.998	0.04
633.332	0.05
633.666	0.05
633.999	0.04
634.333	0.04
634.667	0.04
635.001	0.04
635.334	0.04
635.668	0.04
636.001	0.04
636.335	0.04
636.668	0.05
637.001	0.04
637.335	0.04
637.668	0.04
638.001	0.04
638.334	0.04
638.668	0.03
639.001	0.04
639.334	0.03
639.667	0.04
639.999	0.04
640.332	0.04
640.665	0.04
640.998	0.04
641.331	0.04
641.663	0.04
641.996	0.04
642.328	0.04
642.661	0.04
642.993	0.04
643.326	0.04
643.658	0.03
643.99	0.03
644.323	0.03
644.655	0.03
644.987	0.04
645.319	0.04
645.651	0.04
645.983	0.04
646.315	0.03
646.647	0.04
646.979	0.05
647.31	0.04
647.642	0.04
647.974	0.04
648.305	0.05
648.637	0.04
648.968	0.05
649.3	0.05
649.631	0.05
649.963	0.04
650.294	0.05
650.625	0.05
650.957	0.05
651.288	0.05
651.619	0.05
651.95	0.05
652.281	0.04
652.612	0.05
652.943	0.05
653.274	0.05
653.604	0.05
653.935	0.05
654.266	0.05
654.596	0.05
654.927	0.04
655.258	0.05
655.588	0.06
655.918	0.05
656.249	0.04
656.579	0.05
656.909	0.05
657.24	0.05
657.57	0.05
657.9	0.05
658.23	0.05
658.56	0.05
658.89	0.05
659.22	0.05
659.55	0.06
659.88	0.05
660.209	0.05
660.539	0.07
660.869	0.06
661.198	0.06
661.528	0.06
661.857	0.05
662.187	0.06
662.516	0.06
662.846	0.05
663.175	0.05
663.504	0.05
663.833	0.06
664.163	0.05
664.492	0.05
664.821	0.05
665.15	0.06
665.479	0.05
665.807	0.04
666.136	0.05
666.465	0.05
666.794	0.05
667.122	0.05
667.451	0.05
667.78	0.05
668.108	0.05
668.437	0.05
668.765	0.05
669.093	0.05
669.422	0.04
669.75	0.05
670.078	0.04
670.406	0.05
670.734	0.05
671.062	0.05
671.39	0.05
671.718	0.05
672.046	0.05
672.374	0.04
672.702	0.05
673.029	0.04
673.357	0.05
673.685	0.06
674.012	0.05
674.34	0.05
674.667	0.05
674.995	0.05
675.322	0.06
675.649	0.05
675.977	0.05
676.304	0.05
676.631	0.05
676.958	0.05
677.285	0.04
677.612	0.05
677.939	0.05
678.266	0.05
678.593	0.05
678.92	0.05
679.246	0.05
679.573	0.05
679.9	0.05
680.226	0.05
680.553	0.04
680.879	0.05
681.206	0.05
681.532	0.05
681.858	0.05
682.184	0.05
682.511	0.05
682.837	0.05
683.163	0.04
683.489	0.05
683.815	0.04
684.141	0.04
684.467	0.04
684.793	0.04
685.118	0.04
685.444	0.04
685.77	0.04
686.095	0.05
686.421	0.05
686.746	0.05
687.072	0.05
687.397	0.04
687.723	0.05
688.048	0.06
688.373	0.05
688.698	0.05
689.023	0.05
689.349	0.05
689.674	0.05
689.999	0.05
690.323	0.04
690.648	0.05
690.973	0.04
691.298	0.04
691.623	0.04
691.947	0.05
692.272	0.04
692.596	0.05
692.921	0.05
693.245	0.04
693.57	0.05
693.894	0.05
694.218	0.05
694.543	0.04
694.867	0.04
695.191	0.04
695.515	0.05
695.839	0.04
696.163	0.04
696.487	0.04
696.811	0.04
697.135	0.05
697.458	0.04
697.782	0.04
698.106	0.04
698.429	0.05
698.753	0.04
699.076	0.05
699.4	0.04
699.723	0.05
700.046	0.04
700.37	0.05
700.693	0.05
701.016	0.04
701.339	0.04
701.662	0.05
701.985	0.04
702.308	0.04
702.631	0.05
702.954	0.04
703.277	0.04
703.599	0.04
703.922	0.04
704.245	0.04
704.567	0.04
704.89	0.04
705.212	0.04
705.535	0.03
705.857	0.03
706.179	0.03
706.502	0.03
706.824	0.03
707.146	0.03
707.468	0.04
707.79	0.03
708.112	0.04
708.434	0.04
708.756	0.04
709.078	0.04
709.399	0.03
709.721	0.04
710.043	0.04
710.364	0.04
710.686	0.04
711.007	0.04
711.329	0.05
711.65	0.04
711.972	0.04
712.293	0.04
712.614	0.05
712.935	0.04
713.256	0.04
713.577	0.04
713.898	0.04
714.219	0.04
714.54	0.04
714.861	0.04
715.182	0.04
715.503	0.04
715.823	0.04
716.144	0.03
716.464	0.03
716.785	0.03
717.105	0.03
717.426	0.04
717.746	0.03
718.066	0.03
718.387	0.03
718.707	0.02
719.027	0.03
719.347	0.02
719.667	0.03
719.987	0.03
720.307	0.02
720.627	0.03
720.947	0.02
721.266	0.03
721.586	0.02
721.906	0.03
722.225	0.02
722.545	0.03
722.864	0.03
723.184	0.04
723.503	0.03
723.823	0.03
724.142	0.02
724.461	0.03
724.78	0.02
725.099	0.03
725.418	0.03
725.737	0.03
726.056	0.03
726.375	0.03
726.694	0.03
727.013	0.03
727.331	0.02
727.65	0.03
727.969	0.03
728.287	0.03
728.606	0.03
728.924	0.03
729.242	0.03
729.561	0.03
729.879	0.03
730.197	0.03
730.515	0.03
730.834	0.03
731.152	0.03
731.47	0.03
731.788	0.02
732.105	0.03
732.423	0.02
732.741	0.03
733.059	0.02
733.376	0.04
733.694	0.03
734.012	0.03
734.329	0.03
734.647	0.03
734.964	0.03
735.281	0.03
735.599	0.03
735.916	0.04
736.233	0.03
736.55	0.03
736.867	0.03
737.184	0.04
737.501	0.04
737.818	0.03
738.135	0.03
738.452	0.03
738.768	0.03
739.085	0.03
739.402	0.02
739.718	0.03
740.035	0.03
740.351	0.04
740.668	0.05
740.984	0.03
741.3	0.04
741.617	0.03
741.933	0.03
742.249	0.04
742.565	0.04
742.881	0.04
743.197	0.04
743.513	0.03
743.829	0.03
744.144	0.03
744.46	0.04
744.776	0.03
745.091	0.04
745.407	0.03
745.722	0.03
746.038	0.03
746.353	0.02
746.669	0.04
746.984	0.02
747.299	0.03
747.614	0.04
747.93	0.04
748.245	0.02
748.56	0.04
748.875	0.03
749.189	0.03
749.504	0.03
749.819	0.04
750.134	0.03
750.448	0.03
750.763	0.04
751.078	0.03
751.392	0.04
751.707	0.04
752.021	0.04
752.335	0.05
752.65	0.05
752.964	0.03
753.278	0.04
753.592	0.04
753.906	0.03
754.22	0.03
754.534	0.04
754.848	0.04
755.162	0.04
755.476	0.04
755.789	0.04
756.103	0.04
756.417	0.05
756.73	0.04
757.044	0.04
757.357	0.03
757.671	0.04
757.984	0.04
758.297	0.04
758.61	0.04
758.924	0.04
759.237	0.04
759.55	0.04
759.863	0.04
760.176	0.04
760.488	0.04
760.801	0.04
761.114	0.04
761.427	0.03
761.739	0.04
762.052	0.04
762.365	0.03
762.677	0.04
762.99	0.03
763.302	0.04
763.614	0.03
763.926	0.04
764.239	0.03
764.551	0.03
764.863	0.03
765.175	0.04
765.487	0.04
765.799	0.03
766.111	0.03
766.423	0.04
766.734	0.04
767.046	0.03
767.358	0.04
767.669	0.04
767.981	0.04
768.292	0.03
768.604	0.04
768.915	0.03
769.226	0.03
769.537	0.03
769.849	0.04
770.16	0.03
770.471	0.03
770.782	0.03
771.093	0.03
771.404	0.02
771.715	0.03
772.025	0.03
772.336	0.03
772.647	0.03
772.957	0.02
773.268	0.03
773.578	0.02
773.889	0.03
774.199	0.03
774.51	0.03
774.82	0.03
775.13	0.03
775.44	0.03
775.75	0.03
776.06	0.04
776.37	0.03
776.68	0.04
776.99	0.03
777.3	0.03
777.61	0.04
777.92	0.03
778.229	0.03
778.539	0.03
778.848	0.03
779.158	0.03
779.467	0.04
779.777	0.04
780.086	0.04
780.395	0.03
780.704	0.04
781.013	0.02
781.323	0.02
781.632	0.04
781.941	0.03
782.249	0.03
782.558	0.03
782.867	0.03
783.176	0.02
783.485	0.02
783.793	0.03
784.102	0.03
784.41	0.03
784.719	0.03
785.027	0.03
785.335	0.03
785.644	0.03
785.952	0.03
786.26	0.03
786.568	0.03
786.876	0.03
787.184	0.03
787.492	0.03
787.8	0.03
788.108	0.03
788.416	0.02
788.723	0.03
789.031	0.02
789.338	0.03
789.646	0.02
789.953	0.03
790.261	0.03
790.568	0.04
790.876	0.03
791.183	0.03
791.49	0.02
791.797	0.04
792.104	0.02
792.411	0.03
792.718	0.03
793.025	0.03
793.332	0.03
793.639	0.04
793.945	0.04
794.252	0.04
794.559	0.04
794.865	0.04
795.172	0.03
795.478	0.04
795.784	0.04
796.091	0.04
796.397	0.05
796.703	0.05
797.009	0.05
797.315	0.04
797.622	0.05
797.927	0.05
798.233	0.04
798.539	0.05
798.845	0.04
799.151	0.05
799.456	0.04
799.762	0.03
800.068	0.04
800.373	0.05
800.679	0.04
800.984	0.04
801.289	0.04
801.595	0.04
801.9	0.05
802.205	0.04
802.51	0.04
802.815	0.04
803.12	0.04
803.425	0.04
803.73	0.04
804.035	0.04
804.339	0.03
804.644	0.04
804.949	0.04
805.253	0.03
805.558	0.04
805.862	0.03
806.167	0.04
806.471	0.03
806.775	0.04
807.08	0.04
807.384	0.04
807.688	0.04
807.992	0.04
808.296	0.03
808.6	0.04
808.904	0.05
809.207	0.04
809.511	0.05
809.815	0.05
810.119	0.04
810.422	0.05
810.726	0.05
811.029	0.05
811.332	0.05
811.636	0.05
811.939	0.05
812.242	0.05
812.546	0.05
812.849	0.04
813.152	0.05
813.455	0.05
813.758	0.05
814.06	0.04
814.363	0.05
814.666	0.05
814.969	0.05
815.271	0.04
815.574	0.04
815.877	0.04
816.179	0.04
816.481	0.04
816.784	0.04
817.086	0.04
817.388	0.03
817.69	0.03
817.993	0.03
818.295	0.04
818.597	0.04
818.899	0.03
819.2	0.03
819.502	0.03
819.804	0.04
820.106	0.03
820.407	0.03
820.709	0.03
821.01	0.03
821.312	0.04
821.613	0.02
821.915	0.02
822.216	0.03
822.517	0.02
822.818	0.03
823.119	0.04
823.42	0.04
823.721	0.02
824.022	0.03
824.323	0.03
824.624	0.03
824.925	0.04
825.226	0.03
825.526	0.02
825.827	0.03
826.127	0.03
826.428	0.04
826.728	0.03
827.028	0.03
827.329	0.03
827.629	0.03
827.929	0.03
828.229	0.03
828.529	0.03
828.829	0.03
829.129	0.03
829.429	0.03
829.729	0.03
830.029	0.02
830.328	0.03
830.628	0.03
830.927	0.02
831.227	0.01
831.526	0.02
831.826	0.02
832.125	0.02
832.424	0.02
832.724	0.02
833.023	0.02
833.322	0.02
833.621	0.02
833.92	0.01
834.219	0.01
834.518	0.02
834.816	0
835.115	0.02
835.414	0.01
835.712	0.01
836.011	0.01
836.309	0.01
836.608	-0
836.906	0.01
837.205	0.01
837.503	0.01
837.801	0.01
838.099	-0
838.397	-0.01
838.695	-0
838.993	-0.01
839.291	-0.01
839.589	-0.01
839.887	-0
840.184	-0.01
840.482	-0.01
840.78	-0.01
841.077	-0.02
841.375	-0.02
841.672	-0.01
841.969	-0.02
842.267	-0.01
842.564	-0.02
842.861	-0.01
843.158	-0.02
843.455	-0.03
843.752	-0.04
844.049	-0.03
844.346	-0.03
844.643	-0.04
844.94	-0.04
845.236	-0.03
845.533	-0.04
845.83	-0.05
846.126	-0.05
846.423	-0.04
846.719	-0.06
847.015	-0.05
847.312	-0.05
847.608	-0.05
847.904	-0.06
848.2	-0.06
848.496	-0.06
848.792	-0.06
849.088	-0.04
849.384	-0.06
849.68	-0.07
849.975	-0.06
850.271	-0.07
850.567	-0.06
850.862	-0.07
851.158	-0.07
851.453	-0.07
851.748	-0.08
852.044	-0.07
852.339	-0.07
852.634	-0.08
852.929	-0.07
853.224	-0.07
853.519	-0.07
853.814	-0.08
854.109	-0.08
854.404	-0.08
854.699	-0.09
854.994	-0.08
855.288	-0.08
855.583	-0.07
855.877	-0.09
856.172	-0.08
856.466	-0.08
856.76	-0.09
857.055	-0.08
857.349	-0.1
857.643	-0.1
857.937	-0.1
858.231	-0.1
858.525	-0.1
858.819	-0.1
859.113	-0.11
859.407	-0.11
859.701	-0.11
859.994	-0.11
860.288	-0.1
860.581	-0.12
860.875	-0.11
861.168	-0.12
861.462	-0.12
861.755	-0.11
862.048	-0.12
862.341	-0.11
862.634	-0.12
862.928	-0.11
863.221	-0.11
863.513	-0.12
863.806	-0.11
864.099	-0.12
864.392	-0.12
864.685	-0.12
864.977	-0.12
865.27	-0.12
865.562	-0.12
865.855	-0.12
866.147	-0.13
866.44	-0.12
866.732	-0.13
867.024	-0.14
867.316	-0.13
867.608	-0.13
867.9	-0.14
868.192	-0.13
868.484	-0.14
868.776	-0.15
869.068	-0.14
869.359	-0.14
869.651	-0.14
869.943	-0.15
870.234	-0.15
870.526	-0.16
870.817	-0.16
871.108	-0.15
871.4	-0.16
871.691	-0.16
871.982	-0.17
872.273	-0.18
872.564	-0.17
872.855	-0.17
873.146	-0.18
873.437	-0.16
873.728	-0.18
874.019	-0.17
874.309	-0.18
874.6	-0.17
874.89	-0.18
875.181	-0.18
875.471	-0.18
875.762	-0.17
876.052	-0.18
876.342	-0.15
876.632	-0.16
876.922	-0.18
877.213	-0.18
877.503	-0.18
877.792	-0.18
878.082	-0.18
878.372	-0.17
878.662	-0.2
878.952	-0.18
879.241	-0.19
879.531	-0.17
879.82	-0.17
880.11	-0.18
880.399	-0.18
880.688	-0.17
880.978	-0.17
881.267	-0.17
