Data from 12-12-AQDScycling_Absorbance__951__00951.txt Node

Date: Tue Dec 12 14:54:29 EST 2023
User: kyuminlee
Spectrometer: FLMS00943
Trigger mode: 0
Integration Time (sec): 1.000000E-1
Scans to average: 1
Electric dark correction enabled: true
Nonlinearity correction enabled: false
Boxcar width: 0
XAxis mode: Wavelengths
Number of Pixels in Spectrum: 2048
>>>>>Begin Spectral Data<<<<<
179.651	-0.42
180.037	-0.42
180.424	-0.42
180.81	-0
181.197	0.18
181.583	0.04
181.97	-0.31
182.356	-0
182.743	-1.05
183.129	0.09
183.515	0.18
183.901	-0
184.288	0.16
184.674	0.45
185.06	-0.95
185.446	0.67
185.832	-0
186.218	-0
186.604	-0
186.99	-0
187.376	-0
187.762	-0
188.148	-0
188.534	-0.17
188.92	0
189.305	-0.07
189.691	0.09
190.077	0.12
190.463	0.29
190.848	0.13
191.234	0.01
191.619	-0.01
192.005	0.2
192.391	0.04
192.776	0.11
193.161	0.17
193.547	0.19
193.932	0.18
194.318	0.11
194.703	0.06
195.088	0.23
195.473	0.05
195.859	0.11
196.244	0.21
196.629	0.04
197.014	0.06
197.399	0.15
197.784	0.17
198.169	0.06
198.554	0.23
198.939	0.14
199.324	0.16
199.709	0.09
200.094	0.09
200.478	0.06
200.863	0.23
201.248	0.15
201.633	0.11
202.017	0.1
202.402	0.2
202.787	0.02
203.171	-0.01
203.556	0.18
203.94	0.11
204.325	0.27
204.709	0.22
205.093	0.03
205.478	0.14
205.862	-0.03
206.246	0.12
206.631	0.18
207.015	0.09
207.399	0.07
207.783	0.03
208.167	0.12
208.551	0.19
208.935	0.16
209.319	0.14
209.703	0.13
210.087	0.15
210.471	-0.01
210.855	0.17
211.239	0.25
211.623	0.26
212.007	0.33
212.39	0.42
212.774	0.08
213.158	0.16
213.541	0.17
213.925	0.16
214.309	0.23
214.692	0.39
215.076	0.41
215.459	0.2
215.842	0.17
216.226	0.26
216.609	0.26
216.993	0.14
217.376	0.32
217.759	0.22
218.142	0.36
218.525	0.5
218.909	0.21
219.292	0.38
219.675	0.43
220.058	0.45
220.441	0.53
220.824	0.46
221.207	0.68
221.59	0.58
221.973	0.44
222.355	0.52
222.738	0.62
223.121	0.59
223.504	0.54
223.886	0.6
224.269	0.69
224.652	0.63
225.034	0.65
225.417	0.66
225.799	0.83
226.182	0.76
226.564	0.77
226.947	0.78
227.329	0.75
227.711	1.05
228.094	0.98
228.476	1.03
228.858	0.85
229.24	0.89
229.623	0.89
230.005	0.89
230.387	0.79
230.769	0.86
231.151	0.92
231.533	0.88
231.915	0.84
232.297	1
232.679	0.89
233.061	0.99
233.442	1.13
233.824	1.04
234.206	1.12
234.588	1.01
234.969	1.05
235.351	0.95
235.733	0.99
236.114	1.03
236.496	0.97
236.877	1.05
237.259	0.99
237.64	1.05
238.022	1.02
238.403	0.99
238.784	1.02
239.165	0.9
239.547	1.05
239.928	1.06
240.309	1.02
240.69	1.02
241.071	1.09
241.452	1.17
241.834	1.05
242.215	1.07
242.595	1.05
242.976	1.13
243.357	1.1
243.738	1.07
244.119	1.18
244.5	1.1
244.881	1.26
245.261	1.13
245.642	1.09
246.023	1.19
246.403	1.24
246.784	1.33
247.164	1.26
247.545	1.23
247.925	1.28
248.306	1.17
248.686	1.41
249.067	1.21
249.447	1.38
249.827	1.57
250.207	1.59
250.588	1.29
250.968	1.35
251.348	1.45
251.728	1.42
252.108	1.37
252.488	1.42
252.868	1.29
253.248	1.36
253.628	1.33
254.008	1.5
254.388	1.25
254.768	1.4
255.147	1.27
255.527	1.38
255.907	1.4
256.287	1.36
256.666	1.36
257.046	1.54
257.425	1.55
257.805	1.25
258.184	1.32
258.564	1.29
258.943	1.33
259.323	1.51
259.702	1.32
260.081	1.43
260.461	1.48
260.84	1.54
261.219	1.71
261.598	1.47
261.977	1.64
262.356	1.6
262.736	1.47
263.115	1.5
263.494	1.49
263.873	1.35
264.251	1.5
264.63	1.6
265.009	1.51
265.388	1.45
265.767	1.36
266.145	1.27
266.524	1.55
266.903	1.33
267.281	1.34
267.66	1.44
268.039	1.41
268.417	1.35
268.796	1.31
269.174	1.46
269.552	1.34
269.931	1.45
270.309	1.5
270.687	1.64
271.066	1.48
271.444	1.38
271.822	1.49
272.2	1.38
272.578	1.47
272.956	1.43
273.334	1.37
273.712	1.45
274.09	1.54
274.468	1.48
274.846	1.3
275.224	1.27
275.602	1.48
275.98	1.38
276.357	1.43
276.735	1.5
277.113	1.55
277.49	1.4
277.868	1.19
278.246	1.42
278.623	1.28
279.001	1.34
279.378	1.35
279.756	1.46
280.133	1.48
280.51	1.31
280.888	1.36
281.265	1.32
281.642	1.41
282.019	1.48
282.396	1.65
282.773	1.37
283.151	1.41
283.528	1.58
283.905	1.32
284.282	1.46
284.659	1.47
285.035	1.37
285.412	1.28
285.789	1.54
286.166	1.45
286.543	1.37
286.919	1.47
287.296	1.34
287.673	1.65
288.049	1.47
288.426	1.48
288.802	1.42
289.179	1.39
289.555	1.67
289.932	1.45
290.308	1.27
290.684	1.35
291.061	1.28
291.437	1.74
291.813	1.37
292.189	1.33
292.565	1.37
292.942	1.26
293.318	1.36
293.694	1.35
294.07	1.35
294.446	1.37
294.822	1.62
295.197	1.4
295.573	1.49
295.949	1.52
296.325	1.45
296.701	1.47
297.076	1.53
297.452	1.44
297.828	1.57
298.203	1.67
298.579	1.46
298.954	1.48
299.33	1.48
299.705	1.48
300.081	1.52
300.456	1.46
300.831	1.47
301.206	1.51
301.582	1.67
301.957	1.5
302.332	1.58
302.707	1.42
303.082	1.44
303.457	1.58
303.832	1.46
304.207	1.54
304.582	1.63
304.957	1.44
305.332	1.58
305.707	1.53
306.082	1.52
306.456	1.54
306.831	1.51
307.206	1.57
307.58	1.57
307.955	1.51
308.33	1.57
308.704	1.51
309.079	1.4
309.453	1.53
309.828	1.56
310.202	1.4
310.576	1.43
310.951	1.64
311.325	1.53
311.699	1.4
312.073	1.44
312.447	1.43
312.821	1.53
313.196	1.6
313.57	1.53
313.944	1.34
314.317	1.46
314.691	1.55
315.065	1.54
315.439	1.54
315.813	1.56
316.187	1.39
316.56	1.47
316.934	1.58
317.308	1.45
317.681	1.5
318.055	1.52
318.428	1.52
318.802	1.62
319.175	1.41
319.549	1.47
319.922	1.44
320.295	1.43
320.669	1.64
321.042	1.53
321.415	1.82
321.788	1.55
322.162	1.48
322.535	1.49
322.908	1.55
323.281	1.49
323.654	1.51
324.027	1.43
324.4	1.49
324.773	1.53
325.145	1.6
325.518	1.36
325.891	1.43
326.264	1.76
326.636	1.37
327.009	1.44
327.382	1.55
327.754	1.39
328.127	1.41
328.499	1.51
328.872	1.54
329.244	1.5
329.616	1.58
329.989	1.4
330.361	1.42
330.733	1.48
331.106	1.37
331.478	1.38
331.85	1.47
332.222	1.44
332.594	1.53
332.966	1.45
333.338	1.71
333.71	1.61
334.082	1.59
334.454	1.4
334.826	1.58
335.197	1.57
335.569	1.53
335.941	1.34
336.312	1.41
336.684	1.45
337.056	1.44
337.427	1.66
337.799	1.63
338.17	1.59
338.542	1.43
338.913	1.6
339.284	1.61
339.656	1.51
340.027	1.52
340.398	1.72
340.769	1.55
341.141	1.7
341.512	1.55
341.883	1.48
342.254	1.54
342.625	1.62
342.996	1.44
343.367	1.58
343.738	1.55
344.108	1.37
344.479	1.6
344.85	1.41
345.221	1.51
345.591	1.39
345.962	1.32
346.333	1.51
346.703	1.31
347.074	1.46
347.444	1.39
347.815	1.52
348.185	1.36
348.556	1.25
348.926	1.42
349.296	1.45
349.666	1.31
350.037	1.36
350.407	1.29
350.777	1.26
351.147	1.3
351.517	1.4
351.887	1.29
352.257	1.35
352.627	1.31
352.997	1.34
353.367	1.38
353.737	1.44
354.106	1.38
354.476	1.29
354.846	1.34
355.216	1.33
355.585	1.25
355.955	1.3
356.324	1.31
356.694	1.35
357.063	1.23
357.433	1.2
357.802	1.21
358.171	1.26
358.541	1.2
358.91	1.15
359.279	1.17
359.648	1.11
360.017	1.09
360.387	1.06
360.756	1.05
361.125	1.04
361.494	1.01
361.863	0.98
362.231	1
362.6	0.93
362.969	0.92
363.338	0.91
363.707	0.9
364.075	0.88
364.444	0.84
364.813	0.83
365.181	0.79
365.55	0.78
365.918	0.78
366.287	0.76
366.655	0.75
367.024	0.72
367.392	0.71
367.76	0.67
368.128	0.7
368.497	0.66
368.865	0.63
369.233	0.63
369.601	0.62
369.969	0.61
370.337	0.58
370.705	0.57
371.073	0.55
371.441	0.54
371.809	0.52
372.177	0.52
372.544	0.53
372.912	0.52
373.28	0.49
373.647	0.49
374.015	0.5
374.383	0.49
374.75	0.47
375.118	0.45
375.485	0.44
375.853	0.45
376.22	0.41
376.587	0.41
376.955	0.43
377.322	0.41
377.689	0.39
378.056	0.39
378.423	0.39
378.79	0.39
379.157	0.39
379.524	0.36
379.891	0.37
380.258	0.37
380.625	0.34
380.992	0.34
381.359	0.32
381.726	0.35
382.092	0.34
382.459	0.33
382.826	0.34
383.192	0.32
383.559	0.29
383.925	0.32
384.292	0.31
384.658	0.32
385.025	0.31
385.391	0.31
385.757	0.31
386.123	0.3
386.49	0.3
386.856	0.29
387.222	0.29
387.588	0.29
387.954	0.3
388.32	0.28
388.686	0.28
389.052	0.26
389.418	0.26
389.784	0.28
390.15	0.26
390.515	0.25
390.881	0.27
391.247	0.27
391.613	0.27
391.978	0.27
392.344	0.26
392.709	0.25
393.075	0.24
393.44	0.25
393.806	0.25
394.171	0.25
394.536	0.26
394.902	0.25
395.267	0.24
395.632	0.22
395.997	0.24
396.362	0.24
396.727	0.26
397.092	0.25
397.457	0.24
397.822	0.24
398.187	0.24
398.552	0.23
398.917	0.23
399.282	0.24
399.646	0.23
400.011	0.25
400.376	0.22
400.74	0.24
401.105	0.24
401.47	0.24
401.834	0.24
402.199	0.22
402.563	0.2
402.927	0.21
403.292	0.24
403.656	0.23
404.02	0.22
404.384	0.21
404.749	0.23
405.113	0.22
405.477	0.21
405.841	0.21
406.205	0.2
406.569	0.2
406.933	0.2
407.296	0.21
407.66	0.22
408.024	0.21
408.388	0.22
408.752	0.2
409.115	0.2
409.479	0.19
409.842	0.2
410.206	0.19
410.569	0.19
410.933	0.21
411.296	0.2
411.66	0.2
412.023	0.19
412.386	0.2
412.749	0.18
413.113	0.2
413.476	0.17
413.839	0.17
414.202	0.18
414.565	0.17
414.928	0.19
415.291	0.17
415.654	0.17
416.017	0.18
416.38	0.16
416.742	0.17
417.105	0.16
417.468	0.17
417.83	0.17
418.193	0.18
418.556	0.17
418.918	0.18
419.281	0.17
419.643	0.17
420.005	0.17
420.368	0.17
420.73	0.16
421.092	0.15
421.455	0.16
421.817	0.16
422.179	0.15
422.541	0.16
422.903	0.16
423.265	0.16
423.627	0.15
423.989	0.15
424.351	0.14
424.713	0.15
425.075	0.13
425.436	0.14
425.798	0.13
426.16	0.15
426.521	0.15
426.883	0.15
427.245	0.13
427.606	0.13
427.967	0.15
428.329	0.13
428.69	0.15
429.052	0.14
429.413	0.14
429.774	0.14
430.135	0.13
430.497	0.12
430.858	0.12
431.219	0.12
431.58	0.12
431.941	0.12
432.302	0.13
432.663	0.12
433.024	0.15
433.384	0.14
433.745	0.11
434.106	0.13
434.467	0.14
434.827	0.14
435.188	0.14
435.548	0.13
435.909	0.13
436.269	0.15
436.63	0.11
436.99	0.13
437.351	0.13
437.711	0.12
438.071	0.12
438.431	0.13
438.792	0.12
439.152	0.12
439.512	0.12
439.872	0.13
440.232	0.13
440.592	0.13
440.952	0.14
441.312	0.12
441.671	0.11
442.031	0.11
442.391	0.12
442.751	0.12
443.11	0.11
443.47	0.11
443.83	0.11
444.189	0.11
444.549	0.11
444.908	0.12
445.267	0.12
445.627	0.1
445.986	0.1
446.345	0.1
446.705	0.1
447.064	0.1
447.423	0.11
447.782	0.1
448.141	0.11
448.5	0.09
448.859	0.11
449.218	0.11
449.577	0.11
449.936	0.11
450.295	0.09
450.653	0.11
451.012	0.11
451.371	0.11
451.729	0.11
452.088	0.11
452.447	0.11
452.805	0.12
453.163	0.11
453.522	0.11
453.88	0.11
454.239	0.1
454.597	0.1
454.955	0.1
455.313	0.09
455.671	0.1
456.029	0.1
456.388	0.09
456.746	0.1
457.104	0.09
457.461	0.09
457.819	0.09
458.177	0.08
458.535	0.09
458.893	0.09
459.25	0.08
459.608	0.09
459.966	0.08
460.323	0.08
460.681	0.07
461.038	0.09
461.396	0.08
461.753	0.08
462.111	0.08
462.468	0.07
462.825	0.08
463.182	0.08
463.54	0.08
463.897	0.08
464.254	0.08
464.611	0.08
464.968	0.08
465.325	0.08
465.682	0.07
466.039	0.08
466.395	0.08
466.752	0.07
467.109	0.08
467.466	0.08
467.822	0.08
468.179	0.07
468.535	0.07
468.892	0.08
469.248	0.07
469.605	0.07
469.961	0.07
470.318	0.08
470.674	0.08
471.03	0.07
471.386	0.07
471.743	0.07
472.099	0.07
472.455	0.07
472.811	0.07
473.167	0.07
473.523	0.07
473.879	0.07
474.235	0.07
474.59	0.06
474.946	0.07
475.302	0.07
475.657	0.07
476.013	0.07
476.369	0.06
476.724	0.07
477.08	0.07
477.435	0.07
477.791	0.07
478.146	0.07
478.501	0.07
478.857	0.07
479.212	0.07
479.567	0.06
479.922	0.06
480.277	0.05
480.632	0.06
480.987	0.06
481.342	0.06
481.697	0.06
482.052	0.05
482.407	0.06
482.762	0.06
483.116	0.06
483.471	0.05
483.826	0.05
484.18	0.05
484.535	0.05
484.89	0.05
485.244	0.05
485.598	0.06
485.953	0.05
486.307	0.05
486.661	0.06
487.016	0.05
487.37	0.05
487.724	0.05
488.078	0.05
488.432	0.05
488.786	0.05
489.14	0.06
489.494	0.05
489.848	0.05
490.202	0.05
490.556	0.05
490.91	0.05
491.263	0.05
491.617	0.05
491.971	0.05
492.324	0.04
492.678	0.05
493.031	0.05
493.385	0.05
493.738	0.05
494.091	0.05
494.445	0.05
494.798	0.04
495.151	0.05
495.504	0.05
495.857	0.05
496.21	0.05
496.564	0.05
496.916	0.05
497.269	0.04
497.622	0.05
497.975	0.05
498.328	0.05
498.681	0.04
499.033	0.04
499.386	0.05
499.739	0.04
500.091	0.04
500.444	0.04
500.796	0.04
501.149	0.04
501.501	0.04
501.854	0.04
502.206	0.04
502.558	0.04
502.91	0.05
503.263	0.04
503.615	0.04
503.967	0.04
504.319	0.04
504.671	0.04
505.023	0.04
505.375	0.04
505.726	0.04
506.078	0.04
506.43	0.04
506.782	0.04
507.133	0.04
507.485	0.04
507.837	0.05
508.188	0.05
508.54	0.05
508.891	0.05
509.243	0.05
509.594	0.05
509.945	0.04
510.296	0.04
510.648	0.04
510.999	0.04
511.35	0.04
511.701	0.04
512.052	0.05
512.403	0.05
512.754	0.04
513.105	0.04
513.456	0.04
513.807	0.04
514.157	0.05
514.508	0.05
514.859	0.04
515.209	0.04
515.56	0.04
515.91	0.04
516.261	0.05
516.611	0.04
516.962	0.04
517.312	0.04
517.662	0.05
518.013	0.04
518.363	0.05
518.713	0.04
519.063	0.05
519.413	0.05
519.763	0.05
520.113	0.05
520.463	0.06
520.813	0.05
521.163	0.05
521.512	0.05
521.862	0.04
522.212	0.05
522.562	0.05
522.911	0.05
523.261	0.05
523.61	0.04
523.96	0.04
524.309	0.05
524.658	0.05
525.008	0.05
525.357	0.05
525.706	0.05
526.056	0.04
526.405	0.05
526.754	0.04
527.103	0.04
527.452	0.04
527.801	0.04
528.15	0.05
528.499	0.05
528.847	0.05
529.196	0.05
529.545	0.05
529.893	0.06
530.242	0.05
530.591	0.06
530.939	0.06
531.288	0.05
531.636	0.06
531.985	0.05
532.333	0.05
532.681	0.05
533.029	0.05
533.378	0.05
533.726	0.06
534.074	0.05
534.422	0.05
534.77	0.05
535.118	0.05
535.466	0.05
535.814	0.04
536.162	0.05
536.509	0.05
536.857	0.05
537.205	0.05
537.552	0.05
537.9	0.05
538.248	0.05
538.595	0.05
538.943	0.05
539.29	0.05
539.637	0.05
539.985	0.05
540.332	0.04
540.679	0.05
541.026	0.04
541.373	0.05
541.721	0.04
542.068	0.05
542.415	0.05
542.762	0.05
543.108	0.04
543.455	0.04
543.802	0.04
544.149	0.04
544.496	0.05
544.842	0.05
545.189	0.03
545.535	0.04
545.882	0.04
546.228	0.04
546.575	0.03
546.921	0.03
547.267	0.03
547.614	0.04
547.96	0.03
548.306	0.04
548.652	0.03
548.998	0.04
549.344	0.04
549.69	0.04
550.036	0.04
550.382	0.03
550.728	0.03
551.074	0.04
551.42	0.05
551.765	0.04
552.111	0.04
552.457	0.04
552.802	0.05
553.148	0.04
553.493	0.04
553.839	0.04
554.184	0.04
554.529	0.04
554.875	0.04
555.22	0.05
555.565	0.04
555.91	0.05
556.255	0.05
556.6	0.05
556.945	0.04
557.29	0.03
557.635	0.05
557.98	0.04
558.325	0.04
558.67	0.04
559.014	0.05
559.359	0.04
559.704	0.04
560.048	0.03
560.393	0.05
560.737	0.03
561.082	0.04
561.426	0.04
561.77	0.04
562.115	0.03
562.459	0.03
562.803	0.04
563.147	0.04
563.491	0.04
563.835	0.04
564.179	0.04
564.523	0.03
564.867	0.03
565.211	0.03
565.555	0.04
565.899	0.05
566.242	0.04
566.586	0.03
566.93	0.04
567.273	0.04
567.617	0.03
567.96	0.04
568.304	0.04
568.647	0.04
568.99	0.05
569.334	0.05
569.677	0.04
570.02	0.05
570.363	0.05
570.706	0.05
571.049	0.04
571.392	0.04
571.735	0.04
572.078	0.05
572.421	0.05
572.764	0.05
573.106	0.04
573.449	0.04
573.792	0.04
574.134	0.05
574.477	0.04
574.819	0.04
575.162	0.04
575.504	0.04
575.847	0.04
576.189	0.05
576.531	0.04
576.873	0.04
577.215	0.04
577.558	0.04
577.9	0.04
578.242	0.04
578.584	0.03
578.926	0.03
579.267	0.04
579.609	0.03
579.951	0.04
580.293	0.03
580.634	0.04
580.976	0.04
581.318	0.03
581.659	0.03
582.001	0.04
582.342	0.04
582.683	0.04
583.025	0.03
583.366	0.04
583.707	0.04
584.049	0.04
584.39	0.04
584.731	0.04
585.072	0.04
585.413	0.05
585.754	0.04
586.095	0.04
586.435	0.04
586.776	0.04
587.117	0.04
587.458	0.04
587.798	0.04
588.139	0.04
588.48	0.03
588.82	0.03
589.161	0.03
589.501	0.03
589.841	0.03
590.182	0.03
590.522	0.02
590.862	0.03
591.202	0.03
591.542	0.03
591.882	0.03
592.222	0.03
592.562	0.04
592.902	0.04
593.242	0.03
593.582	0.04
593.922	0.03
594.261	0.03
594.601	0.04
594.941	0.03
595.28	0.03
595.62	0.04
595.959	0.04
596.299	0.04
596.638	0.04
596.977	0.04
597.317	0.04
597.656	0.03
597.995	0.04
598.334	0.04
598.673	0.04
599.012	0.04
599.351	0.05
599.69	0.04
600.029	0.05
600.368	0.04
600.707	0.05
601.046	0.05
601.384	0.05
601.723	0.05
602.061	0.04
602.4	0.04
602.738	0.04
603.077	0.04
603.415	0.03
603.754	0.04
604.092	0.04
604.43	0.04
604.768	0.04
605.107	0.04
605.445	0.04
605.783	0.03
606.121	0.04
606.459	0.04
606.796	0.04
607.134	0.03
607.472	0.04
607.81	0.04
608.148	0.03
608.485	0.04
608.823	0.04
609.16	0.04
609.498	0.04
609.835	0.04
610.173	0.03
610.51	0.04
610.847	0.04
611.185	0.04
611.522	0.04
611.859	0.05
612.196	0.04
612.533	0.04
612.87	0.05
613.207	0.05
613.544	0.04
613.881	0.05
614.217	0.05
614.554	0.05
614.891	0.05
615.228	0.05
615.564	0.05
615.901	0.05
616.237	0.05
616.574	0.04
616.91	0.06
617.246	0.05
617.583	0.05
617.919	0.05
618.255	0.05
618.591	0.05
618.927	0.05
619.263	0.05
619.599	0.06
619.935	0.06
620.271	0.05
620.607	0.06
620.943	0.05
621.279	0.05
621.614	0.05
621.95	0.05
622.286	0.05
622.621	0.05
622.957	0.05
623.292	0.05
623.627	0.05
623.963	0.04
624.298	0.04
624.633	0.05
624.968	0.04
625.304	0.04
625.639	0.04
625.974	0.04
626.309	0.04
626.644	0.05
626.979	0.05
627.313	0.05
627.648	0.04
627.983	0.05
628.318	0.05
628.652	0.04
628.987	0.04
629.321	0.05
629.656	0.04
629.99	0.04
630.325	0.04
630.659	0.04
630.993	0.04
631.327	0.04
631.662	0.03
631.996	0.03
632.33	0.04
632.664	0.03
632.998	0.03
633.332	0.03
633.666	0.04
633.999	0.03
634.333	0.03
634.667	0.03
635.001	0.03
635.334	0.03
635.668	0.03
636.001	0.03
636.335	0.03
636.668	0.03
637.001	0.03
637.335	0.03
637.668	0.03
638.001	0.02
638.334	0.03
638.668	0.03
639.001	0.03
639.334	0.03
639.667	0.03
639.999	0.03
640.332	0.03
640.665	0.03
640.998	0.03
641.331	0.04
641.663	0.03
641.996	0.04
642.328	0.04
642.661	0.04
642.993	0.03
643.326	0.03
643.658	0.03
643.99	0.03
644.323	0.04
644.655	0.04
644.987	0.04
645.319	0.04
645.651	0.05
645.983	0.04
646.315	0.04
646.647	0.04
646.979	0.05
647.31	0.05
647.642	0.05
647.974	0.05
648.305	0.05
648.637	0.04
648.968	0.05
649.3	0.05
649.631	0.04
649.963	0.04
650.294	0.05
650.625	0.04
650.957	0.04
651.288	0.05
651.619	0.05
651.95	0.05
652.281	0.04
652.612	0.04
652.943	0.05
653.274	0.05
653.604	0.04
653.935	0.04
654.266	0.05
654.596	0.04
654.927	0.04
655.258	0.05
655.588	0.05
655.918	0.05
656.249	0.03
656.579	0.04
656.909	0.04
657.24	0.04
657.57	0.05
657.9	0.05
658.23	0.04
658.56	0.05
658.89	0.05
659.22	0.04
659.55	0.04
659.88	0.05
660.209	0.05
660.539	0.05
660.869	0.05
661.198	0.05
661.528	0.04
661.857	0.04
662.187	0.05
662.516	0.05
662.846	0.04
663.175	0.04
663.504	0.04
663.833	0.04
664.163	0.05
664.492	0.04
664.821	0.04
665.15	0.04
665.479	0.04
665.807	0.04
666.136	0.04
666.465	0.04
666.794	0.04
667.122	0.04
667.451	0.04
667.78	0.05
668.108	0.05
668.437	0.05
668.765	0.05
669.093	0.05
669.422	0.05
669.75	0.05
670.078	0.05
670.406	0.05
670.734	0.06
671.062	0.05
671.39	0.05
671.718	0.05
672.046	0.06
672.374	0.05
672.702	0.04
673.029	0.05
673.357	0.05
673.685	0.05
674.012	0.05
674.34	0.05
674.667	0.05
674.995	0.05
675.322	0.05
675.649	0.04
675.977	0.05
676.304	0.05
676.631	0.06
676.958	0.05
677.285	0.05
677.612	0.05
677.939	0.05
678.266	0.05
678.593	0.05
678.92	0.05
679.246	0.04
679.573	0.05
679.9	0.05
680.226	0.05
680.553	0.04
680.879	0.05
681.206	0.05
681.532	0.05
681.858	0.05
682.184	0.05
682.511	0.05
682.837	0.05
683.163	0.05
683.489	0.05
683.815	0.05
684.141	0.05
684.467	0.05
684.793	0.04
685.118	0.05
685.444	0.05
685.77	0.05
686.095	0.05
686.421	0.05
686.746	0.05
687.072	0.05
687.397	0.05
687.723	0.05
688.048	0.05
688.373	0.04
688.698	0.05
689.023	0.05
689.349	0.05
689.674	0.05
689.999	0.04
690.323	0.04
690.648	0.03
690.973	0.04
691.298	0.04
691.623	0.04
691.947	0.04
692.272	0.04
692.596	0.04
692.921	0.04
693.245	0.04
693.57	0.04
693.894	0.05
694.218	0.05
694.543	0.05
694.867	0.05
695.191	0.04
695.515	0.05
695.839	0.04
696.163	0.05
696.487	0.05
696.811	0.05
697.135	0.05
697.458	0.04
697.782	0.05
698.106	0.05
698.429	0.05
698.753	0.04
699.076	0.05
699.4	0.04
699.723	0.05
700.046	0.04
700.37	0.05
700.693	0.05
701.016	0.05
701.339	0.05
701.662	0.06
701.985	0.05
702.308	0.04
702.631	0.04
702.954	0.05
703.277	0.04
703.599	0.05
703.922	0.04
704.245	0.04
704.567	0.04
704.89	0.04
705.212	0.05
705.535	0.04
705.857	0.04
706.179	0.03
706.502	0.03
706.824	0.03
707.146	0.04
707.468	0.04
707.79	0.04
708.112	0.04
708.434	0.04
708.756	0.04
709.078	0.04
709.399	0.04
709.721	0.04
710.043	0.04
710.364	0.04
710.686	0.04
711.007	0.04
711.329	0.05
711.65	0.04
711.972	0.04
712.293	0.05
712.614	0.05
712.935	0.04
713.256	0.05
713.577	0.05
713.898	0.05
714.219	0.05
714.54	0.04
714.861	0.05
715.182	0.05
715.503	0.05
715.823	0.05
716.144	0.05
716.464	0.04
716.785	0.04
717.105	0.04
717.426	0.05
717.746	0.04
718.066	0.04
718.387	0.04
718.707	0.03
719.027	0.04
719.347	0.03
719.667	0.04
719.987	0.04
720.307	0.04
720.627	0.04
720.947	0.04
721.266	0.04
721.586	0.03
721.906	0.03
722.225	0.03
722.545	0.03
722.864	0.03
723.184	0.04
723.503	0.04
723.823	0.05
724.142	0.03
724.461	0.04
724.78	0.03
725.099	0.04
725.418	0.05
725.737	0.03
726.056	0.05
726.375	0.03
726.694	0.04
727.013	0.04
727.331	0.03
727.65	0.04
727.969	0.04
728.287	0.04
728.606	0.03
728.924	0.04
729.242	0.04
729.561	0.04
729.879	0.04
730.197	0.03
730.515	0.04
730.834	0.04
731.152	0.04
731.47	0.04
731.788	0.04
732.105	0.03
732.423	0.04
732.741	0.04
733.059	0.04
733.376	0.05
733.694	0.04
734.012	0.04
734.329	0.04
734.647	0.04
734.964	0.06
735.281	0.05
735.599	0.05
735.916	0.05
736.233	0.04
736.55	0.05
736.867	0.05
737.184	0.05
737.501	0.05
737.818	0.05
738.135	0.05
738.452	0.04
738.768	0.05
739.085	0.05
739.402	0.04
739.718	0.05
740.035	0.05
740.351	0.05
740.668	0.05
740.984	0.05
741.3	0.04
741.617	0.05
741.933	0.05
742.249	0.05
742.565	0.05
742.881	0.05
743.197	0.05
743.513	0.04
743.829	0.03
744.144	0.04
744.46	0.04
744.776	0.04
745.091	0.04
745.407	0.04
745.722	0.04
746.038	0.04
746.353	0.03
746.669	0.06
746.984	0.04
747.299	0.04
747.614	0.05
747.93	0.04
748.245	0.03
748.56	0.04
748.875	0.04
749.189	0.04
749.504	0.04
749.819	0.05
750.134	0.03
750.448	0.03
750.763	0.04
751.078	0.03
751.392	0.04
751.707	0.05
752.021	0.05
752.335	0.05
752.65	0.04
752.964	0.04
753.278	0.04
753.592	0.04
753.906	0.03
754.22	0.04
754.534	0.05
754.848	0.04
755.162	0.03
755.476	0.04
755.789	0.04
756.103	0.03
756.417	0.04
756.73	0.04
757.044	0.04
757.357	0.04
757.671	0.04
757.984	0.04
758.297	0.04
758.61	0.04
758.924	0.04
759.237	0.04
759.55	0.04
759.863	0.03
760.176	0.04
760.488	0.04
760.801	0.04
761.114	0.03
761.427	0.03
761.739	0.04
762.052	0.03
762.365	0.03
762.677	0.03
762.99	0.03
763.302	0.04
763.614	0.04
763.926	0.05
764.239	0.04
764.551	0.04
764.863	0.04
765.175	0.05
765.487	0.04
765.799	0.03
766.111	0.04
766.423	0.04
766.734	0.04
767.046	0.04
767.358	0.03
767.669	0.04
767.981	0.04
768.292	0.04
768.604	0.04
768.915	0.03
769.226	0.04
769.537	0.03
769.849	0.04
770.16	0.03
770.471	0.03
770.782	0.03
771.093	0.03
771.404	0.02
771.715	0.03
772.025	0.03
772.336	0.03
772.647	0.03
772.957	0.04
773.268	0.04
773.578	0.03
773.889	0.04
774.199	0.04
774.51	0.04
774.82	0.04
775.13	0.04
775.44	0.04
775.75	0.05
776.06	0.04
776.37	0.04
776.68	0.05
776.99	0.05
777.3	0.05
777.61	0.05
777.92	0.04
778.229	0.04
778.539	0.04
778.848	0.05
779.158	0.04
779.467	0.05
779.777	0.04
780.086	0.05
780.395	0.04
780.704	0.04
781.013	0.04
781.323	0.04
781.632	0.04
781.941	0.04
782.249	0.04
782.558	0.04
782.867	0.04
783.176	0.03
783.485	0.04
783.793	0.05
784.102	0.03
784.41	0.04
784.719	0.04
785.027	0.03
785.335	0.04
785.644	0.04
785.952	0.05
786.26	0.05
786.568	0.04
786.876	0.04
787.184	0.05
787.492	0.05
787.8	0.04
788.108	0.04
788.416	0.04
788.723	0.04
789.031	0.04
789.338	0.04
789.646	0.03
789.953	0.05
790.261	0.05
790.568	0.05
790.876	0.05
791.183	0.05
791.49	0.04
791.797	0.05
792.104	0.04
792.411	0.05
792.718	0.04
793.025	0.04
793.332	0.05
793.639	0.06
793.945	0.06
794.252	0.04
794.559	0.04
794.865	0.05
795.172	0.04
795.478	0.04
795.784	0.04
796.091	0.05
796.397	0.05
796.703	0.05
797.009	0.05
797.315	0.05
797.622	0.05
797.927	0.05
798.233	0.04
798.539	0.05
798.845	0.05
799.151	0.05
799.456	0.06
799.762	0.04
800.068	0.05
800.373	0.06
800.679	0.05
800.984	0.05
801.289	0.04
801.595	0.05
801.9	0.05
802.205	0.05
802.51	0.04
802.815	0.04
803.12	0.05
803.425	0.05
803.73	0.05
804.035	0.04
804.339	0.05
804.644	0.04
804.949	0.05
805.253	0.04
805.558	0.05
805.862	0.04
806.167	0.05
806.471	0.05
806.775	0.05
807.08	0.05
807.384	0.04
807.688	0.05
807.992	0.05
808.296	0.04
808.6	0.05
808.904	0.05
809.207	0.05
809.511	0.05
809.815	0.06
810.119	0.05
810.422	0.06
810.726	0.06
811.029	0.06
811.332	0.06
811.636	0.06
811.939	0.06
812.242	0.05
812.546	0.05
812.849	0.05
813.152	0.06
813.455	0.05
813.758	0.06
814.06	0.05
814.363	0.06
814.666	0.05
814.969	0.05
815.271	0.05
815.574	0.05
815.877	0.05
816.179	0.05
816.481	0.04
816.784	0.05
817.086	0.04
817.388	0.04
817.69	0.04
817.993	0.03
818.295	0.04
818.597	0.04
818.899	0.03
819.2	0.03
819.502	0.03
819.804	0.03
820.106	0.03
820.407	0.03
820.709	0.04
821.01	0.03
821.312	0.04
821.613	0.03
821.915	0.03
822.216	0.03
822.517	0.03
822.818	0.03
823.119	0.04
823.42	0.04
823.721	0.03
824.022	0.02
824.323	0.03
824.624	0.04
824.925	0.04
825.226	0.04
825.526	0.03
825.827	0.03
826.127	0.04
826.428	0.04
826.728	0.03
827.028	0.03
827.329	0.03
827.629	0.02
827.929	0.03
828.229	0.03
828.529	0.03
828.829	0.03
829.129	0.03
829.429	0.02
829.729	0.03
830.029	0.02
830.328	0.03
830.628	0.02
830.927	0.02
831.227	0.02
831.526	0.03
831.826	0.04
832.125	0.02
832.424	0.02
832.724	0.02
833.023	0.02
833.322	0.03
833.621	0.03
833.92	0.01
834.219	0.02
834.518	0.02
834.816	0.01
835.115	0.02
835.414	0.01
835.712	0.01
836.011	0.01
836.309	0.02
836.608	0.01
836.906	0
837.205	-0
837.503	-0
837.801	0
838.099	-0
838.397	-0.01
838.695	-0.01
838.993	-0
839.291	-0.01
839.589	-0.01
839.887	-0.01
840.184	-0.02
840.482	-0.01
840.78	-0.01
841.077	-0.02
841.375	-0.02
841.672	-0.01
841.969	-0.02
842.267	-0.01
842.564	-0.02
842.861	-0.02
843.158	-0.01
843.455	-0.03
843.752	-0.02
844.049	-0.02
844.346	-0.03
844.643	-0.03
844.94	-0.02
845.236	-0.02
845.533	-0.02
845.83	-0.03
846.126	-0.03
846.423	-0.03
846.719	-0.04
847.015	-0.03
847.312	-0.03
847.608	-0.04
847.904	-0.04
848.2	-0.04
848.496	-0.04
848.792	-0.04
849.088	-0.03
849.384	-0.04
849.68	-0.06
849.975	-0.04
850.271	-0.05
850.567	-0.06
850.862	-0.06
851.158	-0.05
851.453	-0.05
851.748	-0.07
852.044	-0.06
852.339	-0.06
852.634	-0.07
852.929	-0.06
853.224	-0.07
853.519	-0.07
853.814	-0.06
854.109	-0.07
854.404	-0.07
854.699	-0.07
854.994	-0.06
855.288	-0.07
855.583	-0.06
855.877	-0.07
856.172	-0.06
856.466	-0.07
856.76	-0.07
857.055	-0.07
857.349	-0.08
857.643	-0.08
857.937	-0.09
858.231	-0.07
858.525	-0.08
858.819	-0.08
859.113	-0.1
859.407	-0.09
859.701	-0.1
859.994	-0.1
860.288	-0.08
860.581	-0.1
860.875	-0.1
861.168	-0.11
861.462	-0.1
861.755	-0.1
862.048	-0.11
862.341	-0.11
862.634	-0.11
862.928	-0.11
863.221	-0.11
863.513	-0.12
863.806	-0.11
864.099	-0.12
864.392	-0.13
864.685	-0.11
864.977	-0.12
865.27	-0.12
865.562	-0.12
865.855	-0.11
866.147	-0.13
866.44	-0.11
866.732	-0.12
867.024	-0.12
867.316	-0.12
867.608	-0.13
867.9	-0.13
868.192	-0.13
868.484	-0.13
868.776	-0.13
869.068	-0.14
869.359	-0.13
869.651	-0.14
869.943	-0.14
870.234	-0.15
870.526	-0.15
870.817	-0.15
871.108	-0.13
871.4	-0.14
871.691	-0.14
871.982	-0.15
872.273	-0.16
872.564	-0.14
872.855	-0.16
873.146	-0.16
873.437	-0.16
873.728	-0.16
874.019	-0.16
874.309	-0.16
874.6	-0.15
874.89	-0.15
875.181	-0.17
875.471	-0.15
875.762	-0.15
876.052	-0.16
876.342	-0.15
876.632	-0.16
876.922	-0.16
877.213	-0.16
877.503	-0.18
877.792	-0.17
878.082	-0.17
878.372	-0.16
878.662	-0.19
878.952	-0.17
879.241	-0.17
879.531	-0.17
879.82	-0.16
880.11	-0.17
880.399	-0.17
880.688	-0.16
880.978	-0.16
881.267	-0.16
