Data from 12-12-AQDScycling_Absorbance__238__00238.txt Node

Date: Tue Dec 12 11:56:38 EST 2023
User: kyuminlee
Spectrometer: FLMS00943
Trigger mode: 0
Integration Time (sec): 1.000000E-1
Scans to average: 1
Electric dark correction enabled: true
Nonlinearity correction enabled: false
Boxcar width: 0
XAxis mode: Wavelengths
Number of Pixels in Spectrum: 2048
>>>>>Begin Spectral Data<<<<<
179.651	0.68
180.037	0.68
180.424	0.68
180.81	-0.2
181.197	0.31
181.583	0.17
181.97	0.23
182.356	-0
182.743	-0.87
183.129	-0
183.515	1.1
183.901	-0
184.288	0.19
184.674	-0
185.06	-1.12
185.446	-0
185.832	-1.58
186.218	0.06
186.604	2.05
186.99	-0
187.376	-0.25
187.762	-0
188.148	-0
188.534	0.11
188.92	-0.02
189.305	0.02
189.691	0.18
190.077	0.15
190.463	0.04
190.848	0.25
191.234	0.09
191.619	-0
192.005	0.08
192.391	0.13
192.776	0.12
193.161	0.14
193.547	0.17
193.932	0.1
194.318	0.07
194.703	0.18
195.088	0.2
195.473	0.14
195.859	0.15
196.244	0.15
196.629	0.13
197.014	0.09
197.399	0.16
197.784	0.22
198.169	0.16
198.554	0.21
198.939	0.04
199.324	0.21
199.709	0.08
200.094	0.01
200.478	0.15
200.863	0.18
201.248	0.19
201.633	0.15
202.017	0.1
202.402	0.26
202.787	0.16
203.171	0.07
203.556	0.1
203.94	0.06
204.325	0.24
204.709	0.25
205.093	0.05
205.478	0.13
205.862	0.04
206.246	0.13
206.631	0.11
207.015	0.06
207.399	0.17
207.783	0.07
208.167	0.16
208.551	0.26
208.935	0.16
209.319	0.07
209.703	0.15
210.087	0.21
210.471	-0.04
210.855	0.05
211.239	0.18
211.623	0.32
212.007	0.4
212.39	0.45
212.774	0.15
213.158	0.04
213.541	0.25
213.925	0.22
214.309	0.35
214.692	0.38
215.076	0.21
215.459	0.22
215.842	0.21
216.226	0.19
216.609	0.33
216.993	0.27
217.376	0.55
217.759	0.25
218.142	0.36
218.525	0.42
218.909	0.4
219.292	0.28
219.675	0.52
220.058	0.32
220.441	0.53
220.824	0.46
221.207	0.62
221.59	0.4
221.973	0.49
222.355	0.56
222.738	0.68
223.121	0.61
223.504	0.57
223.886	0.79
224.269	0.66
224.652	0.64
225.034	0.8
225.417	0.63
225.799	0.68
226.182	0.84
226.564	0.96
226.947	0.78
227.329	0.78
227.711	0.92
228.094	1.03
228.476	0.87
228.858	0.74
229.24	0.93
229.623	0.99
230.005	0.77
230.387	0.87
230.769	0.86
231.151	0.99
231.533	0.97
231.915	0.85
232.297	1.1
232.679	0.89
233.061	0.93
233.442	0.98
233.824	0.97
234.206	1.12
234.588	1.1
234.969	1.2
235.351	0.98
235.733	0.96
236.114	1.14
236.496	1.07
236.877	1.17
237.259	1.09
237.64	0.95
238.022	0.88
238.403	1.03
238.784	1.01
239.165	0.93
239.547	1.13
239.928	1.07
240.309	1.09
240.69	0.97
241.071	1.23
241.452	1.19
241.834	1.06
242.215	1.02
242.595	0.96
242.976	1.12
243.357	1.16
243.738	1.09
244.119	1.3
244.5	1.13
244.881	1.21
245.261	1.2
245.642	1.18
246.023	1.18
246.403	1.07
246.784	1.21
247.164	1.31
247.545	1.15
247.925	1.28
248.306	1.21
248.686	1.39
249.067	1.18
249.447	1.28
249.827	1.46
250.207	1.47
250.588	1.31
250.968	1.36
251.348	1.33
251.728	1.36
252.108	1.32
252.488	1.32
252.868	1.29
253.248	1.32
253.628	1.37
254.008	1.42
254.388	1.3
254.768	1.34
255.147	1.26
255.527	1.34
255.907	1.22
256.287	1.32
256.666	1.42
257.046	1.44
257.425	1.49
257.805	1.34
258.184	1.35
258.564	1.51
258.943	1.33
259.323	1.5
259.702	1.51
260.081	1.46
260.461	1.45
260.84	1.46
261.219	1.48
261.598	1.61
261.977	1.57
262.356	1.42
262.736	1.56
263.115	1.58
263.494	1.37
263.873	1.32
264.251	1.3
264.63	1.53
265.009	1.39
265.388	1.43
265.767	1.34
266.145	1.41
266.524	1.43
266.903	1.3
267.281	1.33
267.66	1.44
268.039	1.5
268.417	1.31
268.796	1.5
269.174	1.36
269.552	1.28
269.931	1.39
270.309	1.47
270.687	1.52
271.066	1.49
271.444	1.42
271.822	1.47
272.2	1.46
272.578	1.42
272.956	1.44
273.334	1.4
273.712	1.43
274.09	1.48
274.468	1.35
274.846	1.31
275.224	1.29
275.602	1.41
275.98	1.6
276.357	1.41
276.735	1.49
277.113	1.43
277.49	1.29
277.868	1.31
278.246	1.41
278.623	1.41
279.001	1.34
279.378	1.47
279.756	1.5
280.133	1.6
280.51	1.27
280.888	1.45
281.265	1.27
281.642	1.46
282.019	1.43
282.396	1.47
282.773	1.42
283.151	1.58
283.528	1.44
283.905	1.32
284.282	1.65
284.659	1.53
285.035	1.4
285.412	1.44
285.789	1.52
286.166	1.47
286.543	1.37
286.919	1.53
287.296	1.38
287.673	1.49
288.049	1.59
288.426	1.69
288.802	1.52
289.179	1.49
289.555	1.5
289.932	1.61
290.308	1.29
290.684	1.39
291.061	1.32
291.437	1.61
291.813	1.34
292.189	1.36
292.565	1.42
292.942	1.39
293.318	1.34
293.694	1.3
294.07	1.36
294.446	1.36
294.822	1.53
295.197	1.48
295.573	1.39
295.949	1.5
296.325	1.4
296.701	1.48
297.076	1.66
297.452	1.54
297.828	1.47
298.203	1.61
298.579	1.45
298.954	1.44
299.33	1.36
299.705	1.45
300.081	1.51
300.456	1.41
300.831	1.44
301.206	1.41
301.582	1.68
301.957	1.57
302.332	1.69
302.707	1.5
303.082	1.48
303.457	1.49
303.832	1.5
304.207	1.42
304.582	1.57
304.957	1.55
305.332	1.53
305.707	1.61
306.082	1.64
306.456	1.53
306.831	1.4
307.206	1.73
307.58	1.58
307.955	1.39
308.33	1.53
308.704	1.57
309.079	1.55
309.453	1.73
309.828	1.5
310.202	1.56
310.576	1.49
310.951	1.54
311.325	1.5
311.699	1.59
312.073	1.42
312.447	1.59
312.821	1.48
313.196	1.79
313.57	1.35
313.944	1.45
314.317	1.36
314.691	1.58
315.065	1.46
315.439	1.55
315.813	1.51
316.187	1.45
316.56	1.72
316.934	1.51
317.308	1.49
317.681	1.45
318.055	1.44
318.428	1.37
318.802	1.57
319.175	1.47
319.549	1.48
319.922	1.39
320.295	1.44
320.669	1.92
321.042	1.48
321.415	1.57
321.788	1.47
322.162	1.55
322.535	1.52
322.908	1.63
323.281	1.43
323.654	1.56
324.027	1.41
324.4	1.62
324.773	1.61
325.145	1.7
325.518	1.37
325.891	1.53
326.264	1.71
326.636	1.36
327.009	1.35
327.382	1.45
327.754	1.67
328.127	1.45
328.499	1.42
328.872	1.62
329.244	1.45
329.616	1.46
329.989	1.49
330.361	1.59
330.733	1.45
331.106	1.39
331.478	1.55
331.85	1.33
332.222	1.49
332.594	1.44
332.966	1.6
333.338	1.64
333.71	1.65
334.082	1.65
334.454	1.49
334.826	1.67
335.197	1.46
335.569	1.49
335.941	1.48
336.312	1.36
336.684	1.47
337.056	1.49
337.427	1.54
337.799	1.51
338.17	1.46
338.542	1.39
338.913	1.63
339.284	1.64
339.656	1.56
340.027	1.68
340.398	1.63
340.769	1.62
341.141	1.64
341.512	1.55
341.883	1.54
342.254	1.57
342.625	1.47
342.996	1.53
343.367	1.48
343.738	1.47
344.108	1.33
344.479	1.72
344.85	1.36
345.221	1.52
345.591	1.45
345.962	1.45
346.333	1.56
346.703	1.33
347.074	1.37
347.444	1.37
347.815	1.49
348.185	1.42
348.556	1.4
348.926	1.43
349.296	1.29
349.666	1.4
350.037	1.26
350.407	1.26
350.777	1.32
351.147	1.34
351.517	1.43
351.887	1.35
352.257	1.36
352.627	1.15
352.997	1.32
353.367	1.44
353.737	1.3
354.106	1.3
354.476	1.32
354.846	1.3
355.216	1.31
355.585	1.37
355.955	1.37
356.324	1.28
356.694	1.28
357.063	1.27
357.433	1.22
357.802	1.21
358.171	1.22
358.541	1.18
358.91	1.16
359.279	1.12
359.648	1.09
360.017	1.09
360.387	1.04
360.756	1
361.125	1.06
361.494	1.06
361.863	0.96
362.231	0.94
362.6	0.95
362.969	0.97
363.338	0.9
363.707	0.92
364.075	0.88
364.444	0.8
364.813	0.83
365.181	0.81
365.55	0.8
365.918	0.78
366.287	0.77
366.655	0.76
367.024	0.72
367.392	0.73
367.76	0.7
368.128	0.66
368.497	0.65
368.865	0.65
369.233	0.62
369.601	0.61
369.969	0.59
370.337	0.59
370.705	0.58
371.073	0.58
371.441	0.55
371.809	0.52
372.177	0.55
372.544	0.53
372.912	0.5
373.28	0.5
373.647	0.51
374.015	0.49
374.383	0.48
374.75	0.47
375.118	0.48
375.485	0.45
375.853	0.44
376.22	0.43
376.587	0.41
376.955	0.44
377.322	0.41
377.689	0.41
378.056	0.41
378.423	0.4
378.79	0.39
379.157	0.39
379.524	0.37
379.891	0.39
380.258	0.38
380.625	0.38
380.992	0.38
381.359	0.36
381.726	0.37
382.092	0.34
382.459	0.35
382.826	0.35
383.192	0.36
383.559	0.32
383.925	0.35
384.292	0.33
384.658	0.34
385.025	0.33
385.391	0.34
385.757	0.36
386.123	0.34
386.49	0.34
386.856	0.34
387.222	0.34
387.588	0.34
387.954	0.33
388.32	0.32
388.686	0.32
389.052	0.3
389.418	0.31
389.784	0.31
390.15	0.31
390.515	0.3
390.881	0.32
391.247	0.31
391.613	0.32
391.978	0.32
392.344	0.31
392.709	0.3
393.075	0.3
393.44	0.29
393.806	0.28
394.171	0.3
394.536	0.3
394.902	0.29
395.267	0.28
395.632	0.27
395.997	0.29
396.362	0.3
396.727	0.3
397.092	0.3
397.457	0.29
397.822	0.29
398.187	0.29
398.552	0.28
398.917	0.26
399.282	0.27
399.646	0.26
400.011	0.29
400.376	0.26
400.74	0.28
401.105	0.28
401.47	0.27
401.834	0.25
402.199	0.26
402.563	0.25
402.927	0.25
403.292	0.27
403.656	0.25
404.02	0.26
404.384	0.26
404.749	0.26
405.113	0.25
405.477	0.24
405.841	0.23
406.205	0.24
406.569	0.23
406.933	0.24
407.296	0.23
407.66	0.26
408.024	0.24
408.388	0.25
408.752	0.23
409.115	0.21
409.479	0.22
409.842	0.22
410.206	0.22
410.569	0.23
410.933	0.23
411.296	0.22
411.66	0.22
412.023	0.2
412.386	0.22
412.749	0.23
413.113	0.21
413.476	0.2
413.839	0.2
414.202	0.2
414.565	0.19
414.928	0.2
415.291	0.19
415.654	0.2
416.017	0.2
416.38	0.19
416.742	0.19
417.105	0.18
417.468	0.19
417.83	0.18
418.193	0.19
418.556	0.19
418.918	0.19
419.281	0.19
419.643	0.17
420.005	0.17
420.368	0.19
420.73	0.18
421.092	0.18
421.455	0.16
421.817	0.16
422.179	0.17
422.541	0.17
422.903	0.17
423.265	0.17
423.627	0.17
423.989	0.16
424.351	0.16
424.713	0.17
425.075	0.15
425.436	0.15
425.798	0.15
426.16	0.17
426.521	0.16
426.883	0.17
427.245	0.15
427.606	0.15
427.967	0.16
428.329	0.16
428.69	0.16
429.052	0.16
429.413	0.16
429.774	0.15
430.135	0.14
430.497	0.15
430.858	0.15
431.219	0.14
431.58	0.14
431.941	0.15
432.302	0.16
432.663	0.15
433.024	0.15
433.384	0.15
433.745	0.13
434.106	0.14
434.467	0.15
434.827	0.16
435.188	0.15
435.548	0.16
435.909	0.14
436.269	0.15
436.63	0.13
436.99	0.15
437.351	0.14
437.711	0.16
438.071	0.13
438.431	0.14
438.792	0.14
439.152	0.14
439.512	0.12
439.872	0.15
440.232	0.15
440.592	0.15
440.952	0.14
441.312	0.13
441.671	0.13
442.031	0.13
442.391	0.13
442.751	0.14
443.11	0.13
443.47	0.12
443.83	0.13
444.189	0.13
444.549	0.13
444.908	0.13
445.267	0.13
445.627	0.13
445.986	0.12
446.345	0.13
446.705	0.13
447.064	0.12
447.423	0.12
447.782	0.12
448.141	0.12
448.5	0.11
448.859	0.12
449.218	0.12
449.577	0.12
449.936	0.13
450.295	0.12
450.653	0.12
451.012	0.13
451.371	0.13
451.729	0.13
452.088	0.12
452.447	0.13
452.805	0.13
453.163	0.13
453.522	0.13
453.88	0.11
454.239	0.12
454.597	0.12
454.955	0.12
455.313	0.11
455.671	0.12
456.029	0.11
456.388	0.11
456.746	0.11
457.104	0.11
457.461	0.1
457.819	0.11
458.177	0.1
458.535	0.09
458.893	0.09
459.25	0.09
459.608	0.1
459.966	0.09
460.323	0.09
460.681	0.08
461.038	0.1
461.396	0.09
461.753	0.09
462.111	0.09
462.468	0.09
462.825	0.08
463.182	0.08
463.54	0.09
463.897	0.09
464.254	0.08
464.611	0.08
464.968	0.09
465.325	0.09
465.682	0.08
466.039	0.08
466.395	0.08
466.752	0.08
467.109	0.08
467.466	0.08
467.822	0.08
468.179	0.08
468.535	0.08
468.892	0.08
469.248	0.07
469.605	0.08
469.961	0.07
470.318	0.09
470.674	0.09
471.03	0.08
471.386	0.09
471.743	0.08
472.099	0.08
472.455	0.08
472.811	0.07
473.167	0.08
473.523	0.07
473.879	0.07
474.235	0.07
474.59	0.06
474.946	0.06
475.302	0.07
475.657	0.07
476.013	0.07
476.369	0.06
476.724	0.07
477.08	0.07
477.435	0.07
477.791	0.07
478.146	0.07
478.501	0.06
478.857	0.07
479.212	0.07
479.567	0.07
479.922	0.06
480.277	0.06
480.632	0.06
480.987	0.07
481.342	0.06
481.697	0.06
482.052	0.06
482.407	0.06
482.762	0.06
483.116	0.06
483.471	0.05
483.826	0.05
484.18	0.05
484.535	0.05
484.89	0.06
485.244	0.05
485.598	0.05
485.953	0.05
486.307	0.05
486.661	0.06
487.016	0.05
487.37	0.06
487.724	0.06
488.078	0.06
488.432	0.06
488.786	0.05
489.14	0.06
489.494	0.05
489.848	0.05
490.202	0.05
490.556	0.05
490.91	0.06
491.263	0.05
491.617	0.05
491.971	0.05
492.324	0.05
492.678	0.06
493.031	0.06
493.385	0.06
493.738	0.06
494.091	0.05
494.445	0.06
494.798	0.06
495.151	0.05
495.504	0.05
495.857	0.05
496.21	0.05
496.564	0.05
496.916	0.06
497.269	0.05
497.622	0.06
497.975	0.05
498.328	0.05
498.681	0.06
499.033	0.05
499.386	0.06
499.739	0.05
500.091	0.05
500.444	0.05
500.796	0.05
501.149	0.05
501.501	0.05
501.854	0.05
502.206	0.05
502.558	0.05
502.91	0.05
503.263	0.05
503.615	0.05
503.967	0.04
504.319	0.04
504.671	0.05
505.023	0.04
505.375	0.05
505.726	0.05
506.078	0.05
506.43	0.04
506.782	0.04
507.133	0.04
507.485	0.04
507.837	0.05
508.188	0.05
508.54	0.04
508.891	0.05
509.243	0.04
509.594	0.04
509.945	0.04
510.296	0.04
510.648	0.05
510.999	0.04
511.35	0.04
511.701	0.04
512.052	0.05
512.403	0.05
512.754	0.04
513.105	0.04
513.456	0.04
513.807	0.04
514.157	0.04
514.508	0.04
514.859	0.04
515.209	0.03
515.56	0.04
515.91	0.03
516.261	0.04
516.611	0.03
516.962	0.03
517.312	0.04
517.662	0.04
518.013	0.04
518.363	0.04
518.713	0.03
519.063	0.03
519.413	0.03
519.763	0.04
520.113	0.03
520.463	0.04
520.813	0.04
521.163	0.04
521.512	0.04
521.862	0.04
522.212	0.04
522.562	0.04
522.911	0.04
523.261	0.04
523.61	0.04
523.96	0.04
524.309	0.04
524.658	0.04
525.008	0.03
525.357	0.04
525.706	0.05
526.056	0.04
526.405	0.04
526.754	0.04
527.103	0.03
527.452	0.04
527.801	0.04
528.15	0.04
528.499	0.04
528.847	0.04
529.196	0.05
529.545	0.04
529.893	0.05
530.242	0.04
530.591	0.05
530.939	0.05
531.288	0.04
531.636	0.05
531.985	0.05
532.333	0.05
532.681	0.04
533.029	0.05
533.378	0.05
533.726	0.04
534.074	0.05
534.422	0.04
534.77	0.05
535.118	0.04
535.466	0.04
535.814	0.04
536.162	0.05
536.509	0.05
536.857	0.04
537.205	0.05
537.552	0.05
537.9	0.04
538.248	0.04
538.595	0.05
538.943	0.04
539.29	0.04
539.637	0.04
539.985	0.04
540.332	0.04
540.679	0.03
541.026	0.04
541.373	0.04
541.721	0.03
542.068	0.03
542.415	0.03
542.762	0.03
543.108	0.03
543.455	0.03
543.802	0.03
544.149	0.03
544.496	0.03
544.842	0.02
545.189	0.03
545.535	0.03
545.882	0.03
546.228	0.02
546.575	0.02
546.921	0.02
547.267	0.02
547.614	0.03
547.96	0.03
548.306	0.03
548.652	0.02
548.998	0.03
549.344	0.02
549.69	0.03
550.036	0.03
550.382	0.02
550.728	0.03
551.074	0.04
551.42	0.03
551.765	0.03
552.111	0.04
552.457	0.04
552.802	0.04
553.148	0.03
553.493	0.03
553.839	0.03
554.184	0.04
554.529	0.03
554.875	0.04
555.22	0.04
555.565	0.03
555.91	0.03
556.255	0.04
556.6	0.03
556.945	0.03
557.29	0.03
557.635	0.04
557.98	0.04
558.325	0.03
558.67	0.03
559.014	0.03
559.359	0.04
559.704	0.03
560.048	0.02
560.393	0.03
560.737	0.02
561.082	0.03
561.426	0.03
561.77	0.02
562.115	0.02
562.459	0.02
562.803	0.03
563.147	0.02
563.491	0.03
563.835	0.03
564.179	0.03
564.523	0.03
564.867	0.02
565.211	0.03
565.555	0.03
565.899	0.03
566.242	0.03
566.586	0.03
566.93	0.03
567.273	0.03
567.617	0.03
567.96	0.04
568.304	0.03
568.647	0.03
568.99	0.03
569.334	0.03
569.677	0.02
570.02	0.04
570.363	0.03
570.706	0.03
571.049	0.03
571.392	0.04
571.735	0.02
572.078	0.03
572.421	0.04
572.764	0.03
573.106	0.03
573.449	0.02
573.792	0.03
574.134	0.03
574.477	0.03
574.819	0.02
575.162	0.03
575.504	0.02
575.847	0.03
576.189	0.03
576.531	0.03
576.873	0.03
577.215	0.03
577.558	0.03
577.9	0.02
578.242	0.03
578.584	0.03
578.926	0.02
579.267	0.03
579.609	0.03
579.951	0.03
580.293	0.03
580.634	0.03
580.976	0.02
581.318	0.02
581.659	0.02
582.001	0.02
582.342	0.02
582.683	0.03
583.025	0.02
583.366	0.02
583.707	0.03
584.049	0.02
584.39	0.02
584.731	0.02
585.072	0.02
585.413	0.03
585.754	0.03
586.095	0.03
586.435	0.03
586.776	0.04
587.117	0.03
587.458	0.03
587.798	0.02
588.139	0.03
588.48	0.02
588.82	0.03
589.161	0.02
589.501	0.02
589.841	0.03
590.182	0.02
590.522	0.02
590.862	0.03
591.202	0.03
591.542	0.02
591.882	0.02
592.222	0.03
592.562	0.03
592.902	0.03
593.242	0.02
593.582	0.03
593.922	0.02
594.261	0.02
594.601	0.02
594.941	0.03
595.28	0.03
595.62	0.03
595.959	0.03
596.299	0.03
596.638	0.02
596.977	0.03
597.317	0.03
597.656	0.03
597.995	0.02
598.334	0.03
598.673	0.02
599.012	0.02
599.351	0.02
599.69	0.02
600.029	0.03
600.368	0.03
600.707	0.02
601.046	0.02
601.384	0.02
601.723	0.03
602.061	0.02
602.4	0.03
602.738	0.02
603.077	0.03
603.415	0.02
603.754	0.03
604.092	0.03
604.43	0.03
604.768	0.03
605.107	0.03
605.445	0.02
605.783	0.03
606.121	0.03
606.459	0.03
606.796	0.02
607.134	0.02
607.472	0.03
607.81	0.03
608.148	0.03
608.485	0.02
608.823	0.02
609.16	0.02
609.498	0.02
609.835	0.03
610.173	0.02
610.51	0.03
610.847	0.03
611.185	0.03
611.522	0.04
611.859	0.03
612.196	0.03
612.533	0.04
612.87	0.03
613.207	0.04
613.544	0.03
613.881	0.04
614.217	0.04
614.554	0.03
614.891	0.04
615.228	0.04
615.564	0.04
615.901	0.04
616.237	0.04
616.574	0.03
616.91	0.04
617.246	0.04
617.583	0.04
617.919	0.05
618.255	0.04
618.591	0.04
618.927	0.04
619.263	0.05
619.599	0.05
619.935	0.05
620.271	0.04
620.607	0.04
620.943	0.04
621.279	0.04
621.614	0.04
621.95	0.04
622.286	0.04
622.621	0.03
622.957	0.03
623.292	0.04
623.627	0.03
623.963	0.03
624.298	0.03
624.633	0.03
624.968	0.03
625.304	0.03
625.639	0.03
625.974	0.03
626.309	0.02
626.644	0.03
626.979	0.03
627.313	0.03
627.648	0.03
627.983	0.03
628.318	0.02
628.652	0.02
628.987	0.03
629.321	0.03
629.656	0.03
629.99	0.03
630.325	0.04
630.659	0.02
630.993	0.02
631.327	0.03
631.662	0.02
631.996	0.03
632.33	0.03
632.664	0.03
632.998	0.03
633.332	0.03
633.666	0.03
633.999	0.03
634.333	0.02
634.667	0.03
635.001	0.02
635.334	0.03
635.668	0.02
636.001	0.02
636.335	0.02
636.668	0.03
637.001	0.02
637.335	0.02
637.668	0.02
638.001	0.02
638.334	0.03
638.668	0.02
639.001	0.03
639.334	0.02
639.667	0.02
639.999	0.02
640.332	0.02
640.665	0.02
640.998	0.02
641.331	0.02
641.663	0.02
641.996	0.02
642.328	0.02
642.661	0.02
642.993	0.02
643.326	0.02
643.658	0.02
643.99	0.02
644.323	0.02
644.655	0.02
644.987	0.02
645.319	0.02
645.651	0.03
645.983	0.02
646.315	0.02
646.647	0.02
646.979	0.04
647.31	0.03
647.642	0.03
647.974	0.03
648.305	0.03
648.637	0.03
648.968	0.03
649.3	0.03
649.631	0.04
649.963	0.03
650.294	0.04
650.625	0.03
650.957	0.04
651.288	0.03
651.619	0.04
651.95	0.04
652.281	0.04
652.612	0.03
652.943	0.04
653.274	0.04
653.604	0.04
653.935	0.03
654.266	0.04
654.596	0.03
654.927	0.03
655.258	0.04
655.588	0.04
655.918	0.04
656.249	0.02
656.579	0.03
656.909	0.04
657.24	0.03
657.57	0.04
657.9	0.04
658.23	0.04
658.56	0.04
658.89	0.04
659.22	0.04
659.55	0.04
659.88	0.04
660.209	0.04
660.539	0.06
660.869	0.04
661.198	0.05
661.528	0.04
661.857	0.04
662.187	0.04
662.516	0.05
662.846	0.04
663.175	0.04
663.504	0.04
663.833	0.03
664.163	0.04
664.492	0.03
664.821	0.03
665.15	0.04
665.479	0.04
665.807	0.04
666.136	0.04
666.465	0.03
666.794	0.04
667.122	0.03
667.451	0.03
667.78	0.03
668.108	0.03
668.437	0.03
668.765	0.03
669.093	0.04
669.422	0.04
669.75	0.03
670.078	0.04
670.406	0.04
670.734	0.04
671.062	0.04
671.39	0.04
671.718	0.04
672.046	0.04
672.374	0.04
672.702	0.04
673.029	0.04
673.357	0.04
673.685	0.04
674.012	0.04
674.34	0.04
674.667	0.05
674.995	0.04
675.322	0.04
675.649	0.03
675.977	0.04
676.304	0.04
676.631	0.04
676.958	0.03
677.285	0.03
677.612	0.03
677.939	0.03
678.266	0.04
678.593	0.03
678.92	0.04
679.246	0.03
679.573	0.03
679.9	0.03
680.226	0.03
680.553	0.03
680.879	0.03
681.206	0.03
681.532	0.03
681.858	0.03
682.184	0.03
682.511	0.03
682.837	0.02
683.163	0.03
683.489	0.02
683.815	0.02
684.141	0.03
684.467	0.03
684.793	0.02
685.118	0.03
685.444	0.03
685.77	0.04
686.095	0.04
686.421	0.04
686.746	0.04
687.072	0.03
687.397	0.03
687.723	0.04
688.048	0.04
688.373	0.04
688.698	0.04
689.023	0.04
689.349	0.04
689.674	0.04
689.999	0.03
690.323	0.03
690.648	0.03
690.973	0.02
691.298	0.03
691.623	0.02
691.947	0.03
692.272	0.02
692.596	0.03
692.921	0.03
693.245	0.03
693.57	0.03
693.894	0.03
694.218	0.03
694.543	0.03
694.867	0.03
695.191	0.03
695.515	0.03
695.839	0.03
696.163	0.03
696.487	0.03
696.811	0.03
697.135	0.03
697.458	0.03
697.782	0.03
698.106	0.04
698.429	0.03
698.753	0.03
699.076	0.03
699.4	0.03
699.723	0.03
700.046	0.02
700.37	0.03
700.693	0.03
701.016	0.03
701.339	0.03
701.662	0.04
701.985	0.03
702.308	0.03
702.631	0.03
702.954	0.03
703.277	0.03
703.599	0.03
703.922	0.02
704.245	0.03
704.567	0.03
704.89	0.03
705.212	0.04
705.535	0.03
705.857	0.02
706.179	0.02
706.502	0.02
706.824	0.02
707.146	0.02
707.468	0.03
707.79	0.03
708.112	0.03
708.434	0.03
708.756	0.03
709.078	0.03
709.399	0.03
709.721	0.02
710.043	0.04
710.364	0.04
710.686	0.03
711.007	0.03
711.329	0.03
711.65	0.03
711.972	0.03
712.293	0.04
712.614	0.04
712.935	0.03
713.256	0.03
713.577	0.04
713.898	0.03
714.219	0.03
714.54	0.03
714.861	0.02
715.182	0.03
715.503	0.02
715.823	0.02
716.144	0.03
716.464	0.02
716.785	0.03
717.105	0.02
717.426	0.03
717.746	0.02
718.066	0.02
718.387	0.02
718.707	0.02
719.027	0.03
719.347	0.01
719.667	0.02
719.987	0.02
720.307	0.01
720.627	0.02
720.947	0.02
721.266	0.01
721.586	0.01
721.906	0.01
722.225	0.01
722.545	0.01
722.864	0.01
723.184	0.01
723.503	0.02
723.823	0.02
724.142	0.01
724.461	0.02
724.78	0.02
725.099	0.02
725.418	0.01
725.737	0.02
726.056	0.02
726.375	0.02
726.694	0.02
727.013	0.02
727.331	0.02
727.65	0.02
727.969	0.02
728.287	0.02
728.606	0.02
728.924	0.02
729.242	0.01
729.561	0.02
729.879	0.02
730.197	0.02
730.515	0.01
730.834	0.01
731.152	0.02
731.47	0.01
731.788	0.02
732.105	0.01
732.423	0.01
732.741	0.02
733.059	0.01
733.376	0.02
733.694	0.01
734.012	0.01
734.329	0.02
734.647	0.02
734.964	0.02
735.281	0.02
735.599	0.02
735.916	0.02
736.233	0.01
736.55	0.02
736.867	0.02
737.184	0.03
737.501	0.02
737.818	0.03
738.135	0.03
738.452	0.03
738.768	0.03
739.085	0.03
739.402	0.02
739.718	0.03
740.035	0.03
740.351	0.03
740.668	0.03
740.984	0.03
741.3	0.02
741.617	0.03
741.933	0.02
742.249	0.03
742.565	0.02
742.881	0.03
743.197	0.03
743.513	0.02
743.829	0.02
744.144	0.03
744.46	0.03
744.776	0.03
745.091	0.02
745.407	0.03
745.722	0.03
746.038	0.03
746.353	0.02
746.669	0.03
746.984	0.03
747.299	0.02
747.614	0.04
747.93	0.04
748.245	0.03
748.56	0.03
748.875	0.02
749.189	0.03
749.504	0.03
749.819	0.03
750.134	0.03
750.448	0.03
750.763	0.04
751.078	0.03
751.392	0.03
751.707	0.04
752.021	0.03
752.335	0.04
752.65	0.04
752.964	0.03
753.278	0.03
753.592	0.03
753.906	0.02
754.22	0.03
754.534	0.03
754.848	0.03
755.162	0.03
755.476	0.04
755.789	0.03
756.103	0.02
756.417	0.03
756.73	0.03
757.044	0.03
757.357	0.04
757.671	0.04
757.984	0.03
758.297	0.04
758.61	0.04
758.924	0.04
759.237	0.03
759.55	0.04
759.863	0.04
760.176	0.03
760.488	0.04
760.801	0.03
761.114	0.03
761.427	0.03
761.739	0.03
762.052	0.03
762.365	0.03
762.677	0.03
762.99	0.02
763.302	0.03
763.614	0.03
763.926	0.03
764.239	0.03
764.551	0.03
764.863	0.03
765.175	0.03
765.487	0.03
765.799	0.03
766.111	0.02
766.423	0.03
766.734	0.04
767.046	0.02
767.358	0.02
767.669	0.04
767.981	0.03
768.292	0.03
768.604	0.03
768.915	0.03
769.226	0.03
769.537	0.02
769.849	0.03
770.16	0.02
770.471	0.02
770.782	0.03
771.093	0.02
771.404	0.01
771.715	0.02
772.025	0.02
772.336	0.02
772.647	0.02
772.957	0.02
773.268	0.02
773.578	0.02
773.889	0.02
774.199	0.03
774.51	0.02
774.82	0.02
775.13	0.03
775.44	0.02
775.75	0.02
776.06	0.02
776.37	0.03
776.68	0.03
776.99	0.03
777.3	0.02
777.61	0.03
777.92	0.03
778.229	0.03
778.539	0.03
778.848	0.03
779.158	0.03
779.467	0.03
779.777	0.03
780.086	0.04
780.395	0.02
780.704	0.02
781.013	0.02
781.323	0.02
781.632	0.03
781.941	0.03
782.249	0.03
782.558	0.02
782.867	0.02
783.176	0.03
783.485	0.02
783.793	0.03
784.102	0.03
784.41	0.03
784.719	0.02
785.027	0.02
785.335	0.02
785.644	0.03
785.952	0.03
786.26	0.02
786.568	0.02
786.876	0.02
787.184	0.02
787.492	0.02
787.8	0.02
788.108	0.03
788.416	0.02
788.723	0.03
789.031	0.02
789.338	0.02
789.646	0.02
789.953	0.02
790.261	0.02
790.568	0.02
790.876	0.03
791.183	0.03
791.49	0.02
791.797	0.03
792.104	0.02
792.411	0.03
792.718	0.02
793.025	0.03
793.332	0.03
793.639	0.03
793.945	0.04
794.252	0.03
794.559	0.03
794.865	0.03
795.172	0.04
795.478	0.03
795.784	0.03
796.091	0.04
796.397	0.04
796.703	0.04
797.009	0.04
797.315	0.04
797.622	0.04
797.927	0.04
798.233	0.03
798.539	0.04
798.845	0.03
799.151	0.03
799.456	0.03
799.762	0.03
800.068	0.03
800.373	0.04
800.679	0.03
800.984	0.03
801.289	0.03
801.595	0.04
801.9	0.03
802.205	0.02
802.51	0.03
802.815	0.03
803.12	0.02
803.425	0.03
803.73	0.02
804.035	0.04
804.339	0.02
804.644	0.03
804.949	0.03
805.253	0.03
805.558	0.03
805.862	0.03
806.167	0.03
806.471	0.02
806.775	0.03
807.08	0.04
807.384	0.04
807.688	0.03
807.992	0.03
808.296	0.03
808.6	0.03
808.904	0.03
809.207	0.03
809.511	0.04
809.815	0.05
810.119	0.04
810.422	0.04
810.726	0.05
811.029	0.05
811.332	0.04
811.636	0.04
811.939	0.04
812.242	0.04
812.546	0.03
812.849	0.04
813.152	0.05
813.455	0.04
813.758	0.04
814.06	0.04
814.363	0.04
814.666	0.04
814.969	0.04
815.271	0.04
815.574	0.04
815.877	0.03
816.179	0.03
816.481	0.03
816.784	0.04
817.086	0.03
817.388	0.02
817.69	0.02
817.993	0.02
818.295	0.02
818.597	0.02
818.899	0.02
819.2	0.01
819.502	0.02
819.804	0.02
820.106	0.02
820.407	0.01
820.709	0.02
821.01	0.02
821.312	0.03
821.613	0.01
821.915	0.01
822.216	0.01
822.517	0.01
822.818	0.02
823.119	0.02
823.42	0.02
823.721	0.02
824.022	0.01
824.323	0.02
824.624	0.02
824.925	0.03
825.226	0.04
825.526	0.03
825.827	0.02
826.127	0.02
826.428	0.03
826.728	0.02
827.028	0.03
827.329	0.02
827.629	0.02
827.929	0.02
828.229	0.02
828.529	0.02
828.829	0.02
829.129	0.02
829.429	0.02
829.729	0.02
830.029	0.02
830.328	0.02
830.628	0.01
830.927	0.01
831.227	0.02
831.526	0.02
831.826	0.02
832.125	0.02
832.424	0.01
832.724	0.02
833.023	0.02
833.322	0.02
833.621	0.02
833.92	0.01
834.219	0.02
834.518	0.02
834.816	0.01
835.115	0.01
835.414	0.02
835.712	0.01
836.011	0.02
836.309	0.01
836.608	0.01
836.906	0
837.205	-0
837.503	-0
837.801	-0
838.099	0
838.397	-0.01
838.695	-0.01
838.993	-0.01
839.291	-0.01
839.589	-0.02
839.887	-0.01
840.184	-0.01
840.482	-0.02
840.78	-0.02
841.077	-0.02
841.375	-0.03
841.672	-0.02
841.969	-0.03
842.267	-0.03
842.564	-0.03
842.861	-0.03
843.158	-0.03
843.455	-0.05
843.752	-0.04
844.049	-0.04
844.346	-0.04
844.643	-0.05
844.94	-0.05
845.236	-0.03
845.533	-0.04
845.83	-0.05
846.126	-0.05
846.423	-0.05
846.719	-0.06
847.015	-0.06
847.312	-0.06
847.608	-0.06
847.904	-0.06
848.2	-0.07
848.496	-0.07
848.792	-0.06
849.088	-0.05
849.384	-0.07
849.68	-0.06
849.975	-0.07
850.271	-0.07
850.567	-0.07
850.862	-0.07
851.158	-0.07
851.453	-0.06
851.748	-0.08
852.044	-0.06
852.339	-0.07
852.634	-0.1
852.929	-0.07
853.224	-0.08
853.519	-0.08
853.814	-0.07
854.109	-0.08
854.404	-0.08
854.699	-0.09
854.994	-0.08
855.288	-0.07
855.583	-0.07
855.877	-0.08
856.172	-0.08
856.466	-0.09
856.76	-0.08
857.055	-0.09
857.349	-0.1
857.643	-0.11
857.937	-0.1
858.231	-0.1
858.525	-0.1
858.819	-0.1
859.113	-0.12
859.407	-0.11
859.701	-0.11
859.994	-0.11
860.288	-0.1
860.581	-0.11
860.875	-0.11
861.168	-0.12
861.462	-0.11
861.755	-0.12
862.048	-0.12
862.341	-0.12
862.634	-0.13
862.928	-0.12
863.221	-0.12
863.513	-0.12
863.806	-0.13
864.099	-0.14
864.392	-0.13
864.685	-0.12
864.977	-0.13
865.27	-0.14
865.562	-0.13
865.855	-0.13
866.147	-0.13
866.44	-0.13
866.732	-0.14
867.024	-0.15
867.316	-0.14
867.608	-0.15
867.9	-0.14
868.192	-0.14
868.484	-0.14
868.776	-0.16
869.068	-0.14
869.359	-0.15
869.651	-0.15
869.943	-0.16
870.234	-0.16
870.526	-0.17
870.817	-0.16
871.108	-0.15
871.4	-0.16
871.691	-0.17
871.982	-0.17
872.273	-0.18
872.564	-0.17
872.855	-0.17
873.146	-0.17
873.437	-0.18
873.728	-0.18
874.019	-0.18
874.309	-0.18
874.6	-0.17
874.89	-0.18
875.181	-0.19
875.471	-0.17
875.762	-0.17
876.052	-0.17
876.342	-0.16
876.632	-0.17
876.922	-0.18
877.213	-0.18
877.503	-0.19
877.792	-0.18
878.082	-0.19
878.372	-0.16
878.662	-0.2
878.952	-0.18
879.241	-0.18
879.531	-0.18
879.82	-0.19
880.11	-0.18
880.399	-0.19
880.688	-0.17
880.978	-0.17
881.267	-0.17
