Data from 12-12-AQDScycling_Absorbance__569__00569.txt Node

Date: Tue Dec 12 13:18:59 EST 2023
User: kyuminlee
Spectrometer: FLMS00943
Trigger mode: 0
Integration Time (sec): 1.000000E-1
Scans to average: 1
Electric dark correction enabled: true
Nonlinearity correction enabled: false
Boxcar width: 0
XAxis mode: Wavelengths
Number of Pixels in Spectrum: 2048
>>>>>Begin Spectral Data<<<<<
179.651	-0
180.037	-0
180.424	-0
180.81	0.48
181.197	-0.05
181.583	-0
181.97	-0.15
182.356	-0
182.743	-0.03
183.129	-0
183.515	0.41
183.901	-1.68
184.288	0.08
184.674	-0
185.06	-0
185.446	-0
185.832	-0
186.218	0.47
186.604	-0.08
186.99	-0
187.376	-0
187.762	-0
188.148	0.55
188.534	0.02
188.92	0.19
189.305	0.02
189.691	0.3
190.077	0.15
190.463	0.08
190.848	0.1
191.234	0.02
191.619	0.13
192.005	0.14
192.391	0.13
192.776	0.22
193.161	0.06
193.547	0.23
193.932	0.05
194.318	0.07
194.703	0.19
195.088	0.14
195.473	0.15
195.859	0.18
196.244	0.03
196.629	0.09
197.014	0.14
197.399	0.15
197.784	0.19
198.169	0.16
198.554	0.15
198.939	0.15
199.324	0.06
199.709	0.04
200.094	0.09
200.478	0.08
200.863	0.16
201.248	0.07
201.633	0.16
202.017	0.14
202.402	0.16
202.787	0.03
203.171	0.2
203.556	0.25
203.94	0.07
204.325	0.26
204.709	0.18
205.093	0.08
205.478	0.17
205.862	0.14
206.246	0.05
206.631	0.02
207.015	0.04
207.399	0.17
207.783	0.24
208.167	0.14
208.551	0.37
208.935	0.24
209.319	0.13
209.703	0.15
210.087	0.31
210.471	0.15
210.855	0.14
211.239	0.2
211.623	0.25
212.007	0.09
212.39	0.33
212.774	0.26
213.158	0.18
213.541	0.13
213.925	0.19
214.309	0.3
214.692	0.27
215.076	0.26
215.459	0.06
215.842	0.12
216.226	0.32
216.609	0.31
216.993	0.18
217.376	0.44
217.759	0.24
218.142	0.2
218.525	0.37
218.909	0.37
219.292	0.3
219.675	0.46
220.058	0.27
220.441	0.52
220.824	0.42
221.207	0.62
221.59	0.57
221.973	0.52
222.355	0.52
222.738	0.67
223.121	0.6
223.504	0.57
223.886	0.67
224.269	0.63
224.652	0.87
225.034	0.74
225.417	0.63
225.799	0.74
226.182	1.06
226.564	0.71
226.947	0.79
227.329	0.93
227.711	1.01
228.094	1.11
228.476	1.02
228.858	0.87
229.24	0.83
229.623	0.75
230.005	0.81
230.387	0.98
230.769	0.86
231.151	0.96
231.533	0.93
231.915	0.94
232.297	0.93
232.679	0.96
233.061	0.96
233.442	1.02
233.824	1.04
234.206	1.13
234.588	1.01
234.969	1.03
235.351	0.96
235.733	1.18
236.114	1.2
236.496	1.03
236.877	1.08
237.259	1.02
237.64	1.08
238.022	0.97
238.403	1.09
238.784	0.98
239.165	1.02
239.547	1.06
239.928	1.28
240.309	1.22
240.69	0.96
241.071	1.17
241.452	1.14
241.834	1.07
242.215	1.02
242.595	1.04
242.976	1.13
243.357	1.18
243.738	1.1
244.119	1.29
244.5	1.12
244.881	1.29
245.261	1.25
245.642	1.21
246.023	1.25
246.403	1.16
246.784	1.19
247.164	1.22
247.545	1.3
247.925	1.26
248.306	1.18
248.686	1.42
249.067	1.21
249.447	1.3
249.827	1.49
250.207	1.46
250.588	1.31
250.968	1.36
251.348	1.35
251.728	1.5
252.108	1.34
252.488	1.29
252.868	1.27
253.248	1.26
253.628	1.36
254.008	1.59
254.388	1.36
254.768	1.51
255.147	1.46
255.527	1.36
255.907	1.4
256.287	1.31
256.666	1.45
257.046	1.41
257.425	1.34
257.805	1.28
258.184	1.3
258.564	1.33
258.943	1.35
259.323	1.47
259.702	1.44
260.081	1.48
260.461	1.58
260.84	1.46
261.219	1.68
261.598	1.5
261.977	1.39
262.356	1.5
262.736	1.38
263.115	1.48
263.494	1.47
263.873	1.48
264.251	1.48
264.63	1.63
265.009	1.39
265.388	1.33
265.767	1.31
266.145	1.43
266.524	1.44
266.903	1.38
267.281	1.46
267.66	1.43
268.039	1.48
268.417	1.44
268.796	1.49
269.174	1.37
269.552	1.3
269.931	1.41
270.309	1.38
270.687	1.54
271.066	1.49
271.444	1.41
271.822	1.38
272.2	1.57
272.578	1.47
272.956	1.42
273.334	1.36
273.712	1.37
274.09	1.5
274.468	1.37
274.846	1.27
275.224	1.37
275.602	1.49
275.98	1.52
276.357	1.3
276.735	1.47
277.113	1.37
277.49	1.44
277.868	1.29
278.246	1.35
278.623	1.37
279.001	1.47
279.378	1.44
279.756	1.29
280.133	1.49
280.51	1.36
280.888	1.4
281.265	1.38
281.642	1.52
282.019	1.64
282.396	1.57
282.773	1.44
283.151	1.39
283.528	1.48
283.905	1.38
284.282	1.36
284.659	1.47
285.035	1.35
285.412	1.38
285.789	1.5
286.166	1.58
286.543	1.39
286.919	1.5
287.296	1.44
287.673	1.62
288.049	1.54
288.426	1.59
288.802	1.47
289.179	1.54
289.555	1.53
289.932	1.48
290.308	1.32
290.684	1.56
291.061	1.32
291.437	1.46
291.813	1.38
292.189	1.33
292.565	1.32
292.942	1.34
293.318	1.46
293.694	1.47
294.07	1.3
294.446	1.45
294.822	1.45
295.197	1.37
295.573	1.51
295.949	1.46
296.325	1.4
296.701	1.48
297.076	1.52
297.452	1.42
297.828	1.31
298.203	1.49
298.579	1.35
298.954	1.36
299.33	1.26
299.705	1.27
300.081	1.38
300.456	1.28
300.831	1.23
301.206	1.27
301.582	1.29
301.957	1.29
302.332	1.26
302.707	1.16
303.082	1.19
303.457	1.14
303.832	1.11
304.207	1.07
304.582	1.07
304.957	1.08
305.332	1.15
305.707	1.04
306.082	1.03
306.456	1.06
306.831	1
307.206	0.97
307.58	0.93
307.955	0.9
308.33	0.91
308.704	0.89
309.079	0.87
309.453	0.89
309.828	0.87
310.202	0.83
310.576	0.81
310.951	0.81
311.325	0.82
311.699	0.77
312.073	0.77
312.447	0.76
312.821	0.78
313.196	0.76
313.57	0.72
313.944	0.73
314.317	0.69
314.691	0.71
315.065	0.7
315.439	0.71
315.813	0.71
316.187	0.66
316.56	0.7
316.934	0.67
317.308	0.66
317.681	0.64
318.055	0.67
318.428	0.64
318.802	0.66
319.175	0.64
319.549	0.61
319.922	0.63
320.295	0.62
320.669	0.65
321.042	0.63
321.415	0.62
321.788	0.62
322.162	0.59
322.535	0.62
322.908	0.59
323.281	0.59
323.654	0.58
324.027	0.59
324.4	0.6
324.773	0.6
325.145	0.6
325.518	0.59
325.891	0.61
326.264	0.61
326.636	0.58
327.009	0.6
327.382	0.61
327.754	0.6
328.127	0.59
328.499	0.59
328.872	0.62
329.244	0.64
329.616	0.6
329.989	0.65
330.361	0.64
330.733	0.64
331.106	0.63
331.478	0.66
331.85	0.67
332.222	0.66
332.594	0.67
332.966	0.68
333.338	0.7
333.71	0.69
334.082	0.69
334.454	0.71
334.826	0.7
335.197	0.73
335.569	0.73
335.941	0.72
336.312	0.75
336.684	0.76
337.056	0.76
337.427	0.79
337.799	0.83
338.17	0.82
338.542	0.81
338.913	0.83
339.284	0.82
339.656	0.84
340.027	0.87
340.398	0.88
340.769	0.87
341.141	0.91
341.512	0.85
341.883	0.87
342.254	0.9
342.625	0.92
342.996	0.9
343.367	0.92
343.738	0.92
344.108	0.92
344.479	1.01
344.85	0.99
345.221	1
345.591	0.97
345.962	0.98
346.333	0.99
346.703	0.98
347.074	1.04
347.444	1.04
347.815	1.12
348.185	1.06
348.556	1.13
348.926	1.12
349.296	1.08
349.666	1.17
350.037	1.13
350.407	1.13
350.777	1.12
351.147	1.09
351.517	1.3
351.887	1.28
352.257	1.21
352.627	1.26
352.997	1.16
353.367	1.34
353.737	1.26
354.106	1.32
354.476	1.25
354.846	1.38
355.216	1.45
355.585	1.54
355.955	1.4
356.324	1.47
356.694	1.41
357.063	1.37
357.433	1.33
357.802	1.46
358.171	1.53
358.541	1.51
358.91	1.49
359.279	1.45
359.648	1.45
360.017	1.64
360.387	1.46
360.756	1.47
361.125	1.66
361.494	1.67
361.863	1.51
362.231	1.57
362.6	1.43
362.969	1.54
363.338	1.58
363.707	1.8
364.075	1.61
364.444	1.4
364.813	1.46
365.181	1.51
365.55	1.51
365.918	1.62
366.287	1.59
366.655	1.61
367.024	1.6
367.392	1.68
367.76	1.61
368.128	1.63
368.497	1.52
368.865	1.57
369.233	1.62
369.601	1.6
369.969	1.47
370.337	1.58
370.705	1.56
371.073	1.53
371.441	1.48
371.809	1.47
372.177	1.47
372.544	1.5
372.912	1.5
373.28	1.48
373.647	1.55
374.015	1.77
374.383	1.9
374.75	1.89
375.118	1.52
375.485	1.62
375.853	1.7
376.22	1.52
376.587	1.52
376.955	1.54
377.322	1.61
377.689	1.53
378.056	1.47
378.423	1.5
378.79	1.58
379.157	1.63
379.524	1.57
379.891	1.6
380.258	1.64
380.625	1.53
380.992	1.58
381.359	1.51
381.726	1.76
382.092	1.6
382.459	1.52
382.826	1.55
383.192	1.61
383.559	1.58
383.925	1.58
384.292	1.51
384.658	1.53
385.025	1.61
385.391	2.21
385.757	1.64
386.123	1.6
386.49	1.49
386.856	1.51
387.222	1.53
387.588	1.5
387.954	1.69
388.32	1.7
388.686	1.7
389.052	1.47
389.418	1.68
389.784	1.54
390.15	1.62
390.515	1.32
390.881	1.65
391.247	1.45
391.613	1.77
391.978	1.47
392.344	1.68
392.709	1.71
393.075	1.56
393.44	1.54
393.806	1.53
394.171	1.53
394.536	1.55
394.902	1.53
395.267	1.54
395.632	1.59
395.997	1.7
396.362	1.47
396.727	1.52
397.092	1.45
397.457	1.62
397.822	1.48
398.187	1.57
398.552	1.55
398.917	1.69
399.282	1.5
399.646	1.47
400.011	1.69
400.376	1.45
400.74	1.41
401.105	1.69
401.47	1.74
401.834	1.63
402.199	1.53
402.563	1.55
402.927	1.51
403.292	1.74
403.656	1.65
404.02	1.55
404.384	1.71
404.749	1.58
405.113	1.57
405.477	1.69
405.841	1.62
406.205	1.51
406.569	1.54
406.933	1.52
407.296	1.6
407.66	1.6
408.024	1.55
408.388	1.65
408.752	1.6
409.115	1.76
409.479	1.63
409.842	1.42
410.206	1.48
410.569	1.49
410.933	1.63
411.296	1.45
411.66	1.59
412.023	1.57
412.386	1.57
412.749	1.4
413.113	1.56
413.476	1.52
413.839	1.62
414.202	1.47
414.565	1.45
414.928	1.4
415.291	1.41
415.654	1.56
416.017	1.47
416.38	1.54
416.742	1.49
417.105	1.45
417.468	1.46
417.83	1.47
418.193	1.61
418.556	1.44
418.918	1.42
419.281	1.46
419.643	1.63
420.005	1.57
420.368	1.43
420.73	1.48
421.092	1.65
421.455	1.53
421.817	1.54
422.179	1.52
422.541	1.6
422.903	1.66
423.265	1.64
423.627	1.6
423.989	1.56
424.351	1.51
424.713	1.57
425.075	1.45
425.436	1.5
425.798	1.53
426.16	1.53
426.521	1.65
426.883	1.62
427.245	1.56
427.606	1.48
427.967	1.46
428.329	1.45
428.69	1.68
429.052	1.35
429.413	1.62
429.774	1.68
430.135	1.52
430.497	1.52
430.858	1.66
431.219	1.48
431.58	1.46
431.941	1.59
432.302	1.46
432.663	1.57
433.024	1.68
433.384	1.54
433.745	1.48
434.106	1.57
434.467	1.57
434.827	1.58
435.188	1.6
435.548	1.79
435.909	1.55
436.269	1.64
436.63	1.58
436.99	1.52
437.351	1.48
437.711	1.57
438.071	1.46
438.431	1.59
438.792	1.56
439.152	1.53
439.512	1.5
439.872	1.48
440.232	1.52
440.592	1.51
440.952	1.55
441.312	1.45
441.671	1.56
442.031	1.53
442.391	1.48
442.751	1.55
443.11	1.58
443.47	1.43
443.83	1.51
444.189	1.42
444.549	1.42
444.908	1.36
445.267	1.45
445.627	1.42
445.986	1.43
446.345	1.36
446.705	1.44
447.064	1.48
447.423	1.36
447.782	1.4
448.141	1.34
448.5	1.34
448.859	1.34
449.218	1.37
449.577	1.43
449.936	1.36
450.295	1.37
450.653	1.41
451.012	1.35
451.371	1.35
451.729	1.37
452.088	1.39
452.447	1.35
452.805	1.36
453.163	1.38
453.522	1.31
453.88	1.29
454.239	1.31
454.597	1.26
454.955	1.24
455.313	1.25
455.671	1.23
456.029	1.24
456.388	1.2
456.746	1.18
457.104	1.18
457.461	1.17
457.819	1.19
458.177	1.15
458.535	1.15
458.893	1.11
459.25	1.11
459.608	1.09
459.966	1.08
460.323	1.07
460.681	1.02
461.038	1.03
461.396	1.01
461.753	1.01
462.111	1
462.468	0.98
462.825	0.96
463.182	0.94
463.54	0.93
463.897	0.93
464.254	0.92
464.611	0.89
464.968	0.89
465.325	0.85
465.682	0.85
466.039	0.86
466.395	0.84
466.752	0.82
467.109	0.8
467.466	0.8
467.822	0.79
468.179	0.77
468.535	0.76
468.892	0.76
469.248	0.74
469.605	0.72
469.961	0.71
470.318	0.71
470.674	0.68
471.03	0.68
471.386	0.67
471.743	0.67
472.099	0.65
472.455	0.63
472.811	0.62
473.167	0.62
473.523	0.61
473.879	0.59
474.235	0.58
474.59	0.57
474.946	0.54
475.302	0.55
475.657	0.54
476.013	0.52
476.369	0.51
476.724	0.51
477.08	0.51
477.435	0.5
477.791	0.48
478.146	0.48
478.501	0.46
478.857	0.46
479.212	0.45
479.567	0.44
479.922	0.42
480.277	0.42
480.632	0.41
480.987	0.4
481.342	0.4
481.697	0.38
482.052	0.37
482.407	0.37
482.762	0.35
483.116	0.35
483.471	0.35
483.826	0.34
484.18	0.33
484.535	0.32
484.89	0.32
485.244	0.31
485.598	0.3
485.953	0.3
486.307	0.29
486.661	0.29
487.016	0.28
487.37	0.28
487.724	0.27
488.078	0.27
488.432	0.27
488.786	0.26
489.14	0.25
489.494	0.25
489.848	0.24
490.202	0.23
490.556	0.23
490.91	0.23
491.263	0.22
491.617	0.22
491.971	0.21
492.324	0.2
492.678	0.2
493.031	0.2
493.385	0.19
493.738	0.19
494.091	0.19
494.445	0.18
494.798	0.18
495.151	0.18
495.504	0.17
495.857	0.17
496.21	0.17
496.564	0.16
496.916	0.16
497.269	0.14
497.622	0.16
497.975	0.14
498.328	0.14
498.681	0.15
499.033	0.14
499.386	0.13
499.739	0.13
500.091	0.13
500.444	0.14
500.796	0.13
501.149	0.12
501.501	0.12
501.854	0.12
502.206	0.12
502.558	0.12
502.91	0.12
503.263	0.11
503.615	0.11
503.967	0.11
504.319	0.11
504.671	0.1
505.023	0.1
505.375	0.1
505.726	0.1
506.078	0.1
506.43	0.09
506.782	0.09
507.133	0.1
507.485	0.1
507.837	0.1
508.188	0.09
508.54	0.09
508.891	0.1
509.243	0.08
509.594	0.09
509.945	0.08
510.296	0.08
510.648	0.09
510.999	0.08
511.35	0.08
511.701	0.08
512.052	0.08
512.403	0.08
512.754	0.08
513.105	0.07
513.456	0.07
513.807	0.07
514.157	0.07
514.508	0.07
514.859	0.07
515.209	0.07
515.56	0.08
515.91	0.07
516.261	0.08
516.611	0.07
516.962	0.07
517.312	0.07
517.662	0.07
518.013	0.07
518.363	0.07
518.713	0.07
519.063	0.06
519.413	0.07
519.763	0.06
520.113	0.06
520.463	0.07
520.813	0.07
521.163	0.07
521.512	0.07
521.862	0.07
522.212	0.07
522.562	0.06
522.911	0.06
523.261	0.06
523.61	0.06
523.96	0.06
524.309	0.06
524.658	0.06
525.008	0.06
525.357	0.06
525.706	0.06
526.056	0.06
526.405	0.06
526.754	0.06
527.103	0.05
527.452	0.05
527.801	0.06
528.15	0.07
528.499	0.06
528.847	0.06
529.196	0.06
529.545	0.06
529.893	0.07
530.242	0.06
530.591	0.06
530.939	0.07
531.288	0.06
531.636	0.07
531.985	0.06
532.333	0.06
532.681	0.06
533.029	0.06
533.378	0.06
533.726	0.07
534.074	0.06
534.422	0.06
534.77	0.06
535.118	0.06
535.466	0.06
535.814	0.06
536.162	0.06
536.509	0.06
536.857	0.06
537.205	0.06
537.552	0.06
537.9	0.06
538.248	0.06
538.595	0.06
538.943	0.06
539.29	0.05
539.637	0.06
539.985	0.06
540.332	0.05
540.679	0.06
541.026	0.05
541.373	0.06
541.721	0.05
542.068	0.05
542.415	0.05
542.762	0.05
543.108	0.04
543.455	0.04
543.802	0.05
544.149	0.05
544.496	0.04
544.842	0.04
545.189	0.04
545.535	0.04
545.882	0.04
546.228	0.04
546.575	0.04
546.921	0.04
547.267	0.05
547.614	0.05
547.96	0.05
548.306	0.04
548.652	0.04
548.998	0.05
549.344	0.04
549.69	0.04
550.036	0.04
550.382	0.04
550.728	0.04
551.074	0.05
551.42	0.04
551.765	0.05
552.111	0.05
552.457	0.06
552.802	0.05
553.148	0.05
553.493	0.04
553.839	0.04
554.184	0.05
554.529	0.04
554.875	0.04
555.22	0.04
555.565	0.04
555.91	0.04
556.255	0.05
556.6	0.06
556.945	0.04
557.29	0.04
557.635	0.05
557.98	0.05
558.325	0.04
558.67	0.05
559.014	0.05
559.359	0.05
559.704	0.05
560.048	0.04
560.393	0.05
560.737	0.04
561.082	0.04
561.426	0.04
561.77	0.05
562.115	0.04
562.459	0.04
562.803	0.04
563.147	0.05
563.491	0.05
563.835	0.04
564.179	0.05
564.523	0.05
564.867	0.04
565.211	0.04
565.555	0.04
565.899	0.05
566.242	0.04
566.586	0.04
566.93	0.04
567.273	0.05
567.617	0.04
567.96	0.04
568.304	0.05
568.647	0.04
568.99	0.05
569.334	0.05
569.677	0.05
570.02	0.05
570.363	0.05
570.706	0.05
571.049	0.05
571.392	0.06
571.735	0.05
572.078	0.04
572.421	0.05
572.764	0.04
573.106	0.05
573.449	0.04
573.792	0.04
574.134	0.04
574.477	0.05
574.819	0.04
575.162	0.04
575.504	0.04
575.847	0.04
576.189	0.05
576.531	0.04
576.873	0.05
577.215	0.05
577.558	0.05
577.9	0.04
578.242	0.05
578.584	0.04
578.926	0.04
579.267	0.04
579.609	0.04
579.951	0.04
580.293	0.05
580.634	0.04
580.976	0.05
581.318	0.05
581.659	0.04
582.001	0.04
582.342	0.04
582.683	0.04
583.025	0.03
583.366	0.03
583.707	0.04
584.049	0.04
584.39	0.03
584.731	0.03
585.072	0.03
585.413	0.04
585.754	0.04
586.095	0.04
586.435	0.05
586.776	0.04
587.117	0.03
587.458	0.03
587.798	0.04
588.139	0.04
588.48	0.04
588.82	0.04
589.161	0.04
589.501	0.03
589.841	0.04
590.182	0.04
590.522	0.03
590.862	0.04
591.202	0.04
591.542	0.03
591.882	0.04
592.222	0.04
592.562	0.04
592.902	0.04
593.242	0.03
593.582	0.04
593.922	0.04
594.261	0.04
594.601	0.04
594.941	0.04
595.28	0.04
595.62	0.04
595.959	0.03
596.299	0.04
596.638	0.04
596.977	0.04
597.317	0.04
597.656	0.05
597.995	0.04
598.334	0.04
598.673	0.04
599.012	0.04
599.351	0.05
599.69	0.04
600.029	0.05
600.368	0.04
600.707	0.04
601.046	0.04
601.384	0.05
601.723	0.05
602.061	0.04
602.4	0.05
602.738	0.05
603.077	0.04
603.415	0.04
603.754	0.04
604.092	0.05
604.43	0.04
604.768	0.05
605.107	0.05
605.445	0.04
605.783	0.04
606.121	0.03
606.459	0.04
606.796	0.04
607.134	0.04
607.472	0.04
607.81	0.05
608.148	0.04
608.485	0.04
608.823	0.04
609.16	0.04
609.498	0.04
609.835	0.04
610.173	0.03
610.51	0.04
610.847	0.04
611.185	0.04
611.522	0.05
611.859	0.05
612.196	0.05
612.533	0.05
612.87	0.05
613.207	0.05
613.544	0.05
613.881	0.05
614.217	0.05
614.554	0.05
614.891	0.05
615.228	0.05
615.564	0.05
615.901	0.05
616.237	0.05
616.574	0.06
616.91	0.06
617.246	0.05
617.583	0.05
617.919	0.05
618.255	0.06
618.591	0.06
618.927	0.06
619.263	0.05
619.599	0.06
619.935	0.06
620.271	0.06
620.607	0.05
620.943	0.05
621.279	0.06
621.614	0.05
621.95	0.05
622.286	0.06
622.621	0.05
622.957	0.05
623.292	0.05
623.627	0.05
623.963	0.05
624.298	0.05
624.633	0.04
624.968	0.04
625.304	0.04
625.639	0.04
625.974	0.05
626.309	0.04
626.644	0.05
626.979	0.05
627.313	0.05
627.648	0.04
627.983	0.05
628.318	0.04
628.652	0.04
628.987	0.04
629.321	0.05
629.656	0.04
629.99	0.04
630.325	0.04
630.659	0.04
630.993	0.03
631.327	0.04
631.662	0.03
631.996	0.03
632.33	0.04
632.664	0.04
632.998	0.04
633.332	0.04
633.666	0.04
633.999	0.04
634.333	0.03
634.667	0.04
635.001	0.04
635.334	0.04
635.668	0.04
636.001	0.04
636.335	0.04
636.668	0.04
637.001	0.03
637.335	0.04
637.668	0.04
638.001	0.04
638.334	0.04
638.668	0.04
639.001	0.04
639.334	0.04
639.667	0.04
639.999	0.03
640.332	0.03
640.665	0.03
640.998	0.04
641.331	0.04
641.663	0.04
641.996	0.04
642.328	0.04
642.661	0.04
642.993	0.04
643.326	0.04
643.658	0.04
643.99	0.03
644.323	0.03
644.655	0.04
644.987	0.04
645.319	0.04
645.651	0.04
645.983	0.04
646.315	0.04
646.647	0.04
646.979	0.05
647.31	0.04
647.642	0.04
647.974	0.04
648.305	0.05
648.637	0.04
648.968	0.04
649.3	0.04
649.631	0.05
649.963	0.03
650.294	0.05
650.625	0.04
650.957	0.05
651.288	0.04
651.619	0.05
651.95	0.05
652.281	0.05
652.612	0.04
652.943	0.05
653.274	0.05
653.604	0.04
653.935	0.04
654.266	0.05
654.596	0.04
654.927	0.05
655.258	0.05
655.588	0.05
655.918	0.05
656.249	0.02
656.579	0.04
656.909	0.04
657.24	0.04
657.57	0.04
657.9	0.04
658.23	0.04
658.56	0.05
658.89	0.05
659.22	0.04
659.55	0.05
659.88	0.04
660.209	0.05
660.539	0.06
660.869	0.05
661.198	0.05
661.528	0.04
661.857	0.05
662.187	0.05
662.516	0.05
662.846	0.04
663.175	0.04
663.504	0.04
663.833	0.05
664.163	0.05
664.492	0.04
664.821	0.04
665.15	0.05
665.479	0.05
665.807	0.05
666.136	0.05
666.465	0.05
666.794	0.05
667.122	0.04
667.451	0.05
667.78	0.05
668.108	0.05
668.437	0.05
668.765	0.05
669.093	0.05
669.422	0.05
669.75	0.05
670.078	0.05
670.406	0.05
670.734	0.05
671.062	0.05
671.39	0.04
671.718	0.05
672.046	0.05
672.374	0.04
672.702	0.04
673.029	0.04
673.357	0.05
673.685	0.05
674.012	0.05
674.34	0.04
674.667	0.05
674.995	0.05
675.322	0.05
675.649	0.04
675.977	0.05
676.304	0.04
676.631	0.05
676.958	0.05
677.285	0.04
677.612	0.04
677.939	0.05
678.266	0.05
678.593	0.05
678.92	0.05
679.246	0.05
679.573	0.04
679.9	0.04
680.226	0.05
680.553	0.04
680.879	0.05
681.206	0.05
681.532	0.04
681.858	0.05
682.184	0.05
682.511	0.04
682.837	0.04
683.163	0.05
683.489	0.05
683.815	0.04
684.141	0.05
684.467	0.05
684.793	0.04
685.118	0.04
685.444	0.04
685.77	0.04
686.095	0.04
686.421	0.04
686.746	0.04
687.072	0.05
687.397	0.04
687.723	0.05
688.048	0.05
688.373	0.04
688.698	0.05
689.023	0.04
689.349	0.05
689.674	0.05
689.999	0.05
690.323	0.04
690.648	0.04
690.973	0.04
691.298	0.04
691.623	0.04
691.947	0.05
692.272	0.05
692.596	0.05
692.921	0.05
693.245	0.04
693.57	0.05
693.894	0.05
694.218	0.05
694.543	0.05
694.867	0.05
695.191	0.04
695.515	0.05
695.839	0.04
696.163	0.05
696.487	0.05
696.811	0.04
697.135	0.05
697.458	0.05
697.782	0.04
698.106	0.04
698.429	0.05
698.753	0.05
699.076	0.05
699.4	0.04
699.723	0.05
700.046	0.04
700.37	0.05
700.693	0.05
701.016	0.05
701.339	0.05
701.662	0.05
701.985	0.05
702.308	0.04
702.631	0.06
702.954	0.05
703.277	0.05
703.599	0.05
703.922	0.04
704.245	0.05
704.567	0.04
704.89	0.04
705.212	0.04
705.535	0.04
705.857	0.04
706.179	0.04
706.502	0.04
706.824	0.03
707.146	0.04
707.468	0.05
707.79	0.04
708.112	0.05
708.434	0.05
708.756	0.04
709.078	0.04
709.399	0.04
709.721	0.04
710.043	0.05
710.364	0.04
710.686	0.05
711.007	0.05
711.329	0.05
711.65	0.05
711.972	0.04
712.293	0.05
712.614	0.05
712.935	0.05
713.256	0.05
713.577	0.06
713.898	0.05
714.219	0.05
714.54	0.05
714.861	0.04
715.182	0.05
715.503	0.04
715.823	0.04
716.144	0.04
716.464	0.04
716.785	0.04
717.105	0.04
717.426	0.04
717.746	0.04
718.066	0.04
718.387	0.04
718.707	0.03
719.027	0.04
719.347	0.03
719.667	0.04
719.987	0.03
720.307	0.03
720.627	0.04
720.947	0.04
721.266	0.04
721.586	0.03
721.906	0.04
722.225	0.03
722.545	0.04
722.864	0.04
723.184	0.04
723.503	0.04
723.823	0.04
724.142	0.03
724.461	0.04
724.78	0.04
725.099	0.04
725.418	0.04
725.737	0.03
726.056	0.03
726.375	0.04
726.694	0.04
727.013	0.04
727.331	0.03
727.65	0.04
727.969	0.04
728.287	0.04
728.606	0.04
728.924	0.04
729.242	0.03
729.561	0.05
729.879	0.04
730.197	0.04
730.515	0.04
730.834	0.03
731.152	0.04
731.47	0.04
731.788	0.04
732.105	0.04
732.423	0.04
732.741	0.04
733.059	0.04
733.376	0.05
733.694	0.05
734.012	0.03
734.329	0.05
734.647	0.04
734.964	0.04
735.281	0.05
735.599	0.04
735.916	0.05
736.233	0.04
736.55	0.05
736.867	0.05
737.184	0.05
737.501	0.05
737.818	0.05
738.135	0.05
738.452	0.04
738.768	0.05
739.085	0.04
739.402	0.03
739.718	0.04
740.035	0.03
740.351	0.04
740.668	0.05
740.984	0.04
741.3	0.04
741.617	0.05
741.933	0.04
742.249	0.05
742.565	0.05
742.881	0.05
743.197	0.05
743.513	0.04
743.829	0.05
744.144	0.03
744.46	0.04
744.776	0.05
745.091	0.03
745.407	0.04
745.722	0.04
746.038	0.03
746.353	0.03
746.669	0.04
746.984	0.03
747.299	0.03
747.614	0.03
747.93	0.04
748.245	0.03
748.56	0.03
748.875	0.03
749.189	0.04
749.504	0.03
749.819	0.04
750.134	0.04
750.448	0.04
750.763	0.03
751.078	0.03
751.392	0.04
751.707	0.04
752.021	0.04
752.335	0.05
752.65	0.04
752.964	0.04
753.278	0.05
753.592	0.04
753.906	0.04
754.22	0.05
754.534	0.05
754.848	0.04
755.162	0.04
755.476	0.04
755.789	0.05
756.103	0.04
756.417	0.05
756.73	0.05
757.044	0.05
757.357	0.04
757.671	0.05
757.984	0.04
758.297	0.05
758.61	0.05
758.924	0.05
759.237	0.05
759.55	0.05
759.863	0.04
760.176	0.04
760.488	0.04
760.801	0.04
761.114	0.04
761.427	0.04
761.739	0.04
762.052	0.04
762.365	0.04
762.677	0.04
762.99	0.04
763.302	0.04
763.614	0.04
763.926	0.04
764.239	0.04
764.551	0.04
764.863	0.04
765.175	0.05
765.487	0.04
765.799	0.04
766.111	0.04
766.423	0.04
766.734	0.04
767.046	0.04
767.358	0.04
767.669	0.04
767.981	0.04
768.292	0.03
768.604	0.04
768.915	0.04
769.226	0.04
769.537	0.03
769.849	0.04
770.16	0.04
770.471	0.03
770.782	0.03
771.093	0.04
771.404	0.03
771.715	0.03
772.025	0.04
772.336	0.03
772.647	0.03
772.957	0.05
773.268	0.04
773.578	0.04
773.889	0.05
774.199	0.05
774.51	0.04
774.82	0.04
775.13	0.04
775.44	0.04
775.75	0.05
776.06	0.05
776.37	0.04
776.68	0.05
776.99	0.05
777.3	0.04
777.61	0.05
777.92	0.04
778.229	0.04
778.539	0.04
778.848	0.04
779.158	0.05
779.467	0.04
779.777	0.04
780.086	0.05
780.395	0.03
780.704	0.04
781.013	0.03
781.323	0.03
781.632	0.04
781.941	0.04
782.249	0.04
782.558	0.02
782.867	0.04
783.176	0.02
783.485	0.03
783.793	0.03
784.102	0.03
784.41	0.03
784.719	0.03
785.027	0.03
785.335	0.03
785.644	0.04
785.952	0.04
786.26	0.04
786.568	0.03
786.876	0.03
787.184	0.04
787.492	0.04
787.8	0.04
788.108	0.03
788.416	0.04
788.723	0.04
789.031	0.03
789.338	0.04
789.646	0.03
789.953	0.04
790.261	0.04
790.568	0.04
790.876	0.04
791.183	0.04
791.49	0.04
791.797	0.04
792.104	0.04
792.411	0.04
792.718	0.04
793.025	0.04
793.332	0.04
793.639	0.05
793.945	0.06
794.252	0.05
794.559	0.05
794.865	0.04
795.172	0.05
795.478	0.05
795.784	0.05
796.091	0.04
796.397	0.05
796.703	0.05
797.009	0.05
797.315	0.06
797.622	0.05
797.927	0.04
798.233	0.05
798.539	0.05
798.845	0.05
799.151	0.06
799.456	0.06
799.762	0.04
800.068	0.05
800.373	0.06
800.679	0.05
800.984	0.06
801.289	0.05
801.595	0.05
801.9	0.05
802.205	0.05
802.51	0.05
802.815	0.06
803.12	0.05
803.425	0.05
803.73	0.04
804.035	0.05
804.339	0.04
804.644	0.04
804.949	0.04
805.253	0.05
805.558	0.04
805.862	0.04
806.167	0.04
806.471	0.04
806.775	0.04
807.08	0.04
807.384	0.04
807.688	0.05
807.992	0.05
808.296	0.04
808.6	0.04
808.904	0.05
809.207	0.04
809.511	0.05
809.815	0.05
810.119	0.05
810.422	0.05
810.726	0.06
811.029	0.06
811.332	0.06
811.636	0.06
811.939	0.05
812.242	0.05
812.546	0.06
812.849	0.05
813.152	0.06
813.455	0.06
813.758	0.06
814.06	0.06
814.363	0.06
814.666	0.07
814.969	0.06
815.271	0.07
815.574	0.06
815.877	0.06
816.179	0.06
816.481	0.06
816.784	0.05
817.086	0.05
817.388	0.04
817.69	0.05
817.993	0.04
818.295	0.04
818.597	0.04
818.899	0.04
819.2	0.04
819.502	0.03
819.804	0.04
820.106	0.04
820.407	0.03
820.709	0.04
821.01	0.03
821.312	0.04
821.613	0.03
821.915	0.04
822.216	0.03
822.517	0.03
822.818	0.03
823.119	0.03
823.42	0.04
823.721	0.03
824.022	0.02
824.323	0.03
824.624	0.03
824.925	0.03
825.226	0.04
825.526	0.03
825.827	0.04
826.127	0.04
826.428	0.04
826.728	0.03
827.028	0.03
827.329	0.03
827.629	0.02
827.929	0.03
828.229	0.03
828.529	0.03
828.829	0.03
829.129	0.03
829.429	0.04
829.729	0.03
830.029	0.02
830.328	0.04
830.628	0.02
830.927	0.02
831.227	0.03
831.526	0.02
831.826	0.03
832.125	0.03
832.424	0.02
832.724	0.03
833.023	0.02
833.322	0.03
833.621	0.03
833.92	0.02
834.219	0.02
834.518	0.03
834.816	0.01
835.115	0.02
835.414	0.01
835.712	0.02
836.011	0.01
836.309	0.01
836.608	0.01
836.906	0
837.205	0
837.503	0.01
837.801	0.01
838.099	-0
838.397	-0.01
838.695	-0
838.993	-0
839.291	-0.01
839.589	-0.01
839.887	-0.02
840.184	-0.02
840.482	-0.02
840.78	-0.01
841.077	-0
841.375	-0.02
841.672	-0.01
841.969	-0.02
842.267	-0.01
842.564	-0.02
842.861	-0.01
843.158	-0.02
843.455	-0.03
843.752	-0.03
844.049	-0.02
844.346	-0.02
844.643	-0.03
844.94	-0.03
845.236	-0.02
845.533	-0.03
845.83	-0.03
846.126	-0.03
846.423	-0.03
846.719	-0.04
847.015	-0.03
847.312	-0.04
847.608	-0.04
847.904	-0.04
848.2	-0.04
848.496	-0.04
848.792	-0.03
849.088	-0.03
849.384	-0.04
849.68	-0.05
849.975	-0.04
850.271	-0.04
850.567	-0.05
850.862	-0.05
851.158	-0.05
851.453	-0.05
851.748	-0.07
852.044	-0.05
852.339	-0.04
852.634	-0.07
852.929	-0.05
853.224	-0.05
853.519	-0.06
853.814	-0.06
854.109	-0.06
854.404	-0.07
854.699	-0.06
854.994	-0.05
855.288	-0.06
855.583	-0.05
855.877	-0.07
856.172	-0.06
856.466	-0.07
856.76	-0.08
857.055	-0.07
857.349	-0.08
857.643	-0.09
857.937	-0.09
858.231	-0.09
858.525	-0.09
858.819	-0.09
859.113	-0.11
859.407	-0.11
859.701	-0.12
859.994	-0.11
860.288	-0.09
860.581	-0.1
860.875	-0.1
861.168	-0.12
861.462	-0.11
861.755	-0.1
862.048	-0.12
862.341	-0.11
862.634	-0.11
862.928	-0.11
863.221	-0.12
863.513	-0.12
863.806	-0.12
864.099	-0.12
864.392	-0.12
864.685	-0.11
864.977	-0.12
865.27	-0.12
865.562	-0.12
865.855	-0.12
866.147	-0.12
866.44	-0.11
866.732	-0.11
867.024	-0.12
867.316	-0.13
867.608	-0.12
867.9	-0.13
868.192	-0.13
868.484	-0.12
868.776	-0.13
869.068	-0.13
869.359	-0.13
869.651	-0.13
869.943	-0.15
870.234	-0.13
870.526	-0.14
870.817	-0.14
871.108	-0.13
871.4	-0.13
871.691	-0.15
871.982	-0.15
872.273	-0.17
872.564	-0.15
872.855	-0.16
873.146	-0.16
873.437	-0.16
873.728	-0.17
874.019	-0.16
874.309	-0.17
874.6	-0.16
874.89	-0.17
875.181	-0.17
875.471	-0.17
875.762	-0.17
876.052	-0.16
876.342	-0.15
876.632	-0.16
876.922	-0.17
877.213	-0.17
877.503	-0.18
877.792	-0.17
878.082	-0.17
878.372	-0.16
878.662	-0.19
878.952	-0.17
879.241	-0.17
879.531	-0.17
879.82	-0.16
880.11	-0.15
880.399	-0.16
880.688	-0.15
880.978	-0.15
881.267	-0.15
