Data from 12-12-AQDScycling_Absorbance__510__00510.txt Node

Date: Tue Dec 12 13:04:14 EST 2023
User: kyuminlee
Spectrometer: FLMS00943
Trigger mode: 0
Integration Time (sec): 1.000000E-1
Scans to average: 1
Electric dark correction enabled: true
Nonlinearity correction enabled: false
Boxcar width: 0
XAxis mode: Wavelengths
Number of Pixels in Spectrum: 2048
>>>>>Begin Spectral Data<<<<<
179.651	-0
180.037	-0
180.424	-0
180.81	-0
181.197	0.14
181.583	-0.44
181.97	-0
182.356	-0
182.743	-1.07
183.129	-0
183.515	0.38
183.901	-2.2
184.288	1.36
184.674	0.15
185.06	-0.58
185.446	0.13
185.832	-0
186.218	-0
186.604	0.2
186.99	-0.34
187.376	-0
187.762	-0.06
188.148	1.08
188.534	-0.09
188.92	0.05
189.305	0.07
189.691	0.15
190.077	0.14
190.463	0.07
190.848	0.04
191.234	0.09
191.619	0.19
192.005	0.04
192.391	0.09
192.776	0.2
193.161	0.31
193.547	0.1
193.932	0.12
194.318	0.08
194.703	0.32
195.088	0.22
195.473	0.15
195.859	0.29
196.244	0.19
196.629	0.34
197.014	-0.05
197.399	0.16
197.784	0.17
198.169	0.12
198.554	0.27
198.939	0.12
199.324	0.26
199.709	0.12
200.094	0.05
200.478	0.13
200.863	0.11
201.248	0.15
201.633	0.21
202.017	0.2
202.402	0.19
202.787	0.19
203.171	0.1
203.556	0.24
203.94	0.21
204.325	0.22
204.709	0.15
205.093	-0.03
205.478	0.08
205.862	0.14
206.246	0.22
206.631	0.18
207.015	0.12
207.399	0.22
207.783	0.2
208.167	0.35
208.551	0.2
208.935	0.16
209.319	0.24
209.703	0.14
210.087	0.29
210.471	0.11
210.855	0.12
211.239	0.35
211.623	0.3
212.007	0.24
212.39	0.24
212.774	0.35
213.158	0.1
213.541	0.05
213.925	0.17
214.309	0.3
214.692	0.27
215.076	0.21
215.459	0.17
215.842	0.15
216.226	0.27
216.609	0.28
216.993	0.24
217.376	1.01
217.759	0.28
218.142	0.3
218.525	0.87
218.909	0.33
219.292	0.32
219.675	0.4
220.058	0.31
220.441	0.51
220.824	0.46
221.207	0.53
221.59	0.48
221.973	0.48
222.355	0.55
222.738	0.58
223.121	0.53
223.504	0.57
223.886	0.68
224.269	0.75
224.652	0.63
225.034	0.67
225.417	0.81
225.799	0.71
226.182	0.95
226.564	0.78
226.947	0.73
227.329	0.88
227.711	1.15
228.094	1.03
228.476	1.06
228.858	0.89
229.24	0.79
229.623	0.92
230.005	0.91
230.387	0.83
230.769	0.89
231.151	0.94
231.533	0.86
231.915	0.93
232.297	0.93
232.679	0.99
233.061	1.02
233.442	1.13
233.824	1.14
234.206	1.11
234.588	1.11
234.969	1.03
235.351	1.02
235.733	1.07
236.114	1.21
236.496	0.99
236.877	1.09
237.259	1.12
237.64	1.13
238.022	1.02
238.403	1.06
238.784	0.96
239.165	0.94
239.547	1.07
239.928	1.1
240.309	1.05
240.69	1.14
241.071	1.11
241.452	1.09
241.834	0.96
242.215	1.03
242.595	1.11
242.976	1.13
243.357	1.22
243.738	1.08
244.119	1.49
244.5	1.14
244.881	1.2
245.261	1.19
245.642	1.2
246.023	1.17
246.403	1.1
246.784	1.35
247.164	1.25
247.545	1.45
247.925	1.31
248.306	1.33
248.686	1.46
249.067	1.29
249.447	1.29
249.827	1.58
250.207	1.51
250.588	1.29
250.968	1.53
251.348	1.29
251.728	1.36
252.108	1.28
252.488	1.36
252.868	1.35
253.248	1.36
253.628	1.42
254.008	1.51
254.388	1.26
254.768	1.32
255.147	1.53
255.527	1.35
255.907	1.35
256.287	1.39
256.666	1.46
257.046	1.51
257.425	1.97
257.805	1.38
258.184	1.32
258.564	1.43
258.943	1.47
259.323	1.46
259.702	1.62
260.081	1.5
260.461	1.49
260.84	1.39
261.219	1.67
261.598	1.45
261.977	1.39
262.356	1.51
262.736	1.67
263.115	1.68
263.494	1.35
263.873	1.52
264.251	1.54
264.63	1.51
265.009	1.61
265.388	1.42
265.767	1.34
266.145	1.41
266.524	1.44
266.903	1.46
267.281	1.33
267.66	1.41
268.039	1.55
268.417	1.42
268.796	1.45
269.174	1.44
269.552	1.36
269.931	1.44
270.309	1.4
270.687	1.67
271.066	1.64
271.444	1.48
271.822	1.63
272.2	1.53
272.578	1.47
272.956	1.46
273.334	1.44
273.712	1.36
274.09	1.55
274.468	1.34
274.846	1.24
275.224	1.31
275.602	1.46
275.98	1.59
276.357	1.46
276.735	1.39
277.113	1.41
277.49	1.28
277.868	1.3
278.246	1.31
278.623	1.33
279.001	1.33
279.378	1.38
279.756	1.43
280.133	1.54
280.51	1.45
280.888	1.49
281.265	1.33
281.642	1.49
282.019	1.48
282.396	1.79
282.773	1.4
283.151	1.73
283.528	1.61
283.905	1.44
284.282	1.58
284.659	1.56
285.035	1.36
285.412	1.34
285.789	1.59
286.166	1.45
286.543	1.53
286.919	1.45
287.296	1.41
287.673	1.59
288.049	1.55
288.426	1.59
288.802	1.54
289.179	1.42
289.555	1.83
289.932	1.43
290.308	1.28
290.684	1.36
291.061	1.3
291.437	1.51
291.813	1.39
292.189	1.4
292.565	1.28
292.942	1.36
293.318	1.34
293.694	1.34
294.07	1.4
294.446	1.48
294.822	1.5
295.197	1.44
295.573	1.6
295.949	1.57
296.325	1.58
296.701	1.46
297.076	1.6
297.452	1.79
297.828	1.6
298.203	1.59
298.579	1.43
298.954	1.56
299.33	1.53
299.705	1.43
300.081	1.46
300.456	1.54
300.831	1.47
301.206	1.5
301.582	1.63
301.957	1.52
302.332	1.65
302.707	1.37
303.082	1.4
303.457	1.46
303.832	1.46
304.207	1.48
304.582	1.45
304.957	1.41
305.332	1.55
305.707	1.46
306.082	1.61
306.456	1.52
306.831	1.36
307.206	1.41
307.58	1.6
307.955	1.36
308.33	1.47
308.704	1.41
309.079	1.46
309.453	1.59
309.828	1.43
310.202	1.4
310.576	1.39
310.951	1.45
311.325	1.43
311.699	1.4
312.073	1.36
312.447	1.43
312.821	1.41
313.196	1.51
313.57	1.44
313.944	1.34
314.317	1.39
314.691	1.6
315.065	1.58
315.439	1.47
315.813	1.56
316.187	1.33
316.56	1.55
316.934	1.51
317.308	1.51
317.681	1.43
318.055	1.41
318.428	1.42
318.802	1.51
319.175	1.44
319.549	1.53
319.922	1.34
320.295	1.38
320.669	1.69
321.042	1.54
321.415	1.68
321.788	1.55
322.162	1.37
322.535	1.61
322.908	1.56
323.281	1.53
323.654	1.49
324.027	1.46
324.4	1.69
324.773	1.48
325.145	1.49
325.518	1.5
325.891	1.3
326.264	1.68
326.636	1.47
327.009	1.56
327.382	1.5
327.754	1.69
328.127	1.4
328.499	1.51
328.872	1.45
329.244	1.58
329.616	1.51
329.989	1.48
330.361	1.5
330.733	1.45
331.106	1.47
331.478	1.58
331.85	1.46
332.222	1.41
332.594	1.49
332.966	1.36
333.338	1.68
333.71	1.64
334.082	1.64
334.454	1.55
334.826	1.49
335.197	1.55
335.569	1.38
335.941	1.41
336.312	1.44
336.684	1.47
337.056	1.39
337.427	1.55
337.799	1.42
338.17	1.44
338.542	1.43
338.913	1.51
339.284	1.57
339.656	1.46
340.027	1.48
340.398	1.61
340.769	1.57
341.141	1.62
341.512	1.45
341.883	1.52
342.254	1.46
342.625	1.48
342.996	1.46
343.367	1.51
343.738	1.61
344.108	1.51
344.479	1.52
344.85	1.36
345.221	1.49
345.591	1.34
345.962	1.45
346.333	1.44
346.703	1.3
347.074	1.53
347.444	1.33
347.815	1.37
348.185	1.37
348.556	1.35
348.926	1.38
349.296	1.4
349.666	1.39
350.037	1.26
350.407	1.28
350.777	1.33
351.147	1.35
351.517	1.37
351.887	1.44
352.257	1.59
352.627	1.24
352.997	1.35
353.367	1.37
353.737	1.43
354.106	1.4
354.476	1.42
354.846	1.37
355.216	1.41
355.585	1.4
355.955	1.42
356.324	1.41
356.694	1.29
357.063	1.4
357.433	1.36
357.802	1.46
358.171	1.4
358.541	1.35
358.91	1.36
359.279	1.37
359.648	1.36
360.017	1.41
360.387	1.29
360.756	1.3
361.125	1.35
361.494	1.3
361.863	1.27
362.231	1.23
362.6	1.3
362.969	1.28
363.338	1.19
363.707	1.33
364.075	1.34
364.444	1.16
364.813	1.21
365.181	1.23
365.55	1.28
365.918	1.35
366.287	1.21
366.655	1.3
367.024	1.27
367.392	1.26
367.76	1.21
368.128	1.26
368.497	1.25
368.865	1.22
369.233	1.2
369.601	1.29
369.969	1.28
370.337	1.21
370.705	1.23
371.073	1.22
371.441	1.25
371.809	1.16
372.177	1.24
372.544	1.22
372.912	1.27
373.28	1.33
373.647	1.26
374.015	1.39
374.383	1.41
374.75	1.43
375.118	1.28
375.485	1.31
375.853	1.27
376.22	1.26
376.587	1.2
376.955	1.35
377.322	1.3
377.689	1.3
378.056	1.24
378.423	1.23
378.79	1.34
379.157	1.35
379.524	1.32
379.891	1.26
380.258	1.39
380.625	1.34
380.992	1.35
381.359	1.31
381.726	1.32
382.092	1.34
382.459	1.33
382.826	1.36
383.192	1.43
383.559	1.3
383.925	1.37
384.292	1.41
384.658	1.4
385.025	1.48
385.391	1.44
385.757	1.35
386.123	1.35
386.49	1.42
386.856	1.39
387.222	1.43
387.588	1.41
387.954	1.63
388.32	1.51
388.686	1.38
389.052	1.47
389.418	1.42
389.784	1.44
390.15	1.59
390.515	1.27
390.881	1.52
391.247	1.42
391.613	1.51
391.978	1.35
392.344	1.4
392.709	1.48
393.075	1.45
393.44	1.56
393.806	1.51
394.171	1.38
394.536	1.31
394.902	1.36
395.267	1.35
395.632	1.29
395.997	1.38
396.362	1.34
396.727	1.43
397.092	1.34
397.457	1.35
397.822	1.4
398.187	1.45
398.552	1.36
398.917	1.49
399.282	1.4
399.646	1.36
400.011	1.33
400.376	1.34
400.74	1.43
401.105	1.36
401.47	1.35
401.834	1.33
402.199	1.4
402.563	1.34
402.927	1.36
403.292	1.32
403.656	1.29
404.02	1.3
404.384	1.37
404.749	1.29
405.113	1.37
405.477	1.29
405.841	1.31
406.205	1.34
406.569	1.28
406.933	1.26
407.296	1.29
407.66	1.23
408.024	1.23
408.388	1.28
408.752	1.23
409.115	1.25
409.479	1.2
409.842	1.18
410.206	1.19
410.569	1.19
410.933	1.24
411.296	1.12
411.66	1.23
412.023	1.13
412.386	1.15
412.749	1.14
413.113	1.17
413.476	1.15
413.839	1.15
414.202	1.17
414.565	1.07
414.928	1.08
415.291	1.11
415.654	1.05
416.017	1.09
416.38	1.07
416.742	1.08
417.105	1.05
417.468	1.08
417.83	1.09
418.193	1.15
418.556	1.06
418.918	1.07
419.281	1.11
419.643	1.08
420.005	1.05
420.368	1.06
420.73	1.05
421.092	1.05
421.455	1.07
421.817	0.98
422.179	1.02
422.541	1.08
422.903	1.06
423.265	1.06
423.627	1.11
423.989	1.03
424.351	1.05
424.713	1.05
425.075	0.98
425.436	1.02
425.798	1.04
426.16	1
426.521	1.01
426.883	1.03
427.245	1.02
427.606	1.02
427.967	0.97
428.329	0.99
428.69	1.04
429.052	0.98
429.413	1
429.774	0.96
430.135	0.98
430.497	0.97
430.858	0.95
431.219	0.95
431.58	0.94
431.941	0.99
432.302	0.97
432.663	0.94
433.024	0.96
433.384	0.98
433.745	0.92
434.106	0.96
434.467	0.95
434.827	0.93
435.188	0.92
435.548	0.95
435.909	0.93
436.269	0.94
436.63	0.9
436.99	0.92
437.351	0.89
437.711	0.9
438.071	0.89
438.431	0.92
438.792	0.9
439.152	0.9
439.512	0.9
439.872	0.87
440.232	0.89
440.592	0.87
440.952	0.9
441.312	0.85
441.671	0.86
442.031	0.85
442.391	0.85
442.751	0.87
443.11	0.84
443.47	0.84
443.83	0.84
444.189	0.83
444.549	0.87
444.908	0.82
445.267	0.83
445.627	0.82
445.986	0.81
446.345	0.8
446.705	0.78
447.064	0.8
447.423	0.78
447.782	0.78
448.141	0.79
448.5	0.76
448.859	0.75
449.218	0.77
449.577	0.76
449.936	0.77
450.295	0.74
450.653	0.76
451.012	0.75
451.371	0.75
451.729	0.75
452.088	0.76
452.447	0.74
452.805	0.72
453.163	0.72
453.522	0.71
453.88	0.72
454.239	0.7
454.597	0.69
454.955	0.68
455.313	0.69
455.671	0.66
456.029	0.66
456.388	0.66
456.746	0.66
457.104	0.66
457.461	0.64
457.819	0.63
458.177	0.63
458.535	0.63
458.893	0.63
459.25	0.6
459.608	0.61
459.966	0.59
460.323	0.6
460.681	0.58
461.038	0.58
461.396	0.58
461.753	0.55
462.111	0.56
462.468	0.53
462.825	0.55
463.182	0.54
463.54	0.53
463.897	0.53
464.254	0.53
464.611	0.53
464.968	0.52
465.325	0.52
465.682	0.51
466.039	0.5
466.395	0.49
466.752	0.49
467.109	0.48
467.466	0.48
467.822	0.48
468.179	0.47
468.535	0.46
468.892	0.46
469.248	0.45
469.605	0.44
469.961	0.44
470.318	0.44
470.674	0.43
471.03	0.42
471.386	0.43
471.743	0.41
472.099	0.41
472.455	0.41
472.811	0.4
473.167	0.4
473.523	0.39
473.879	0.39
474.235	0.38
474.59	0.36
474.946	0.37
475.302	0.38
475.657	0.35
476.013	0.36
476.369	0.34
476.724	0.35
477.08	0.34
477.435	0.34
477.791	0.34
478.146	0.33
478.501	0.32
478.857	0.33
479.212	0.32
479.567	0.32
479.922	0.3
480.277	0.31
480.632	0.3
480.987	0.31
481.342	0.3
481.697	0.29
482.052	0.29
482.407	0.28
482.762	0.28
483.116	0.28
483.471	0.28
483.826	0.27
484.18	0.27
484.535	0.27
484.89	0.26
485.244	0.26
485.598	0.25
485.953	0.26
486.307	0.25
486.661	0.26
487.016	0.24
487.37	0.24
487.724	0.24
488.078	0.24
488.432	0.24
488.786	0.24
489.14	0.23
489.494	0.23
489.848	0.23
490.202	0.22
490.556	0.22
490.91	0.22
491.263	0.22
491.617	0.22
491.971	0.22
492.324	0.21
492.678	0.22
493.031	0.21
493.385	0.21
493.738	0.21
494.091	0.21
494.445	0.21
494.798	0.2
495.151	0.2
495.504	0.2
495.857	0.2
496.21	0.21
496.564	0.19
496.916	0.21
497.269	0.19
497.622	0.2
497.975	0.19
498.328	0.19
498.681	0.19
499.033	0.19
499.386	0.19
499.739	0.18
500.091	0.19
500.444	0.18
500.796	0.18
501.149	0.18
501.501	0.18
501.854	0.18
502.206	0.18
502.558	0.18
502.91	0.18
503.263	0.17
503.615	0.18
503.967	0.17
504.319	0.18
504.671	0.17
505.023	0.17
505.375	0.17
505.726	0.17
506.078	0.17
506.43	0.17
506.782	0.16
507.133	0.17
507.485	0.17
507.837	0.17
508.188	0.17
508.54	0.18
508.891	0.18
509.243	0.17
509.594	0.17
509.945	0.16
510.296	0.16
510.648	0.17
510.999	0.16
511.35	0.17
511.701	0.17
512.052	0.17
512.403	0.17
512.754	0.15
513.105	0.16
513.456	0.16
513.807	0.16
514.157	0.17
514.508	0.16
514.859	0.16
515.209	0.16
515.56	0.17
515.91	0.16
516.261	0.17
516.611	0.16
516.962	0.17
517.312	0.16
517.662	0.16
518.013	0.16
518.363	0.17
518.713	0.16
519.063	0.17
519.413	0.16
519.763	0.17
520.113	0.16
520.463	0.17
520.813	0.17
521.163	0.17
521.512	0.16
521.862	0.17
522.212	0.17
522.562	0.17
522.911	0.17
523.261	0.16
523.61	0.16
523.96	0.17
524.309	0.17
524.658	0.17
525.008	0.16
525.357	0.17
525.706	0.17
526.056	0.17
526.405	0.17
526.754	0.17
527.103	0.16
527.452	0.17
527.801	0.17
528.15	0.17
528.499	0.16
528.847	0.17
529.196	0.17
529.545	0.17
529.893	0.18
530.242	0.17
530.591	0.17
530.939	0.17
531.288	0.17
531.636	0.18
531.985	0.17
532.333	0.17
532.681	0.18
533.029	0.18
533.378	0.17
533.726	0.18
534.074	0.18
534.422	0.18
534.77	0.18
535.118	0.17
535.466	0.17
535.814	0.18
536.162	0.18
536.509	0.18
536.857	0.17
537.205	0.18
537.552	0.18
537.9	0.18
538.248	0.18
538.595	0.17
538.943	0.18
539.29	0.18
539.637	0.17
539.985	0.18
540.332	0.17
540.679	0.18
541.026	0.17
541.373	0.18
541.721	0.17
542.068	0.17
542.415	0.18
542.762	0.17
543.108	0.17
543.455	0.16
543.802	0.17
544.149	0.17
544.496	0.17
544.842	0.16
545.189	0.16
545.535	0.17
545.882	0.17
546.228	0.16
546.575	0.16
546.921	0.16
547.267	0.16
547.614	0.17
547.96	0.17
548.306	0.17
548.652	0.16
548.998	0.17
549.344	0.17
549.69	0.17
550.036	0.16
550.382	0.17
550.728	0.17
551.074	0.17
551.42	0.17
551.765	0.17
552.111	0.18
552.457	0.17
552.802	0.17
553.148	0.17
553.493	0.17
553.839	0.17
554.184	0.17
554.529	0.17
554.875	0.18
555.22	0.17
555.565	0.18
555.91	0.17
556.255	0.18
556.6	0.17
556.945	0.17
557.29	0.18
557.635	0.18
557.98	0.18
558.325	0.18
558.67	0.17
559.014	0.17
559.359	0.18
559.704	0.17
560.048	0.17
560.393	0.17
560.737	0.17
561.082	0.17
561.426	0.17
561.77	0.17
562.115	0.17
562.459	0.17
562.803	0.17
563.147	0.18
563.491	0.17
563.835	0.18
564.179	0.18
564.523	0.17
564.867	0.17
565.211	0.17
565.555	0.18
565.899	0.18
566.242	0.18
566.586	0.17
566.93	0.18
567.273	0.18
567.617	0.18
567.96	0.19
568.304	0.19
568.647	0.17
568.99	0.18
569.334	0.19
569.677	0.17
570.02	0.18
570.363	0.18
570.706	0.18
571.049	0.18
571.392	0.18
571.735	0.18
572.078	0.18
572.421	0.19
572.764	0.18
573.106	0.18
573.449	0.17
573.792	0.18
574.134	0.18
574.477	0.18
574.819	0.17
575.162	0.18
575.504	0.18
575.847	0.18
576.189	0.18
576.531	0.19
576.873	0.17
577.215	0.18
577.558	0.18
577.9	0.17
578.242	0.17
578.584	0.18
578.926	0.17
579.267	0.17
579.609	0.17
579.951	0.18
580.293	0.17
580.634	0.18
580.976	0.19
581.318	0.18
581.659	0.18
582.001	0.17
582.342	0.18
582.683	0.18
583.025	0.17
583.366	0.17
583.707	0.17
584.049	0.17
584.39	0.17
584.731	0.17
585.072	0.17
585.413	0.18
585.754	0.18
586.095	0.18
586.435	0.18
586.776	0.18
587.117	0.17
587.458	0.17
587.798	0.17
588.139	0.17
588.48	0.17
588.82	0.17
589.161	0.17
589.501	0.17
589.841	0.17
590.182	0.17
590.522	0.17
590.862	0.17
591.202	0.18
591.542	0.17
591.882	0.17
592.222	0.17
592.562	0.17
592.902	0.17
593.242	0.17
593.582	0.18
593.922	0.18
594.261	0.17
594.601	0.17
594.941	0.17
595.28	0.17
595.62	0.17
595.959	0.16
596.299	0.17
596.638	0.17
596.977	0.18
597.317	0.17
597.656	0.17
597.995	0.17
598.334	0.18
598.673	0.17
599.012	0.17
599.351	0.18
599.69	0.18
600.029	0.18
600.368	0.18
600.707	0.18
601.046	0.18
601.384	0.18
601.723	0.17
602.061	0.17
602.4	0.19
602.738	0.18
603.077	0.17
603.415	0.17
603.754	0.18
604.092	0.18
604.43	0.17
604.768	0.17
605.107	0.18
605.445	0.17
605.783	0.17
606.121	0.16
606.459	0.17
606.796	0.17
607.134	0.16
607.472	0.17
607.81	0.17
608.148	0.17
608.485	0.17
608.823	0.17
609.16	0.17
609.498	0.17
609.835	0.17
610.173	0.17
610.51	0.17
610.847	0.16
611.185	0.17
611.522	0.17
611.859	0.17
612.196	0.17
612.533	0.18
612.87	0.18
613.207	0.18
613.544	0.18
613.881	0.18
614.217	0.18
614.554	0.18
614.891	0.18
615.228	0.17
615.564	0.17
615.901	0.18
616.237	0.17
616.574	0.17
616.91	0.19
617.246	0.18
617.583	0.18
617.919	0.18
618.255	0.18
618.591	0.17
618.927	0.18
619.263	0.18
619.599	0.17
619.935	0.19
620.271	0.18
620.607	0.17
620.943	0.18
621.279	0.17
621.614	0.17
621.95	0.18
622.286	0.17
622.621	0.17
622.957	0.18
623.292	0.17
623.627	0.17
623.963	0.17
624.298	0.17
624.633	0.17
624.968	0.16
625.304	0.16
625.639	0.17
625.974	0.17
626.309	0.16
626.644	0.16
626.979	0.17
627.313	0.17
627.648	0.17
627.983	0.17
628.318	0.16
628.652	0.16
628.987	0.16
629.321	0.16
629.656	0.15
629.99	0.15
630.325	0.16
630.659	0.16
630.993	0.15
631.327	0.16
631.662	0.15
631.996	0.15
632.33	0.15
632.664	0.16
632.998	0.16
633.332	0.15
633.666	0.15
633.999	0.15
634.333	0.15
634.667	0.16
635.001	0.16
635.334	0.15
635.668	0.14
636.001	0.15
636.335	0.15
636.668	0.15
637.001	0.15
637.335	0.15
637.668	0.15
638.001	0.14
638.334	0.15
638.668	0.14
639.001	0.15
639.334	0.15
639.667	0.14
639.999	0.15
640.332	0.14
640.665	0.15
640.998	0.15
641.331	0.15
641.663	0.14
641.996	0.15
642.328	0.14
642.661	0.14
642.993	0.15
643.326	0.15
643.658	0.14
643.99	0.14
644.323	0.14
644.655	0.15
644.987	0.14
645.319	0.15
645.651	0.15
645.983	0.14
646.315	0.14
646.647	0.14
646.979	0.15
647.31	0.15
647.642	0.14
647.974	0.15
648.305	0.15
648.637	0.14
648.968	0.15
649.3	0.15
649.631	0.15
649.963	0.14
650.294	0.14
650.625	0.15
650.957	0.15
651.288	0.15
651.619	0.15
651.95	0.15
652.281	0.15
652.612	0.14
652.943	0.15
653.274	0.15
653.604	0.15
653.935	0.14
654.266	0.14
654.596	0.14
654.927	0.15
655.258	0.15
655.588	0.15
655.918	0.14
656.249	0.13
656.579	0.14
656.909	0.14
657.24	0.14
657.57	0.15
657.9	0.15
658.23	0.14
658.56	0.15
658.89	0.15
659.22	0.14
659.55	0.14
659.88	0.15
660.209	0.15
660.539	0.15
660.869	0.15
661.198	0.14
661.528	0.15
661.857	0.15
662.187	0.14
662.516	0.14
662.846	0.14
663.175	0.14
663.504	0.14
663.833	0.14
664.163	0.14
664.492	0.13
664.821	0.13
665.15	0.14
665.479	0.14
665.807	0.14
666.136	0.14
666.465	0.14
666.794	0.14
667.122	0.14
667.451	0.14
667.78	0.14
668.108	0.14
668.437	0.14
668.765	0.14
669.093	0.14
669.422	0.13
669.75	0.14
670.078	0.13
670.406	0.14
670.734	0.14
671.062	0.14
671.39	0.13
671.718	0.13
672.046	0.13
672.374	0.13
672.702	0.13
673.029	0.13
673.357	0.13
673.685	0.14
674.012	0.13
674.34	0.13
674.667	0.14
674.995	0.13
675.322	0.13
675.649	0.13
675.977	0.14
676.304	0.14
676.631	0.13
676.958	0.13
677.285	0.13
677.612	0.13
677.939	0.12
678.266	0.13
678.593	0.13
678.92	0.14
679.246	0.13
679.573	0.13
679.9	0.13
680.226	0.13
680.553	0.12
680.879	0.13
681.206	0.12
681.532	0.13
681.858	0.13
682.184	0.12
682.511	0.13
682.837	0.12
683.163	0.13
683.489	0.12
683.815	0.12
684.141	0.12
684.467	0.12
684.793	0.12
685.118	0.12
685.444	0.12
685.77	0.12
686.095	0.12
686.421	0.12
686.746	0.12
687.072	0.12
687.397	0.12
687.723	0.12
688.048	0.13
688.373	0.12
688.698	0.12
689.023	0.12
689.349	0.12
689.674	0.12
689.999	0.12
690.323	0.12
690.648	0.11
690.973	0.12
691.298	0.12
691.623	0.12
691.947	0.12
692.272	0.12
692.596	0.12
692.921	0.12
693.245	0.12
693.57	0.12
693.894	0.12
694.218	0.12
694.543	0.12
694.867	0.12
695.191	0.12
695.515	0.12
695.839	0.11
696.163	0.12
696.487	0.11
696.811	0.12
697.135	0.11
697.458	0.12
697.782	0.12
698.106	0.12
698.429	0.11
698.753	0.11
699.076	0.12
699.4	0.11
699.723	0.11
700.046	0.1
700.37	0.11
700.693	0.11
701.016	0.11
701.339	0.11
701.662	0.12
701.985	0.11
702.308	0.11
702.631	0.12
702.954	0.12
703.277	0.11
703.599	0.11
703.922	0.11
704.245	0.1
704.567	0.1
704.89	0.11
705.212	0.11
705.535	0.1
705.857	0.1
706.179	0.1
706.502	0.1
706.824	0.1
707.146	0.1
707.468	0.11
707.79	0.11
708.112	0.11
708.434	0.11
708.756	0.1
709.078	0.11
709.399	0.1
709.721	0.1
710.043	0.1
710.364	0.1
710.686	0.1
711.007	0.09
711.329	0.11
711.65	0.11
711.972	0.11
712.293	0.11
712.614	0.11
712.935	0.1
713.256	0.11
713.577	0.11
713.898	0.11
714.219	0.1
714.54	0.09
714.861	0.1
715.182	0.09
715.503	0.09
715.823	0.09
716.144	0.1
716.464	0.09
716.785	0.09
717.105	0.09
717.426	0.1
717.746	0.1
718.066	0.09
718.387	0.09
718.707	0.09
719.027	0.1
719.347	0.08
719.667	0.08
719.987	0.09
720.307	0.08
720.627	0.08
720.947	0.09
721.266	0.09
721.586	0.08
721.906	0.09
722.225	0.08
722.545	0.09
722.864	0.09
723.184	0.1
723.503	0.09
723.823	0.09
724.142	0.08
724.461	0.09
724.78	0.09
725.099	0.09
725.418	0.08
725.737	0.08
726.056	0.09
726.375	0.09
726.694	0.08
727.013	0.08
727.331	0.08
727.65	0.08
727.969	0.09
728.287	0.08
728.606	0.09
728.924	0.07
729.242	0.08
729.561	0.08
729.879	0.09
730.197	0.09
730.515	0.08
730.834	0.08
731.152	0.09
731.47	0.09
731.788	0.09
732.105	0.08
732.423	0.09
732.741	0.08
733.059	0.09
733.376	0.09
733.694	0.08
734.012	0.08
734.329	0.09
734.647	0.08
734.964	0.09
735.281	0.09
735.599	0.09
735.916	0.09
736.233	0.08
736.55	0.09
736.867	0.08
737.184	0.09
737.501	0.08
737.818	0.09
738.135	0.08
738.452	0.08
738.768	0.08
739.085	0.09
739.402	0.07
739.718	0.08
740.035	0.08
740.351	0.08
740.668	0.08
740.984	0.08
741.3	0.07
741.617	0.08
741.933	0.07
742.249	0.08
742.565	0.08
742.881	0.09
743.197	0.08
743.513	0.08
743.829	0.07
744.144	0.07
744.46	0.07
744.776	0.08
745.091	0.08
745.407	0.08
745.722	0.06
746.038	0.07
746.353	0.07
746.669	0.08
746.984	0.06
747.299	0.06
747.614	0.08
747.93	0.08
748.245	0.06
748.56	0.07
748.875	0.07
749.189	0.07
749.504	0.07
749.819	0.07
750.134	0.06
750.448	0.08
750.763	0.07
751.078	0.06
751.392	0.07
751.707	0.08
752.021	0.08
752.335	0.09
752.65	0.08
752.964	0.08
753.278	0.07
753.592	0.07
753.906	0.07
754.22	0.08
754.534	0.08
754.848	0.08
755.162	0.07
755.476	0.08
755.789	0.08
756.103	0.07
756.417	0.08
756.73	0.08
757.044	0.08
757.357	0.08
757.671	0.08
757.984	0.08
758.297	0.08
758.61	0.08
758.924	0.07
759.237	0.08
759.55	0.08
759.863	0.07
760.176	0.07
760.488	0.07
760.801	0.06
761.114	0.07
761.427	0.07
761.739	0.07
762.052	0.07
762.365	0.07
762.677	0.08
762.99	0.06
763.302	0.07
763.614	0.07
763.926	0.07
764.239	0.07
764.551	0.06
764.863	0.07
765.175	0.07
765.487	0.07
765.799	0.06
766.111	0.06
766.423	0.07
766.734	0.07
767.046	0.06
767.358	0.07
767.669	0.07
767.981	0.06
768.292	0.06
768.604	0.06
768.915	0.06
769.226	0.07
769.537	0.06
769.849	0.07
770.16	0.06
770.471	0.06
770.782	0.05
771.093	0.06
771.404	0.05
771.715	0.06
772.025	0.06
772.336	0.06
772.647	0.05
772.957	0.05
773.268	0.06
773.578	0.06
773.889	0.07
774.199	0.07
774.51	0.06
774.82	0.06
775.13	0.07
775.44	0.06
775.75	0.06
776.06	0.07
776.37	0.06
776.68	0.07
776.99	0.07
777.3	0.06
777.61	0.07
777.92	0.06
778.229	0.06
778.539	0.06
778.848	0.06
779.158	0.06
779.467	0.06
779.777	0.06
780.086	0.06
780.395	0.05
780.704	0.06
781.013	0.05
781.323	0.05
781.632	0.06
781.941	0.06
782.249	0.05
782.558	0.05
782.867	0.05
783.176	0.05
783.485	0.05
783.793	0.06
784.102	0.06
784.41	0.05
784.719	0.04
785.027	0.05
785.335	0.06
785.644	0.05
785.952	0.06
786.26	0.05
786.568	0.05
786.876	0.05
787.184	0.05
787.492	0.05
787.8	0.05
788.108	0.05
788.416	0.05
788.723	0.06
789.031	0.05
789.338	0.05
789.646	0.05
789.953	0.06
790.261	0.06
790.568	0.06
790.876	0.06
791.183	0.06
791.49	0.06
791.797	0.06
792.104	0.05
792.411	0.06
792.718	0.06
793.025	0.05
793.332	0.05
793.639	0.06
793.945	0.07
794.252	0.06
794.559	0.06
794.865	0.07
795.172	0.05
795.478	0.06
795.784	0.06
796.091	0.06
796.397	0.07
796.703	0.06
797.009	0.07
797.315	0.07
797.622	0.07
797.927	0.07
798.233	0.06
798.539	0.07
798.845	0.07
799.151	0.07
799.456	0.07
799.762	0.06
800.068	0.07
800.373	0.06
800.679	0.07
800.984	0.07
801.289	0.06
801.595	0.07
801.9	0.06
802.205	0.05
802.51	0.07
802.815	0.06
803.12	0.07
803.425	0.05
803.73	0.06
804.035	0.06
804.339	0.06
804.644	0.06
804.949	0.06
805.253	0.06
805.558	0.06
805.862	0.05
806.167	0.06
806.471	0.05
806.775	0.06
807.08	0.06
807.384	0.05
807.688	0.06
807.992	0.06
808.296	0.06
808.6	0.05
808.904	0.06
809.207	0.06
809.511	0.06
809.815	0.07
810.119	0.06
810.422	0.06
810.726	0.07
811.029	0.07
811.332	0.06
811.636	0.07
811.939	0.07
812.242	0.07
812.546	0.07
812.849	0.07
813.152	0.08
813.455	0.07
813.758	0.07
814.06	0.07
814.363	0.07
814.666	0.08
814.969	0.08
815.271	0.07
815.574	0.06
815.877	0.07
816.179	0.06
816.481	0.06
816.784	0.07
817.086	0.06
817.388	0.05
817.69	0.06
817.993	0.05
818.295	0.06
818.597	0.05
818.899	0.04
819.2	0.05
819.502	0.05
819.804	0.05
820.106	0.04
820.407	0.04
820.709	0.05
821.01	0.05
821.312	0.05
821.613	0.05
821.915	0.04
822.216	0.05
822.517	0.04
822.818	0.04
823.119	0.04
823.42	0.04
823.721	0.03
824.022	0.04
824.323	0.04
824.624	0.04
824.925	0.05
825.226	0.05
825.526	0.04
825.827	0.04
826.127	0.04
826.428	0.04
826.728	0.04
827.028	0.04
827.329	0.04
827.629	0.04
827.929	0.03
828.229	0.05
828.529	0.05
828.829	0.04
829.129	0.04
829.429	0.04
829.729	0.04
830.029	0.03
830.328	0.04
830.628	0.03
830.927	0.03
831.227	0.03
831.526	0.04
831.826	0.03
832.125	0.03
832.424	0.03
832.724	0.03
833.023	0.04
833.322	0.03
833.621	0.03
833.92	0.03
834.219	0.03
834.518	0.03
834.816	0.02
835.115	0.02
835.414	0.03
835.712	0.02
836.011	0.02
836.309	0.02
836.608	0.02
836.906	0.01
837.205	0
837.503	0.01
837.801	0.01
838.099	0
838.397	-0.01
838.695	0
838.993	0
839.291	-0
839.589	-0
839.887	0
840.184	-0.01
840.482	-0.01
840.78	0
841.077	-0.01
841.375	-0.01
841.672	-0.01
841.969	-0
842.267	-0
842.564	-0.01
842.861	-0
843.158	-0.01
843.455	-0.02
843.752	-0.02
844.049	-0.02
844.346	-0.02
844.643	-0.03
844.94	-0.01
845.236	-0.01
845.533	-0.02
845.83	-0.02
846.126	-0.02
846.423	-0.03
846.719	-0.04
847.015	-0.03
847.312	-0.03
847.608	-0.04
847.904	-0.04
848.2	-0.04
848.496	-0.03
848.792	-0.04
849.088	-0.03
849.384	-0.04
849.68	-0.04
849.975	-0.04
850.271	-0.05
850.567	-0.05
850.862	-0.05
851.158	-0.05
851.453	-0.05
851.748	-0.06
852.044	-0.05
852.339	-0.04
852.634	-0.07
852.929	-0.05
853.224	-0.06
853.519	-0.05
853.814	-0.05
854.109	-0.06
854.404	-0.06
854.699	-0.05
854.994	-0.05
855.288	-0.06
855.583	-0.07
855.877	-0.07
856.172	-0.06
856.466	-0.06
856.76	-0.07
857.055	-0.07
857.349	-0.08
857.643	-0.08
857.937	-0.1
858.231	-0.09
858.525	-0.1
858.819	-0.1
859.113	-0.1
859.407	-0.11
859.701	-0.11
859.994	-0.11
860.288	-0.1
860.581	-0.1
860.875	-0.1
861.168	-0.1
861.462	-0.1
861.755	-0.1
862.048	-0.11
862.341	-0.1
862.634	-0.1
862.928	-0.1
863.221	-0.1
863.513	-0.1
863.806	-0.12
864.099	-0.11
864.392	-0.11
864.685	-0.11
864.977	-0.1
865.27	-0.12
865.562	-0.11
865.855	-0.11
866.147	-0.12
866.44	-0.11
866.732	-0.11
867.024	-0.12
867.316	-0.12
867.608	-0.12
867.9	-0.12
868.192	-0.12
868.484	-0.13
868.776	-0.13
869.068	-0.11
869.359	-0.12
869.651	-0.13
869.943	-0.14
870.234	-0.14
870.526	-0.14
870.817	-0.15
871.108	-0.12
871.4	-0.14
871.691	-0.14
871.982	-0.15
872.273	-0.16
872.564	-0.15
872.855	-0.16
873.146	-0.16
873.437	-0.15
873.728	-0.17
874.019	-0.16
874.309	-0.17
874.6	-0.16
874.89	-0.17
875.181	-0.17
875.471	-0.16
875.762	-0.16
876.052	-0.16
876.342	-0.15
876.632	-0.15
876.922	-0.18
877.213	-0.17
877.503	-0.17
877.792	-0.17
878.082	-0.16
878.372	-0.15
878.662	-0.17
878.952	-0.17
879.241	-0.16
879.531	-0.16
879.82	-0.16
880.11	-0.16
880.399	-0.16
880.688	-0.15
880.978	-0.15
881.267	-0.15
