Data from 12-12-AQDScycling_Absorbance__766__00766.txt Node

Date: Tue Dec 12 14:08:14 EST 2023
User: kyuminlee
Spectrometer: FLMS00943
Trigger mode: 0
Integration Time (sec): 1.000000E-1
Scans to average: 1
Electric dark correction enabled: true
Nonlinearity correction enabled: false
Boxcar width: 0
XAxis mode: Wavelengths
Number of Pixels in Spectrum: 2048
>>>>>Begin Spectral Data<<<<<
179.651	-0
180.037	-0
180.424	-0
180.81	-0.02
181.197	0.56
181.583	-0
181.97	-0.36
182.356	-0
182.743	-0
183.129	0.05
183.515	0.02
183.901	-0
184.288	0.16
184.674	-0.09
185.06	-1.02
185.446	-0
185.832	-0
186.218	0.21
186.604	-0
186.99	-0.1
187.376	-0
187.762	-0
188.148	-0
188.534	-0.07
188.92	0.18
189.305	0.05
189.691	0.23
190.077	0.2
190.463	0.13
190.848	0.14
191.234	0.08
191.619	0.12
192.005	0.2
192.391	0.29
192.776	0.09
193.161	0.2
193.547	0.15
193.932	0.07
194.318	0.12
194.703	0.19
195.088	0.13
195.473	0.17
195.859	0.1
196.244	0.11
196.629	0.21
197.014	0.18
197.399	0.18
197.784	0.31
198.169	0.16
198.554	0.17
198.939	0.08
199.324	0.09
199.709	0.21
200.094	0.1
200.478	0.19
200.863	0.14
201.248	0.29
201.633	0.15
202.017	0.22
202.402	0.3
202.787	0.18
203.171	0.07
203.556	0.28
203.94	0.18
204.325	0.28
204.709	0.16
205.093	0.1
205.478	0.25
205.862	0.14
206.246	0.21
206.631	0.09
207.015	0.15
207.399	0.07
207.783	0.14
208.167	0.09
208.551	0.21
208.935	0.07
209.319	0.15
209.703	0.21
210.087	0.15
210.471	0.06
210.855	0.05
211.239	0.33
211.623	0.29
212.007	0.34
212.39	0.33
212.774	0.13
213.158	0.16
213.541	0.15
213.925	0.23
214.309	0.3
214.692	0.33
215.076	0.36
215.459	0.16
215.842	0.17
216.226	0.2
216.609	0.28
216.993	0.18
217.376	0.41
217.759	0.28
218.142	0.33
218.525	0.47
218.909	0.44
219.292	0.41
219.675	0.57
220.058	0.38
220.441	0.49
220.824	0.51
221.207	0.61
221.59	0.5
221.973	0.43
222.355	0.63
222.738	0.62
223.121	0.61
223.504	0.59
223.886	0.74
224.269	0.65
224.652	0.65
225.034	0.79
225.417	0.75
225.799	0.79
226.182	0.95
226.564	0.82
226.947	0.78
227.329	0.74
227.711	1.01
228.094	0.81
228.476	0.94
228.858	0.83
229.24	0.82
229.623	0.89
230.005	0.87
230.387	0.86
230.769	0.82
231.151	1
231.533	0.98
231.915	0.98
232.297	1.26
232.679	1.14
233.061	1.04
233.442	1
233.824	1.02
234.206	1.22
234.588	1.18
234.969	1.02
235.351	1.01
235.733	1
236.114	1.14
236.496	1
236.877	1.25
237.259	1.09
237.64	0.98
238.022	1.07
238.403	0.98
238.784	1
239.165	0.95
239.547	1.13
239.928	0.96
240.309	0.97
240.69	0.99
241.071	1.04
241.452	1.03
241.834	1.19
242.215	1.25
242.595	1.01
242.976	1.13
243.357	1.11
243.738	1.03
244.119	1.46
244.5	1.16
244.881	1.28
245.261	1.16
245.642	1.09
246.023	1.21
246.403	1.21
246.784	1.22
247.164	1.1
247.545	1.2
247.925	1.25
248.306	1.27
248.686	1.5
249.067	1.37
249.447	1.32
249.827	1.57
250.207	1.35
250.588	1.23
250.968	1.59
251.348	1.46
251.728	1.41
252.108	1.28
252.488	1.31
252.868	1.53
253.248	1.37
253.628	1.37
254.008	1.45
254.388	1.31
254.768	1.31
255.147	1.32
255.527	1.51
255.907	1.54
256.287	1.3
256.666	1.44
257.046	1.51
257.425	1.64
257.805	1.41
258.184	1.44
258.564	1.34
258.943	1.33
259.323	1.58
259.702	1.58
260.081	1.48
260.461	1.43
260.84	1.48
261.219	1.6
261.598	1.46
261.977	1.48
262.356	1.59
262.736	1.44
263.115	1.68
263.494	1.39
263.873	1.58
264.251	1.46
264.63	1.72
265.009	1.48
265.388	1.44
265.767	1.4
266.145	1.43
266.524	1.39
266.903	1.43
267.281	1.45
267.66	1.51
268.039	1.51
268.417	1.4
268.796	1.38
269.174	1.44
269.552	1.3
269.931	1.5
270.309	1.36
270.687	1.48
271.066	1.93
271.444	1.4
271.822	1.42
272.2	1.5
272.578	1.45
272.956	1.5
273.334	1.38
273.712	1.35
274.09	1.47
274.468	1.3
274.846	1.34
275.224	1.35
275.602	1.56
275.98	1.68
276.357	1.41
276.735	1.68
277.113	1.57
277.49	1.27
277.868	1.3
278.246	1.42
278.623	1.23
279.001	1.41
279.378	1.33
279.756	1.55
280.133	1.59
280.51	1.64
280.888	1.48
281.265	1.45
281.642	1.55
282.019	1.45
282.396	1.55
282.773	1.5
283.151	1.5
283.528	1.56
283.905	1.42
284.282	1.43
284.659	1.79
285.035	1.36
285.412	1.35
285.789	1.65
286.166	1.54
286.543	1.58
286.919	1.54
287.296	1.34
287.673	1.65
288.049	1.38
288.426	1.57
288.802	1.6
289.179	1.4
289.555	1.66
289.932	1.38
290.308	1.4
290.684	1.53
291.061	1.31
291.437	1.5
291.813	1.45
292.189	1.28
292.565	1.43
292.942	1.4
293.318	1.41
293.694	1.56
294.07	1.3
294.446	1.48
294.822	1.74
295.197	1.4
295.573	1.42
295.949	1.55
296.325	1.5
296.701	1.58
297.076	1.61
297.452	1.61
297.828	1.41
298.203	1.53
298.579	1.44
298.954	1.45
299.33	1.36
299.705	1.52
300.081	1.5
300.456	1.47
300.831	1.44
301.206	1.37
301.582	1.5
301.957	1.43
302.332	1.52
302.707	1.54
303.082	1.37
303.457	1.45
303.832	1.47
304.207	1.41
304.582	1.41
304.957	1.55
305.332	1.41
305.707	1.51
306.082	1.47
306.456	1.52
306.831	1.38
307.206	1.52
307.58	1.32
307.955	1.41
308.33	1.34
308.704	1.39
309.079	1.39
309.453	1.43
309.828	1.28
310.202	1.27
310.576	1.28
310.951	1.41
311.325	1.34
311.699	1.3
312.073	1.24
312.447	1.36
312.821	1.31
313.196	1.45
313.57	1.3
313.944	1.47
314.317	1.32
314.691	1.27
315.065	1.37
315.439	1.38
315.813	1.46
316.187	1.26
316.56	1.47
316.934	1.37
317.308	1.35
317.681	1.31
318.055	1.39
318.428	1.37
318.802	1.32
319.175	1.3
319.549	1.42
319.922	1.31
320.295	1.29
320.669	1.4
321.042	1.35
321.415	1.46
321.788	1.34
322.162	1.41
322.535	1.43
322.908	1.43
323.281	1.37
323.654	1.51
324.027	1.29
324.4	1.48
324.773	1.37
325.145	1.45
325.518	1.35
325.891	1.38
326.264	1.5
326.636	1.4
327.009	1.33
327.382	1.44
327.754	1.47
328.127	1.35
328.499	1.33
328.872	1.41
329.244	1.36
329.616	1.4
329.989	1.35
330.361	1.35
330.733	1.38
331.106	1.37
331.478	1.52
331.85	1.46
332.222	1.4
332.594	1.47
332.966	1.36
333.338	1.47
333.71	1.49
334.082	1.68
334.454	1.43
334.826	1.34
335.197	1.4
335.569	1.34
335.941	1.33
336.312	1.57
336.684	1.38
337.056	1.4
337.427	1.47
337.799	1.64
338.17	1.53
338.542	1.31
338.913	1.47
339.284	1.6
339.656	1.49
340.027	1.49
340.398	1.48
340.769	1.5
341.141	1.61
341.512	1.44
341.883	1.62
342.254	1.43
342.625	1.44
342.996	1.39
343.367	1.48
343.738	1.37
344.108	1.27
344.479	1.63
344.85	1.35
345.221	1.44
345.591	1.36
345.962	1.37
346.333	1.38
346.703	1.2
347.074	1.33
347.444	1.27
347.815	1.28
348.185	1.52
348.556	1.35
348.926	1.39
349.296	1.33
349.666	1.31
350.037	1.21
350.407	1.23
350.777	1.42
351.147	1.34
351.517	1.31
351.887	1.33
352.257	1.34
352.627	1.38
352.997	1.25
353.367	1.33
353.737	1.37
354.106	1.45
354.476	1.36
354.846	1.42
355.216	1.39
355.585	1.43
355.955	1.45
356.324	1.55
356.694	1.42
357.063	1.4
357.433	1.34
357.802	1.43
358.171	1.35
358.541	1.37
358.91	1.45
359.279	1.53
359.648	1.37
360.017	1.41
360.387	1.5
360.756	1.29
361.125	1.47
361.494	1.38
361.863	1.36
362.231	1.33
362.6	1.38
362.969	1.54
363.338	1.43
363.707	1.51
364.075	1.52
364.444	1.3
364.813	1.5
365.181	1.32
365.55	1.36
365.918	1.46
366.287	1.48
366.655	1.49
367.024	1.38
367.392	1.48
367.76	1.45
368.128	1.51
368.497	1.38
368.865	1.42
369.233	1.4
369.601	1.4
369.969	1.45
370.337	1.41
370.705	1.34
371.073	1.43
371.441	1.41
371.809	1.4
372.177	1.47
372.544	1.38
372.912	1.64
373.28	1.45
373.647	1.59
374.015	1.72
374.383	1.59
374.75	1.66
375.118	1.46
375.485	1.51
375.853	1.48
376.22	1.39
376.587	1.46
376.955	1.59
377.322	1.43
377.689	1.38
378.056	1.35
378.423	1.43
378.79	1.55
379.157	1.51
379.524	1.62
379.891	1.36
380.258	1.51
380.625	1.62
380.992	1.48
381.359	1.58
381.726	1.81
382.092	1.34
382.459	1.45
382.826	1.52
383.192	1.57
383.559	1.44
383.925	1.51
384.292	1.47
384.658	1.63
385.025	1.57
385.391	1.64
385.757	1.57
386.123	1.57
386.49	1.58
386.856	1.64
387.222	1.67
387.588	1.55
387.954	1.65
388.32	1.68
388.686	1.64
389.052	1.47
389.418	1.74
389.784	1.51
390.15	1.6
390.515	1.46
390.881	1.65
391.247	1.42
391.613	1.71
391.978	1.46
392.344	1.75
392.709	1.59
393.075	1.6
393.44	1.65
393.806	1.65
394.171	1.54
394.536	1.54
394.902	1.71
395.267	1.5
395.632	1.5
395.997	1.44
396.362	1.56
396.727	1.72
397.092	1.45
397.457	1.54
397.822	1.59
398.187	1.57
398.552	1.53
398.917	1.6
399.282	1.42
399.646	1.51
400.011	1.78
400.376	1.48
400.74	1.48
401.105	1.42
401.47	1.51
401.834	1.54
402.199	1.51
402.563	1.41
402.927	1.48
403.292	1.54
403.656	1.49
404.02	1.5
404.384	1.56
404.749	1.45
405.113	1.47
405.477	1.61
405.841	1.43
406.205	1.51
406.569	1.46
406.933	1.57
407.296	1.46
407.66	1.44
408.024	1.48
408.388	1.48
408.752	1.47
409.115	1.68
409.479	1.46
409.842	1.45
410.206	1.39
410.569	1.39
410.933	1.48
411.296	1.31
411.66	1.53
412.023	1.34
412.386	1.38
412.749	1.36
413.113	1.45
413.476	1.39
413.839	1.34
414.202	1.41
414.565	1.28
414.928	1.32
415.291	1.35
415.654	1.4
416.017	1.34
416.38	1.33
416.742	1.32
417.105	1.27
417.468	1.32
417.83	1.36
418.193	1.51
418.556	1.29
418.918	1.33
419.281	1.38
419.643	1.49
420.005	1.31
420.368	1.28
420.73	1.25
421.092	1.36
421.455	1.39
421.817	1.2
422.179	1.31
422.541	1.32
422.903	1.39
423.265	1.34
423.627	1.34
423.989	1.32
424.351	1.25
424.713	1.2
425.075	1.34
425.436	1.31
425.798	1.22
426.16	1.23
426.521	1.28
426.883	1.36
427.245	1.38
427.606	1.29
427.967	1.16
428.329	1.26
428.69	1.3
429.052	1.25
429.413	1.31
429.774	1.24
430.135	1.32
430.497	1.32
430.858	1.29
431.219	1.26
431.58	1.21
431.941	1.2
432.302	1.21
432.663	1.25
433.024	1.27
433.384	1.29
433.745	1.24
434.106	1.18
434.467	1.23
434.827	1.2
435.188	1.23
435.548	1.22
435.909	1.21
436.269	1.24
436.63	1.2
436.99	1.17
437.351	1.15
437.711	1.21
438.071	1.18
438.431	1.19
438.792	1.16
439.152	1.16
439.512	1.1
439.872	1.13
440.232	1.18
440.592	1.13
440.952	1.17
441.312	1.09
441.671	1.1
442.031	1.15
442.391	1.12
442.751	1.11
443.11	1.12
443.47	1.04
443.83	1.07
444.189	1.05
444.549	1.08
444.908	1.05
445.267	1.06
445.627	1.03
445.986	1.03
446.345	1.05
446.705	1.02
447.064	1.05
447.423	1.03
447.782	1.04
448.141	1.03
448.5	0.95
448.859	1
449.218	0.99
449.577	1.02
449.936	0.99
450.295	0.97
450.653	0.97
451.012	0.97
451.371	0.96
451.729	0.96
452.088	0.94
452.447	0.95
452.805	0.92
453.163	0.95
453.522	0.93
453.88	0.91
454.239	0.91
454.597	0.88
454.955	0.87
455.313	0.88
455.671	0.87
456.029	0.87
456.388	0.85
456.746	0.85
457.104	0.84
457.461	0.82
457.819	0.82
458.177	0.81
458.535	0.81
458.893	0.8
459.25	0.78
459.608	0.78
459.966	0.76
460.323	0.74
460.681	0.74
461.038	0.74
461.396	0.73
461.753	0.72
462.111	0.7
462.468	0.69
462.825	0.68
463.182	0.69
463.54	0.67
463.897	0.67
464.254	0.67
464.611	0.65
464.968	0.64
465.325	0.64
465.682	0.62
466.039	0.63
466.395	0.61
466.752	0.6
467.109	0.6
467.466	0.59
467.822	0.59
468.179	0.58
468.535	0.56
468.892	0.57
469.248	0.56
469.605	0.54
469.961	0.53
470.318	0.54
470.674	0.52
471.03	0.52
471.386	0.52
471.743	0.51
472.099	0.5
472.455	0.5
472.811	0.48
473.167	0.49
473.523	0.47
473.879	0.48
474.235	0.47
474.59	0.46
474.946	0.45
475.302	0.45
475.657	0.43
476.013	0.43
476.369	0.42
476.724	0.42
477.08	0.42
477.435	0.41
477.791	0.41
478.146	0.39
478.501	0.39
478.857	0.4
479.212	0.38
479.567	0.38
479.922	0.36
480.277	0.37
480.632	0.36
480.987	0.36
481.342	0.35
481.697	0.34
482.052	0.34
482.407	0.34
482.762	0.33
483.116	0.32
483.471	0.32
483.826	0.31
484.18	0.31
484.535	0.31
484.89	0.3
485.244	0.31
485.598	0.3
485.953	0.29
486.307	0.29
486.661	0.29
487.016	0.28
487.37	0.28
487.724	0.28
488.078	0.28
488.432	0.27
488.786	0.27
489.14	0.26
489.494	0.26
489.848	0.26
490.202	0.25
490.556	0.25
490.91	0.25
491.263	0.25
491.617	0.25
491.971	0.24
492.324	0.23
492.678	0.24
493.031	0.24
493.385	0.23
493.738	0.23
494.091	0.23
494.445	0.23
494.798	0.23
495.151	0.23
495.504	0.23
495.857	0.22
496.21	0.22
496.564	0.21
496.916	0.22
497.269	0.21
497.622	0.22
497.975	0.21
498.328	0.21
498.681	0.21
499.033	0.2
499.386	0.21
499.739	0.2
500.091	0.2
500.444	0.2
500.796	0.2
501.149	0.19
501.501	0.2
501.854	0.2
502.206	0.2
502.558	0.19
502.91	0.19
503.263	0.19
503.615	0.19
503.967	0.19
504.319	0.19
504.671	0.18
505.023	0.18
505.375	0.19
505.726	0.18
506.078	0.18
506.43	0.18
506.782	0.18
507.133	0.18
507.485	0.19
507.837	0.19
508.188	0.18
508.54	0.19
508.891	0.19
509.243	0.18
509.594	0.18
509.945	0.18
510.296	0.18
510.648	0.18
510.999	0.18
511.35	0.17
511.701	0.18
512.052	0.18
512.403	0.18
512.754	0.18
513.105	0.17
513.456	0.18
513.807	0.17
514.157	0.17
514.508	0.17
514.859	0.18
515.209	0.17
515.56	0.17
515.91	0.17
516.261	0.18
516.611	0.17
516.962	0.17
517.312	0.18
517.662	0.18
518.013	0.18
518.363	0.18
518.713	0.18
519.063	0.18
519.413	0.17
519.763	0.17
520.113	0.17
520.463	0.18
520.813	0.19
521.163	0.18
521.512	0.18
521.862	0.18
522.212	0.18
522.562	0.18
522.911	0.18
523.261	0.18
523.61	0.18
523.96	0.18
524.309	0.18
524.658	0.18
525.008	0.18
525.357	0.17
525.706	0.18
526.056	0.18
526.405	0.17
526.754	0.17
527.103	0.17
527.452	0.18
527.801	0.18
528.15	0.18
528.499	0.18
528.847	0.18
529.196	0.19
529.545	0.18
529.893	0.19
530.242	0.19
530.591	0.19
530.939	0.19
531.288	0.18
531.636	0.19
531.985	0.19
532.333	0.19
532.681	0.19
533.029	0.18
533.378	0.18
533.726	0.18
534.074	0.18
534.422	0.18
534.77	0.19
535.118	0.19
535.466	0.19
535.814	0.19
536.162	0.19
536.509	0.19
536.857	0.19
537.205	0.19
537.552	0.2
537.9	0.19
538.248	0.19
538.595	0.19
538.943	0.19
539.29	0.19
539.637	0.19
539.985	0.19
540.332	0.19
540.679	0.19
541.026	0.18
541.373	0.19
541.721	0.18
542.068	0.19
542.415	0.19
542.762	0.19
543.108	0.18
543.455	0.18
543.802	0.18
544.149	0.19
544.496	0.18
544.842	0.18
545.189	0.17
545.535	0.18
545.882	0.18
546.228	0.17
546.575	0.17
546.921	0.17
547.267	0.18
547.614	0.18
547.96	0.18
548.306	0.18
548.652	0.18
548.998	0.18
549.344	0.18
549.69	0.18
550.036	0.17
550.382	0.18
550.728	0.18
551.074	0.18
551.42	0.19
551.765	0.18
552.111	0.19
552.457	0.19
552.802	0.18
553.148	0.19
553.493	0.18
553.839	0.18
554.184	0.19
554.529	0.18
554.875	0.19
555.22	0.19
555.565	0.19
555.91	0.19
556.255	0.19
556.6	0.19
556.945	0.18
557.29	0.19
557.635	0.19
557.98	0.18
558.325	0.19
558.67	0.19
559.014	0.19
559.359	0.19
559.704	0.18
560.048	0.18
560.393	0.19
560.737	0.17
561.082	0.19
561.426	0.18
561.77	0.18
562.115	0.18
562.459	0.19
562.803	0.19
563.147	0.18
563.491	0.19
563.835	0.19
564.179	0.19
564.523	0.18
564.867	0.18
565.211	0.19
565.555	0.2
565.899	0.2
566.242	0.18
566.586	0.19
566.93	0.19
567.273	0.19
567.617	0.19
567.96	0.19
568.304	0.2
568.647	0.18
568.99	0.19
569.334	0.2
569.677	0.19
570.02	0.19
570.363	0.19
570.706	0.18
571.049	0.19
571.392	0.2
571.735	0.19
572.078	0.19
572.421	0.2
572.764	0.19
573.106	0.19
573.449	0.19
573.792	0.18
574.134	0.19
574.477	0.2
574.819	0.19
575.162	0.19
575.504	0.19
575.847	0.18
576.189	0.19
576.531	0.19
576.873	0.19
577.215	0.19
577.558	0.19
577.9	0.18
578.242	0.19
578.584	0.19
578.926	0.19
579.267	0.19
579.609	0.19
579.951	0.19
580.293	0.18
580.634	0.19
580.976	0.19
581.318	0.19
581.659	0.18
582.001	0.19
582.342	0.19
582.683	0.19
583.025	0.18
583.366	0.18
583.707	0.19
584.049	0.19
584.39	0.18
584.731	0.19
585.072	0.18
585.413	0.19
585.754	0.18
586.095	0.19
586.435	0.19
586.776	0.19
587.117	0.19
587.458	0.19
587.798	0.19
588.139	0.18
588.48	0.18
588.82	0.18
589.161	0.19
589.501	0.18
589.841	0.19
590.182	0.18
590.522	0.18
590.862	0.19
591.202	0.18
591.542	0.19
591.882	0.18
592.222	0.19
592.562	0.18
592.902	0.19
593.242	0.18
593.582	0.19
593.922	0.18
594.261	0.18
594.601	0.18
594.941	0.18
595.28	0.19
595.62	0.19
595.959	0.18
596.299	0.18
596.638	0.18
596.977	0.18
597.317	0.18
597.656	0.18
597.995	0.17
598.334	0.19
598.673	0.18
599.012	0.19
599.351	0.2
599.69	0.19
600.029	0.19
600.368	0.2
600.707	0.19
601.046	0.19
601.384	0.19
601.723	0.19
602.061	0.19
602.4	0.19
602.738	0.19
603.077	0.19
603.415	0.18
603.754	0.18
604.092	0.19
604.43	0.18
604.768	0.19
605.107	0.19
605.445	0.19
605.783	0.18
606.121	0.18
606.459	0.18
606.796	0.18
607.134	0.17
607.472	0.17
607.81	0.18
608.148	0.18
608.485	0.18
608.823	0.18
609.16	0.18
609.498	0.18
609.835	0.18
610.173	0.18
610.51	0.18
610.847	0.18
611.185	0.19
611.522	0.18
611.859	0.18
612.196	0.18
612.533	0.18
612.87	0.19
613.207	0.19
613.544	0.19
613.881	0.2
614.217	0.19
614.554	0.18
614.891	0.18
615.228	0.19
615.564	0.19
615.901	0.19
616.237	0.19
616.574	0.18
616.91	0.19
617.246	0.19
617.583	0.19
617.919	0.19
618.255	0.19
618.591	0.19
618.927	0.18
619.263	0.19
619.599	0.18
619.935	0.19
620.271	0.19
620.607	0.19
620.943	0.18
621.279	0.18
621.614	0.19
621.95	0.18
622.286	0.18
622.621	0.18
622.957	0.18
623.292	0.18
623.627	0.18
623.963	0.18
624.298	0.18
624.633	0.17
624.968	0.17
625.304	0.18
625.639	0.18
625.974	0.17
626.309	0.17
626.644	0.17
626.979	0.17
627.313	0.18
627.648	0.17
627.983	0.18
628.318	0.17
628.652	0.17
628.987	0.18
629.321	0.17
629.656	0.17
629.99	0.16
630.325	0.17
630.659	0.16
630.993	0.16
631.327	0.17
631.662	0.16
631.996	0.16
632.33	0.16
632.664	0.16
632.998	0.16
633.332	0.16
633.666	0.16
633.999	0.16
634.333	0.16
634.667	0.16
635.001	0.16
635.334	0.15
635.668	0.16
636.001	0.15
636.335	0.16
636.668	0.16
637.001	0.15
637.335	0.16
637.668	0.16
638.001	0.15
638.334	0.15
638.668	0.16
639.001	0.15
639.334	0.15
639.667	0.15
639.999	0.15
640.332	0.16
640.665	0.16
640.998	0.15
641.331	0.16
641.663	0.15
641.996	0.16
642.328	0.16
642.661	0.15
642.993	0.16
643.326	0.16
643.658	0.16
643.99	0.15
644.323	0.15
644.655	0.16
644.987	0.16
645.319	0.16
645.651	0.16
645.983	0.16
646.315	0.15
646.647	0.16
646.979	0.16
647.31	0.16
647.642	0.16
647.974	0.16
648.305	0.16
648.637	0.15
648.968	0.16
649.3	0.16
649.631	0.16
649.963	0.15
650.294	0.16
650.625	0.16
650.957	0.15
651.288	0.15
651.619	0.16
651.95	0.16
652.281	0.15
652.612	0.16
652.943	0.16
653.274	0.16
653.604	0.16
653.935	0.15
654.266	0.15
654.596	0.15
654.927	0.15
655.258	0.15
655.588	0.16
655.918	0.16
656.249	0.13
656.579	0.15
656.909	0.15
657.24	0.14
657.57	0.15
657.9	0.15
658.23	0.15
658.56	0.15
658.89	0.15
659.22	0.14
659.55	0.14
659.88	0.15
660.209	0.15
660.539	0.16
660.869	0.15
661.198	0.15
661.528	0.15
661.857	0.14
662.187	0.15
662.516	0.14
662.846	0.15
663.175	0.14
663.504	0.14
663.833	0.14
664.163	0.14
664.492	0.14
664.821	0.14
665.15	0.14
665.479	0.14
665.807	0.14
666.136	0.14
666.465	0.14
666.794	0.15
667.122	0.14
667.451	0.15
667.78	0.15
668.108	0.15
668.437	0.14
668.765	0.15
669.093	0.15
669.422	0.15
669.75	0.14
670.078	0.15
670.406	0.15
670.734	0.15
671.062	0.14
671.39	0.14
671.718	0.14
672.046	0.14
672.374	0.14
672.702	0.14
673.029	0.13
673.357	0.14
673.685	0.15
674.012	0.14
674.34	0.14
674.667	0.14
674.995	0.15
675.322	0.14
675.649	0.14
675.977	0.14
676.304	0.14
676.631	0.14
676.958	0.13
677.285	0.13
677.612	0.13
677.939	0.13
678.266	0.14
678.593	0.13
678.92	0.14
679.246	0.13
679.573	0.14
679.9	0.13
680.226	0.13
680.553	0.13
680.879	0.13
681.206	0.14
681.532	0.13
681.858	0.13
682.184	0.13
682.511	0.14
682.837	0.13
683.163	0.13
683.489	0.14
683.815	0.13
684.141	0.14
684.467	0.14
684.793	0.13
685.118	0.13
685.444	0.14
685.77	0.13
686.095	0.13
686.421	0.12
686.746	0.13
687.072	0.13
687.397	0.12
687.723	0.12
688.048	0.13
688.373	0.13
688.698	0.13
689.023	0.12
689.349	0.12
689.674	0.12
689.999	0.12
690.323	0.11
690.648	0.11
690.973	0.11
691.298	0.12
691.623	0.12
691.947	0.11
692.272	0.11
692.596	0.12
692.921	0.12
693.245	0.12
693.57	0.13
693.894	0.12
694.218	0.12
694.543	0.13
694.867	0.12
695.191	0.12
695.515	0.13
695.839	0.12
696.163	0.12
696.487	0.12
696.811	0.12
697.135	0.13
697.458	0.12
697.782	0.12
698.106	0.12
698.429	0.11
698.753	0.12
699.076	0.11
699.4	0.12
699.723	0.12
700.046	0.11
700.37	0.12
700.693	0.12
701.016	0.12
701.339	0.11
701.662	0.13
701.985	0.12
702.308	0.11
702.631	0.12
702.954	0.12
703.277	0.12
703.599	0.11
703.922	0.11
704.245	0.11
704.567	0.11
704.89	0.11
705.212	0.11
705.535	0.1
705.857	0.1
706.179	0.1
706.502	0.11
706.824	0.1
707.146	0.11
707.468	0.11
707.79	0.1
708.112	0.11
708.434	0.11
708.756	0.11
709.078	0.11
709.399	0.1
709.721	0.1
710.043	0.11
710.364	0.1
710.686	0.1
711.007	0.11
711.329	0.11
711.65	0.11
711.972	0.11
712.293	0.11
712.614	0.11
712.935	0.11
713.256	0.11
713.577	0.12
713.898	0.11
714.219	0.1
714.54	0.11
714.861	0.1
715.182	0.11
715.503	0.1
715.823	0.11
716.144	0.1
716.464	0.1
716.785	0.1
717.105	0.1
717.426	0.11
717.746	0.1
718.066	0.09
718.387	0.09
718.707	0.08
719.027	0.1
719.347	0.09
719.667	0.09
719.987	0.09
720.307	0.09
720.627	0.09
720.947	0.09
721.266	0.09
721.586	0.09
721.906	0.09
722.225	0.08
722.545	0.09
722.864	0.08
723.184	0.1
723.503	0.09
723.823	0.1
724.142	0.09
724.461	0.09
724.78	0.09
725.099	0.09
725.418	0.1
725.737	0.09
726.056	0.09
726.375	0.1
726.694	0.1
727.013	0.1
727.331	0.08
727.65	0.09
727.969	0.09
728.287	0.1
728.606	0.09
728.924	0.09
729.242	0.09
729.561	0.09
729.879	0.09
730.197	0.09
730.515	0.08
730.834	0.08
731.152	0.09
731.47	0.09
731.788	0.09
732.105	0.08
732.423	0.09
732.741	0.08
733.059	0.09
733.376	0.09
733.694	0.08
734.012	0.08
734.329	0.1
734.647	0.09
734.964	0.09
735.281	0.1
735.599	0.1
735.916	0.1
736.233	0.09
736.55	0.09
736.867	0.09
737.184	0.1
737.501	0.08
737.818	0.09
738.135	0.09
738.452	0.08
738.768	0.09
739.085	0.09
739.402	0.08
739.718	0.09
740.035	0.09
740.351	0.09
740.668	0.09
740.984	0.09
741.3	0.08
741.617	0.09
741.933	0.08
742.249	0.09
742.565	0.08
742.881	0.1
743.197	0.09
743.513	0.08
743.829	0.08
744.144	0.08
744.46	0.08
744.776	0.09
745.091	0.08
745.407	0.09
745.722	0.08
746.038	0.08
746.353	0.07
746.669	0.08
746.984	0.08
747.299	0.07
747.614	0.08
747.93	0.08
748.245	0.08
748.56	0.07
748.875	0.08
749.189	0.08
749.504	0.08
749.819	0.07
750.134	0.07
750.448	0.07
750.763	0.07
751.078	0.06
751.392	0.07
751.707	0.08
752.021	0.08
752.335	0.08
752.65	0.08
752.964	0.08
753.278	0.08
753.592	0.07
753.906	0.07
754.22	0.08
754.534	0.08
754.848	0.08
755.162	0.08
755.476	0.08
755.789	0.08
756.103	0.07
756.417	0.09
756.73	0.08
757.044	0.08
757.357	0.07
757.671	0.08
757.984	0.08
758.297	0.08
758.61	0.08
758.924	0.08
759.237	0.06
759.55	0.08
759.863	0.07
760.176	0.07
760.488	0.07
760.801	0.07
761.114	0.07
761.427	0.07
761.739	0.08
762.052	0.07
762.365	0.07
762.677	0.07
762.99	0.06
763.302	0.06
763.614	0.07
763.926	0.08
764.239	0.07
764.551	0.06
764.863	0.07
765.175	0.07
765.487	0.07
765.799	0.06
766.111	0.06
766.423	0.07
766.734	0.07
767.046	0.06
767.358	0.07
767.669	0.07
767.981	0.07
768.292	0.07
768.604	0.07
768.915	0.06
769.226	0.07
769.537	0.06
769.849	0.07
770.16	0.06
770.471	0.06
770.782	0.06
771.093	0.06
771.404	0.05
771.715	0.06
772.025	0.07
772.336	0.07
772.647	0.07
772.957	0.07
773.268	0.07
773.578	0.06
773.889	0.07
774.199	0.08
774.51	0.06
774.82	0.06
775.13	0.07
775.44	0.07
775.75	0.07
776.06	0.07
776.37	0.06
776.68	0.08
776.99	0.08
777.3	0.07
777.61	0.08
777.92	0.07
778.229	0.07
778.539	0.07
778.848	0.07
779.158	0.07
779.467	0.07
779.777	0.06
780.086	0.07
780.395	0.06
780.704	0.06
781.013	0.06
781.323	0.06
781.632	0.07
781.941	0.06
782.249	0.06
782.558	0.05
782.867	0.07
783.176	0.06
783.485	0.06
783.793	0.06
784.102	0.06
784.41	0.05
784.719	0.06
785.027	0.06
785.335	0.06
785.644	0.06
785.952	0.06
786.26	0.06
786.568	0.05
786.876	0.05
787.184	0.06
787.492	0.06
787.8	0.06
788.108	0.07
788.416	0.07
788.723	0.06
789.031	0.06
789.338	0.06
789.646	0.06
789.953	0.06
790.261	0.06
790.568	0.07
790.876	0.06
791.183	0.06
791.49	0.05
791.797	0.06
792.104	0.06
792.411	0.06
792.718	0.06
793.025	0.06
793.332	0.06
793.639	0.08
793.945	0.07
794.252	0.07
794.559	0.06
794.865	0.07
795.172	0.07
795.478	0.06
795.784	0.06
796.091	0.06
796.397	0.07
796.703	0.07
797.009	0.08
797.315	0.07
797.622	0.06
797.927	0.07
798.233	0.06
798.539	0.07
798.845	0.07
799.151	0.07
799.456	0.07
799.762	0.07
800.068	0.07
800.373	0.08
800.679	0.07
800.984	0.07
801.289	0.06
801.595	0.07
801.9	0.07
802.205	0.07
802.51	0.07
802.815	0.07
803.12	0.07
803.425	0.07
803.73	0.06
804.035	0.07
804.339	0.06
804.644	0.06
804.949	0.07
805.253	0.06
805.558	0.07
805.862	0.06
806.167	0.07
806.471	0.05
806.775	0.07
807.08	0.06
807.384	0.06
807.688	0.06
807.992	0.06
808.296	0.06
808.6	0.06
808.904	0.06
809.207	0.07
809.511	0.06
809.815	0.06
810.119	0.07
810.422	0.07
810.726	0.07
811.029	0.08
811.332	0.07
811.636	0.08
811.939	0.07
812.242	0.06
812.546	0.07
812.849	0.07
813.152	0.08
813.455	0.07
813.758	0.07
814.06	0.07
814.363	0.07
814.666	0.08
814.969	0.07
815.271	0.07
815.574	0.06
815.877	0.07
816.179	0.07
816.481	0.06
816.784	0.07
817.086	0.06
817.388	0.06
817.69	0.05
817.993	0.05
818.295	0.05
818.597	0.06
818.899	0.05
819.2	0.05
819.502	0.05
819.804	0.05
820.106	0.05
820.407	0.05
820.709	0.05
821.01	0.05
821.312	0.06
821.613	0.04
821.915	0.05
822.216	0.04
822.517	0.04
822.818	0.04
823.119	0.05
823.42	0.05
823.721	0.04
824.022	0.05
824.323	0.04
824.624	0.05
824.925	0.05
825.226	0.06
825.526	0.04
825.827	0.05
826.127	0.05
826.428	0.05
826.728	0.04
827.028	0.04
827.329	0.04
827.629	0.04
827.929	0.04
828.229	0.04
828.529	0.05
828.829	0.04
829.129	0.04
829.429	0.05
829.729	0.04
830.029	0.04
830.328	0.04
830.628	0.04
830.927	0.03
831.227	0.04
831.526	0.04
831.826	0.04
832.125	0.03
832.424	0.03
832.724	0.04
833.023	0.04
833.322	0.04
833.621	0.04
833.92	0.03
834.219	0.03
834.518	0.03
834.816	0.03
835.115	0.03
835.414	0.01
835.712	0.02
836.011	0.03
836.309	0.02
836.608	0.03
836.906	0.01
837.205	0.01
837.503	0.01
837.801	0
838.099	0.01
838.397	-0
838.695	0
838.993	-0.01
839.291	-0
839.589	-0
839.887	0.01
840.184	-0.01
840.482	0
840.78	-0.01
841.077	-0.01
841.375	-0.01
841.672	0
841.969	-0.01
842.267	-0
842.564	-0.01
842.861	0
843.158	-0
843.455	-0.02
843.752	-0.02
844.049	-0.01
844.346	-0.01
844.643	-0.01
844.94	-0.02
845.236	-0.01
845.533	-0.01
845.83	-0.02
846.126	-0.02
846.423	-0.01
846.719	-0.02
847.015	-0.02
847.312	-0.02
847.608	-0.03
847.904	-0.03
848.2	-0.03
848.496	-0.03
848.792	-0.03
849.088	-0.02
849.384	-0.03
849.68	-0.03
849.975	-0.03
850.271	-0.04
850.567	-0.03
850.862	-0.04
851.158	-0.04
851.453	-0.04
851.748	-0.04
852.044	-0.04
852.339	-0.04
852.634	-0.06
852.929	-0.04
853.224	-0.05
853.519	-0.05
853.814	-0.05
854.109	-0.05
854.404	-0.05
854.699	-0.05
854.994	-0.05
855.288	-0.05
855.583	-0.04
855.877	-0.06
856.172	-0.06
856.466	-0.06
856.76	-0.05
857.055	-0.05
857.349	-0.06
857.643	-0.07
857.937	-0.08
858.231	-0.08
858.525	-0.08
858.819	-0.08
859.113	-0.09
859.407	-0.09
859.701	-0.09
859.994	-0.09
860.288	-0.08
860.581	-0.09
860.875	-0.1
861.168	-0.11
861.462	-0.09
861.755	-0.1
862.048	-0.11
862.341	-0.1
862.634	-0.11
862.928	-0.1
863.221	-0.1
863.513	-0.1
863.806	-0.1
864.099	-0.11
864.392	-0.11
864.685	-0.11
864.977	-0.11
865.27	-0.11
865.562	-0.11
865.855	-0.1
866.147	-0.11
866.44	-0.11
866.732	-0.12
867.024	-0.12
867.316	-0.12
867.608	-0.13
867.9	-0.12
868.192	-0.13
868.484	-0.12
868.776	-0.13
869.068	-0.13
869.359	-0.12
869.651	-0.13
869.943	-0.14
870.234	-0.13
870.526	-0.14
870.817	-0.14
871.108	-0.13
871.4	-0.13
871.691	-0.14
871.982	-0.14
872.273	-0.15
872.564	-0.15
872.855	-0.15
873.146	-0.15
873.437	-0.15
873.728	-0.15
874.019	-0.15
874.309	-0.16
874.6	-0.14
874.89	-0.16
875.181	-0.15
875.471	-0.15
875.762	-0.15
876.052	-0.15
876.342	-0.14
876.632	-0.16
876.922	-0.16
877.213	-0.16
877.503	-0.18
877.792	-0.17
878.082	-0.17
878.372	-0.14
878.662	-0.18
878.952	-0.17
879.241	-0.15
879.531	-0.16
879.82	-0.18
880.11	-0.15
880.399	-0.17
880.688	-0.15
880.978	-0.15
881.267	-0.15
