Data from 12-12-AQDScycling_Absorbance__100__00100.txt Node

Date: Tue Dec 12 11:21:44 EST 2023
User: kyuminlee
Spectrometer: FLMS00943
Trigger mode: 0
Integration Time (sec): 1.000000E-1
Scans to average: 1
Electric dark correction enabled: true
Nonlinearity correction enabled: false
Boxcar width: 0
XAxis mode: Wavelengths
Number of Pixels in Spectrum: 2048
>>>>>Begin Spectral Data<<<<<
179.651	-0
180.037	-0
180.424	-0
180.81	0.27
181.197	0.4
181.583	-0.15
181.97	-0.42
182.356	-0
182.743	-0.43
183.129	-0
183.515	0.37
183.901	-2.58
184.288	-0.02
184.674	-0
185.06	-1.02
185.446	-0
185.832	-1.05
186.218	0.21
186.604	-0
186.99	-0
187.376	-0
187.762	-0.19
188.148	-0
188.534	-0.28
188.92	0.16
189.305	0.12
189.691	0.25
190.077	0.3
190.463	0.14
190.848	0.18
191.234	0.13
191.619	0.29
192.005	0.26
192.391	0.04
192.776	0.1
193.161	0.26
193.547	0.16
193.932	0.2
194.318	0.1
194.703	0.39
195.088	0.19
195.473	0.19
195.859	0.25
196.244	0.35
196.629	0.03
197.014	0.13
197.399	0.17
197.784	0.12
198.169	0.33
198.554	0.15
198.939	0.02
199.324	0.13
199.709	0.04
200.094	0.14
200.478	0.28
200.863	0.22
201.248	0.15
201.633	0.18
202.017	0.2
202.402	0.26
202.787	0.1
203.171	0.11
203.556	0.17
203.94	0.23
204.325	0.34
204.709	0.15
205.093	0.11
205.478	0.13
205.862	0.15
206.246	0.18
206.631	0.01
207.015	0.09
207.399	0.34
207.783	0.09
208.167	0.16
208.551	0.31
208.935	0.24
209.319	0.19
209.703	0.08
210.087	0.16
210.471	0.07
210.855	0.19
211.239	0.22
211.623	0.28
212.007	0.43
212.39	0.34
212.774	0.18
213.158	0.18
213.541	0.38
213.925	0.18
214.309	0.39
214.692	0.29
215.076	0.3
215.459	0.22
215.842	0.24
216.226	0.36
216.609	0.27
216.993	0.27
217.376	0.32
217.759	0.11
218.142	0.3
218.525	0.61
218.909	0.4
219.292	0.42
219.675	0.55
220.058	0.61
220.441	0.53
220.824	0.6
221.207	0.62
221.59	0.56
221.973	0.53
222.355	0.71
222.738	0.75
223.121	0.51
223.504	0.59
223.886	0.7
224.269	0.66
224.652	0.63
225.034	0.83
225.417	0.8
225.799	0.79
226.182	0.88
226.564	0.85
226.947	0.83
227.329	0.86
227.711	0.92
228.094	0.97
228.476	0.85
228.858	0.87
229.24	0.75
229.623	0.99
230.005	0.81
230.387	0.91
230.769	0.83
231.151	1
231.533	0.96
231.915	0.9
232.297	1.15
232.679	1.05
233.061	0.94
233.442	1.08
233.824	1.07
234.206	1.25
234.588	0.98
234.969	1.08
235.351	1.06
235.733	0.95
236.114	1.04
236.496	1.03
236.877	1.03
237.259	1
237.64	0.99
238.022	1.17
238.403	0.94
238.784	1.13
239.165	0.98
239.547	1.09
239.928	1.14
240.309	1.05
240.69	1
241.071	1.11
241.452	1.2
241.834	1.08
242.215	1.02
242.595	1.08
242.976	1.11
243.357	1.08
243.738	0.99
244.119	1.31
244.5	1.07
244.881	1.18
245.261	1.19
245.642	1.16
246.023	1.12
246.403	1.14
246.784	1.51
247.164	1.39
247.545	1.31
247.925	1.34
248.306	1.22
248.686	1.42
249.067	1.26
249.447	1.39
249.827	1.45
250.207	1.49
250.588	1.35
250.968	1.53
251.348	1.52
251.728	1.38
252.108	1.26
252.488	1.4
252.868	1.4
253.248	1.33
253.628	1.52
254.008	1.5
254.388	1.2
254.768	1.39
255.147	1.45
255.527	1.4
255.907	1.32
256.287	1.24
256.666	1.41
257.046	1.45
257.425	1.48
257.805	1.29
258.184	1.29
258.564	1.39
258.943	1.57
259.323	1.41
259.702	1.56
260.081	1.45
260.461	1.51
260.84	1.55
261.219	1.62
261.598	1.57
261.977	1.68
262.356	1.51
262.736	1.54
263.115	1.61
263.494	1.35
263.873	1.51
264.251	1.61
264.63	1.5
265.009	1.54
265.388	1.37
265.767	1.31
266.145	1.35
266.524	1.37
266.903	1.45
267.281	1.33
267.66	1.55
268.039	1.44
268.417	1.65
268.796	1.35
269.174	1.32
269.552	1.29
269.931	1.46
270.309	1.34
270.687	1.64
271.066	1.54
271.444	1.46
271.822	1.68
272.2	1.46
272.578	1.34
272.956	1.4
273.334	1.35
273.712	1.4
274.09	1.43
274.468	1.51
274.846	1.3
275.224	1.36
275.602	1.42
275.98	1.67
276.357	1.39
276.735	1.53
277.113	1.42
277.49	1.38
277.868	1.36
278.246	1.37
278.623	1.31
279.001	1.41
279.378	1.35
279.756	1.44
280.133	1.64
280.51	1.44
280.888	1.42
281.265	1.29
281.642	1.48
282.019	1.56
282.396	1.53
282.773	1.48
283.151	1.49
283.528	1.62
283.905	1.43
284.282	1.52
284.659	1.62
285.035	1.27
285.412	1.34
285.789	1.46
286.166	1.42
286.543	1.46
286.919	1.56
287.296	1.44
287.673	1.71
288.049	1.55
288.426	1.62
288.802	1.59
289.179	1.41
289.555	1.53
289.932	1.45
290.308	1.34
290.684	1.42
291.061	1.36
291.437	1.67
291.813	1.37
292.189	1.28
292.565	1.28
292.942	1.28
293.318	1.33
293.694	1.4
294.07	1.33
294.446	1.33
294.822	1.49
295.197	1.47
295.573	1.47
295.949	1.44
296.325	1.45
296.701	1.53
297.076	1.52
297.452	1.47
297.828	1.52
298.203	1.54
298.579	1.36
298.954	1.35
299.33	1.32
299.705	1.31
300.081	1.31
300.456	1.4
300.831	1.31
301.206	1.25
301.582	1.25
301.957	1.28
302.332	1.32
302.707	1.21
303.082	1.22
303.457	1.18
303.832	1.14
304.207	1.12
304.582	1.11
304.957	1.14
305.332	1.09
305.707	1.05
306.082	1.05
306.456	1.1
306.831	1.02
307.206	1.02
307.58	1.05
307.955	0.97
308.33	0.97
308.704	0.96
309.079	0.92
309.453	0.97
309.828	0.93
310.202	0.95
310.576	0.88
310.951	0.92
311.325	0.87
311.699	0.87
312.073	0.85
312.447	0.86
312.821	0.84
313.196	0.83
313.57	0.83
313.944	0.8
314.317	0.8
314.691	0.82
315.065	0.8
315.439	0.77
315.813	0.79
316.187	0.77
316.56	0.79
316.934	0.77
317.308	0.76
317.681	0.76
318.055	0.76
318.428	0.75
318.802	0.77
319.175	0.77
319.549	0.72
319.922	0.74
320.295	0.73
320.669	0.76
321.042	0.75
321.415	0.76
321.788	0.72
322.162	0.7
322.535	0.72
322.908	0.72
323.281	0.72
323.654	0.75
324.027	0.69
324.4	0.73
324.773	0.74
325.145	0.74
325.518	0.74
325.891	0.72
326.264	0.72
326.636	0.7
327.009	0.74
327.382	0.75
327.754	0.76
328.127	0.72
328.499	0.74
328.872	0.76
329.244	0.75
329.616	0.74
329.989	0.75
330.361	0.75
330.733	0.76
331.106	0.74
331.478	0.78
331.85	0.77
332.222	0.8
332.594	0.8
332.966	0.78
333.338	0.84
333.71	0.81
334.082	0.84
334.454	0.84
334.826	0.84
335.197	0.9
335.569	0.85
335.941	0.83
336.312	0.85
336.684	0.84
337.056	0.87
337.427	0.93
337.799	0.93
338.17	0.92
338.542	0.92
338.913	0.91
339.284	0.92
339.656	0.91
340.027	0.93
340.398	0.95
340.769	0.92
341.141	0.99
341.512	0.95
341.883	0.97
342.254	1
342.625	0.99
342.996	1.02
343.367	0.99
343.738	1.06
344.108	1.01
344.479	1.04
344.85	1.01
345.221	1.12
345.591	1.01
345.962	1.01
346.333	1.06
346.703	1.02
347.074	1.11
347.444	1.06
347.815	1.1
348.185	1.16
348.556	1.22
348.926	1.13
349.296	1.17
349.666	1.18
350.037	1.12
350.407	1.14
350.777	1.16
351.147	1.18
351.517	1.23
351.887	1.27
352.257	1.21
352.627	1.2
352.997	1.23
353.367	1.25
353.737	1.37
354.106	1.3
354.476	1.31
354.846	1.41
355.216	1.36
355.585	1.42
355.955	1.45
356.324	1.48
356.694	1.4
357.063	1.43
357.433	1.4
357.802	1.4
358.171	1.46
358.541	1.4
358.91	1.49
359.279	1.51
359.648	1.43
360.017	1.57
360.387	1.52
360.756	1.51
361.125	1.57
361.494	1.75
361.863	1.57
362.231	1.48
362.6	1.57
362.969	1.48
363.338	1.54
363.707	1.58
364.075	1.76
364.444	1.44
364.813	1.44
365.181	1.47
365.55	1.53
365.918	1.65
366.287	1.57
366.655	1.53
367.024	1.52
367.392	1.69
367.76	1.47
368.128	1.63
368.497	1.51
368.865	1.58
369.233	1.63
369.601	1.54
369.969	1.48
370.337	1.67
370.705	1.6
371.073	1.62
371.441	1.46
371.809	1.47
372.177	1.45
372.544	1.5
372.912	1.76
373.28	1.55
373.647	1.56
374.015	1.65
374.383	1.7
374.75	1.82
375.118	1.53
375.485	1.66
375.853	1.63
376.22	1.51
376.587	1.59
376.955	1.68
377.322	1.79
377.689	1.56
378.056	1.6
378.423	1.54
378.79	1.54
379.157	1.53
379.524	1.84
379.891	1.39
380.258	1.58
380.625	1.6
380.992	1.53
381.359	1.6
381.726	1.72
382.092	1.61
382.459	1.53
382.826	1.55
383.192	1.63
383.559	1.62
383.925	1.62
384.292	1.42
384.658	1.63
385.025	1.68
385.391	1.89
385.757	1.61
386.123	1.54
386.49	1.48
386.856	1.64
387.222	1.67
387.588	1.56
387.954	1.64
388.32	1.74
388.686	1.62
389.052	1.6
389.418	1.67
389.784	1.49
390.15	1.74
390.515	1.48
390.881	1.76
391.247	1.52
391.613	1.66
391.978	1.49
392.344	1.85
392.709	1.68
393.075	1.6
393.44	1.65
393.806	1.62
394.171	1.47
394.536	1.61
394.902	1.65
395.267	1.51
395.632	1.55
395.997	1.47
396.362	1.4
396.727	1.59
397.092	1.41
397.457	1.59
397.822	1.68
398.187	1.7
398.552	1.66
398.917	1.79
399.282	1.49
399.646	1.6
400.011	1.81
400.376	1.54
400.74	1.64
401.105	1.49
401.47	1.64
401.834	1.54
402.199	1.59
402.563	1.6
402.927	1.55
403.292	1.69
403.656	1.7
404.02	1.62
404.384	1.81
404.749	1.63
405.113	1.58
405.477	1.7
405.841	1.58
406.205	1.62
406.569	1.51
406.933	1.49
407.296	1.53
407.66	1.56
408.024	1.49
408.388	1.65
408.752	1.59
409.115	1.72
409.479	1.83
409.842	1.58
410.206	1.53
410.569	1.54
410.933	1.6
411.296	1.54
411.66	1.54
412.023	1.42
412.386	1.55
412.749	1.47
413.113	1.59
413.476	1.48
413.839	1.52
414.202	1.74
414.565	1.45
414.928	1.41
415.291	1.42
415.654	1.48
416.017	1.48
416.38	1.41
416.742	1.42
417.105	1.51
417.468	1.46
417.83	1.55
418.193	1.61
418.556	1.56
418.918	1.54
419.281	1.46
419.643	1.56
420.005	1.61
420.368	1.57
420.73	1.51
421.092	1.61
421.455	1.57
421.817	1.51
422.179	1.49
422.541	1.57
422.903	1.64
423.265	1.61
423.627	1.55
423.989	1.54
424.351	1.51
424.713	1.59
425.075	1.43
425.436	1.49
425.798	1.52
426.16	1.58
426.521	1.51
426.883	1.6
427.245	1.58
427.606	1.4
427.967	1.4
428.329	1.45
428.69	1.62
429.052	1.57
429.413	1.5
429.774	1.68
430.135	1.64
430.497	1.62
430.858	1.53
431.219	1.57
431.58	1.49
431.941	1.49
432.302	1.45
432.663	1.48
433.024	1.59
433.384	1.57
433.745	1.45
434.106	1.62
434.467	1.52
434.827	1.42
435.188	1.49
435.548	1.68
435.909	1.53
436.269	1.61
436.63	1.48
436.99	1.64
437.351	1.44
437.711	1.55
438.071	1.52
438.431	1.52
438.792	1.56
439.152	1.44
439.512	1.43
439.872	1.48
440.232	1.6
440.592	1.52
440.952	1.57
441.312	1.42
441.671	1.41
442.031	1.51
442.391	1.45
442.751	1.47
443.11	1.43
443.47	1.37
443.83	1.36
444.189	1.43
444.549	1.36
444.908	1.39
445.267	1.39
445.627	1.37
445.986	1.44
446.345	1.35
446.705	1.35
447.064	1.35
447.423	1.35
447.782	1.37
448.141	1.33
448.5	1.28
448.859	1.34
449.218	1.36
449.577	1.37
449.936	1.32
450.295	1.33
450.653	1.31
451.012	1.31
451.371	1.27
451.729	1.28
452.088	1.3
452.447	1.25
452.805	1.27
453.163	1.3
453.522	1.26
453.88	1.22
454.239	1.24
454.597	1.19
454.955	1.17
455.313	1.17
455.671	1.2
456.029	1.19
456.388	1.11
456.746	1.12
457.104	1.15
457.461	1.11
457.819	1.13
458.177	1.07
458.535	1.08
458.893	1.06
459.25	1.05
459.608	1.05
459.966	1.01
460.323	1
460.681	1
461.038	0.98
461.396	0.98
461.753	0.95
462.111	0.95
462.468	0.92
462.825	0.9
463.182	0.9
463.54	0.9
463.897	0.9
464.254	0.89
464.611	0.87
464.968	0.85
465.325	0.86
465.682	0.82
466.039	0.81
466.395	0.8
466.752	0.78
467.109	0.78
467.466	0.77
467.822	0.77
468.179	0.73
468.535	0.71
468.892	0.71
469.248	0.7
469.605	0.68
469.961	0.68
470.318	0.69
470.674	0.67
471.03	0.65
471.386	0.65
471.743	0.63
472.099	0.61
472.455	0.61
472.811	0.59
473.167	0.58
473.523	0.57
473.879	0.56
474.235	0.56
474.59	0.54
474.946	0.54
475.302	0.52
475.657	0.52
476.013	0.51
476.369	0.49
476.724	0.5
477.08	0.49
477.435	0.47
477.791	0.47
478.146	0.46
478.501	0.45
478.857	0.46
479.212	0.44
479.567	0.43
479.922	0.4
480.277	0.41
480.632	0.4
480.987	0.39
481.342	0.39
481.697	0.37
482.052	0.37
482.407	0.36
482.762	0.36
483.116	0.35
483.471	0.34
483.826	0.32
484.18	0.32
484.535	0.32
484.89	0.31
485.244	0.31
485.598	0.3
485.953	0.3
486.307	0.3
486.661	0.29
487.016	0.27
487.37	0.28
487.724	0.27
488.078	0.27
488.432	0.26
488.786	0.25
489.14	0.25
489.494	0.24
489.848	0.24
490.202	0.23
490.556	0.23
490.91	0.23
491.263	0.22
491.617	0.22
491.971	0.22
492.324	0.21
492.678	0.21
493.031	0.21
493.385	0.2
493.738	0.19
494.091	0.19
494.445	0.19
494.798	0.18
495.151	0.18
495.504	0.18
495.857	0.17
496.21	0.17
496.564	0.17
496.916	0.18
497.269	0.17
497.622	0.18
497.975	0.16
498.328	0.16
498.681	0.15
499.033	0.15
499.386	0.15
499.739	0.14
500.091	0.14
500.444	0.14
500.796	0.14
501.149	0.14
501.501	0.14
501.854	0.14
502.206	0.14
502.558	0.13
502.91	0.14
503.263	0.13
503.615	0.13
503.967	0.13
504.319	0.13
504.671	0.12
505.023	0.12
505.375	0.11
505.726	0.11
506.078	0.11
506.43	0.11
506.782	0.11
507.133	0.11
507.485	0.1
507.837	0.12
508.188	0.11
508.54	0.1
508.891	0.11
509.243	0.1
509.594	0.1
509.945	0.1
510.296	0.1
510.648	0.1
510.999	0.09
511.35	0.1
511.701	0.1
512.052	0.09
512.403	0.1
512.754	0.09
513.105	0.09
513.456	0.09
513.807	0.08
514.157	0.09
514.508	0.08
514.859	0.07
515.209	0.08
515.56	0.08
515.91	0.07
516.261	0.08
516.611	0.07
516.962	0.08
517.312	0.08
517.662	0.08
518.013	0.08
518.363	0.08
518.713	0.08
519.063	0.08
519.413	0.08
519.763	0.07
520.113	0.07
520.463	0.08
520.813	0.08
521.163	0.08
521.512	0.08
521.862	0.08
522.212	0.08
522.562	0.08
522.911	0.07
523.261	0.07
523.61	0.07
523.96	0.07
524.309	0.07
524.658	0.08
525.008	0.06
525.357	0.07
525.706	0.07
526.056	0.07
526.405	0.07
526.754	0.07
527.103	0.07
527.452	0.07
527.801	0.08
528.15	0.07
528.499	0.07
528.847	0.07
529.196	0.07
529.545	0.08
529.893	0.08
530.242	0.08
530.591	0.08
530.939	0.08
531.288	0.08
531.636	0.08
531.985	0.07
532.333	0.07
532.681	0.07
533.029	0.07
533.378	0.07
533.726	0.07
534.074	0.07
534.422	0.06
534.77	0.07
535.118	0.06
535.466	0.07
535.814	0.06
536.162	0.07
536.509	0.08
536.857	0.07
537.205	0.07
537.552	0.07
537.9	0.07
538.248	0.06
538.595	0.07
538.943	0.07
539.29	0.06
539.637	0.06
539.985	0.06
540.332	0.05
540.679	0.05
541.026	0.05
541.373	0.07
541.721	0.05
542.068	0.05
542.415	0.06
542.762	0.06
543.108	0.05
543.455	0.04
543.802	0.05
544.149	0.06
544.496	0.05
544.842	0.05
545.189	0.05
545.535	0.05
545.882	0.06
546.228	0.05
546.575	0.05
546.921	0.05
547.267	0.05
547.614	0.05
547.96	0.05
548.306	0.06
548.652	0.05
548.998	0.06
549.344	0.05
549.69	0.06
550.036	0.06
550.382	0.06
550.728	0.05
551.074	0.06
551.42	0.06
551.765	0.06
552.111	0.06
552.457	0.07
552.802	0.06
553.148	0.06
553.493	0.06
553.839	0.06
554.184	0.06
554.529	0.06
554.875	0.06
555.22	0.06
555.565	0.06
555.91	0.06
556.255	0.07
556.6	0.06
556.945	0.05
557.29	0.06
557.635	0.07
557.98	0.05
558.325	0.06
558.67	0.06
559.014	0.06
559.359	0.05
559.704	0.06
560.048	0.05
560.393	0.05
560.737	0.04
561.082	0.05
561.426	0.04
561.77	0.04
562.115	0.05
562.459	0.05
562.803	0.05
563.147	0.05
563.491	0.05
563.835	0.05
564.179	0.05
564.523	0.05
564.867	0.05
565.211	0.06
565.555	0.06
565.899	0.06
566.242	0.05
566.586	0.05
566.93	0.05
567.273	0.06
567.617	0.05
567.96	0.06
568.304	0.06
568.647	0.05
568.99	0.06
569.334	0.06
569.677	0.06
570.02	0.06
570.363	0.06
570.706	0.05
571.049	0.05
571.392	0.06
571.735	0.05
572.078	0.06
572.421	0.07
572.764	0.06
573.106	0.05
573.449	0.05
573.792	0.06
574.134	0.06
574.477	0.06
574.819	0.05
575.162	0.06
575.504	0.06
575.847	0.05
576.189	0.05
576.531	0.05
576.873	0.05
577.215	0.05
577.558	0.05
577.9	0.05
578.242	0.05
578.584	0.05
578.926	0.04
579.267	0.05
579.609	0.05
579.951	0.05
580.293	0.05
580.634	0.05
580.976	0.05
581.318	0.05
581.659	0.04
582.001	0.04
582.342	0.04
582.683	0.05
583.025	0.05
583.366	0.05
583.707	0.05
584.049	0.05
584.39	0.05
584.731	0.05
585.072	0.05
585.413	0.05
585.754	0.05
586.095	0.05
586.435	0.05
586.776	0.05
587.117	0.05
587.458	0.05
587.798	0.05
588.139	0.05
588.48	0.04
588.82	0.04
589.161	0.04
589.501	0.04
589.841	0.05
590.182	0.05
590.522	0.04
590.862	0.05
591.202	0.04
591.542	0.04
591.882	0.04
592.222	0.04
592.562	0.05
592.902	0.04
593.242	0.04
593.582	0.05
593.922	0.05
594.261	0.04
594.601	0.05
594.941	0.05
595.28	0.05
595.62	0.05
595.959	0.04
596.299	0.04
596.638	0.05
596.977	0.05
597.317	0.05
597.656	0.05
597.995	0.04
598.334	0.05
598.673	0.05
599.012	0.04
599.351	0.05
599.69	0.04
600.029	0.05
600.368	0.04
600.707	0.05
601.046	0.05
601.384	0.05
601.723	0.05
602.061	0.04
602.4	0.05
602.738	0.05
603.077	0.04
603.415	0.04
603.754	0.05
604.092	0.05
604.43	0.04
604.768	0.05
605.107	0.05
605.445	0.04
605.783	0.04
606.121	0.04
606.459	0.05
606.796	0.05
607.134	0.04
607.472	0.04
607.81	0.04
608.148	0.05
608.485	0.05
608.823	0.04
609.16	0.04
609.498	0.05
609.835	0.05
610.173	0.05
610.51	0.05
610.847	0.05
611.185	0.05
611.522	0.05
611.859	0.05
612.196	0.05
612.533	0.06
612.87	0.06
613.207	0.06
613.544	0.06
613.881	0.07
614.217	0.06
614.554	0.06
614.891	0.06
615.228	0.06
615.564	0.06
615.901	0.06
616.237	0.06
616.574	0.06
616.91	0.07
617.246	0.06
617.583	0.06
617.919	0.06
618.255	0.06
618.591	0.06
618.927	0.06
619.263	0.06
619.599	0.06
619.935	0.06
620.271	0.06
620.607	0.06
620.943	0.06
621.279	0.06
621.614	0.06
621.95	0.06
622.286	0.05
622.621	0.05
622.957	0.05
623.292	0.05
623.627	0.05
623.963	0.05
624.298	0.05
624.633	0.05
624.968	0.05
625.304	0.05
625.639	0.05
625.974	0.04
626.309	0.05
626.644	0.05
626.979	0.05
627.313	0.05
627.648	0.05
627.983	0.05
628.318	0.05
628.652	0.04
628.987	0.05
629.321	0.05
629.656	0.05
629.99	0.04
630.325	0.06
630.659	0.05
630.993	0.05
631.327	0.05
631.662	0.04
631.996	0.05
632.33	0.05
632.664	0.05
632.998	0.05
633.332	0.04
633.666	0.04
633.999	0.04
634.333	0.04
634.667	0.04
635.001	0.04
635.334	0.04
635.668	0.04
636.001	0.03
636.335	0.04
636.668	0.04
637.001	0.03
637.335	0.04
637.668	0.04
638.001	0.04
638.334	0.04
638.668	0.04
639.001	0.04
639.334	0.04
639.667	0.04
639.999	0.04
640.332	0.04
640.665	0.03
640.998	0.04
641.331	0.05
641.663	0.04
641.996	0.04
642.328	0.04
642.661	0.04
642.993	0.04
643.326	0.04
643.658	0.04
643.99	0.04
644.323	0.04
644.655	0.05
644.987	0.04
645.319	0.05
645.651	0.05
645.983	0.04
646.315	0.04
646.647	0.04
646.979	0.05
647.31	0.05
647.642	0.05
647.974	0.05
648.305	0.06
648.637	0.06
648.968	0.06
649.3	0.06
649.631	0.06
649.963	0.05
650.294	0.05
650.625	0.05
650.957	0.05
651.288	0.05
651.619	0.05
651.95	0.05
652.281	0.05
652.612	0.05
652.943	0.05
653.274	0.05
653.604	0.04
653.935	0.05
654.266	0.04
654.596	0.05
654.927	0.05
655.258	0.05
655.588	0.06
655.918	0.05
656.249	0.03
656.579	0.04
656.909	0.05
657.24	0.05
657.57	0.05
657.9	0.05
658.23	0.05
658.56	0.06
658.89	0.05
659.22	0.05
659.55	0.06
659.88	0.05
660.209	0.05
660.539	0.06
660.869	0.06
661.198	0.05
661.528	0.05
661.857	0.05
662.187	0.05
662.516	0.05
662.846	0.04
663.175	0.05
663.504	0.05
663.833	0.05
664.163	0.05
664.492	0.05
664.821	0.05
665.15	0.05
665.479	0.05
665.807	0.05
666.136	0.05
666.465	0.04
666.794	0.05
667.122	0.04
667.451	0.05
667.78	0.05
668.108	0.05
668.437	0.05
668.765	0.04
669.093	0.05
669.422	0.04
669.75	0.05
670.078	0.05
670.406	0.05
670.734	0.05
671.062	0.05
671.39	0.05
671.718	0.05
672.046	0.05
672.374	0.05
672.702	0.05
673.029	0.05
673.357	0.05
673.685	0.05
674.012	0.05
674.34	0.05
674.667	0.05
674.995	0.05
675.322	0.05
675.649	0.05
675.977	0.05
676.304	0.04
676.631	0.04
676.958	0.04
677.285	0.04
677.612	0.04
677.939	0.04
678.266	0.04
678.593	0.04
678.92	0.04
679.246	0.03
679.573	0.03
679.9	0.04
680.226	0.04
680.553	0.03
680.879	0.04
681.206	0.04
681.532	0.03
681.858	0.04
682.184	0.04
682.511	0.04
682.837	0.04
683.163	0.04
683.489	0.04
683.815	0.03
684.141	0.04
684.467	0.04
684.793	0.04
685.118	0.04
685.444	0.04
685.77	0.04
686.095	0.04
686.421	0.04
686.746	0.04
687.072	0.04
687.397	0.04
687.723	0.05
688.048	0.04
688.373	0.04
688.698	0.04
689.023	0.04
689.349	0.04
689.674	0.04
689.999	0.04
690.323	0.03
690.648	0.03
690.973	0.03
691.298	0.03
691.623	0.03
691.947	0.04
692.272	0.03
692.596	0.03
692.921	0.03
693.245	0.03
693.57	0.03
693.894	0.03
694.218	0.03
694.543	0.03
694.867	0.03
695.191	0.03
695.515	0.04
695.839	0.02
696.163	0.03
696.487	0.03
696.811	0.03
697.135	0.03
697.458	0.04
697.782	0.03
698.106	0.04
698.429	0.04
698.753	0.04
699.076	0.04
699.4	0.03
699.723	0.04
700.046	0.03
700.37	0.04
700.693	0.04
701.016	0.04
701.339	0.04
701.662	0.05
701.985	0.04
702.308	0.04
702.631	0.04
702.954	0.04
703.277	0.04
703.599	0.04
703.922	0.04
704.245	0.03
704.567	0.03
704.89	0.03
705.212	0.04
705.535	0.04
705.857	0.03
706.179	0.03
706.502	0.03
706.824	0.02
707.146	0.03
707.468	0.04
707.79	0.03
708.112	0.03
708.434	0.04
708.756	0.03
709.078	0.03
709.399	0.02
709.721	0.03
710.043	0.03
710.364	0.03
710.686	0.03
711.007	0.03
711.329	0.04
711.65	0.03
711.972	0.03
712.293	0.04
712.614	0.04
712.935	0.04
713.256	0.03
713.577	0.04
713.898	0.04
714.219	0.03
714.54	0.03
714.861	0.03
715.182	0.03
715.503	0.03
715.823	0.03
716.144	0.03
716.464	0.02
716.785	0.02
717.105	0.03
717.426	0.04
717.746	0.03
718.066	0.03
718.387	0.02
718.707	0.02
719.027	0.03
719.347	0.02
719.667	0.03
719.987	0.02
720.307	0.03
720.627	0.02
720.947	0.02
721.266	0.02
721.586	0.02
721.906	0.02
722.225	0.02
722.545	0.02
722.864	0.02
723.184	0.02
723.503	0.02
723.823	0.02
724.142	0.02
724.461	0.02
724.78	0.02
725.099	0.02
725.418	0.02
725.737	0.01
726.056	0.03
726.375	0.02
726.694	0.03
727.013	0.03
727.331	0.02
727.65	0.02
727.969	0.02
728.287	0.02
728.606	0.02
728.924	0.02
729.242	0.03
729.561	0.02
729.879	0.03
730.197	0.02
730.515	0.01
730.834	0.02
731.152	0.02
731.47	0.02
731.788	0.02
732.105	0.02
732.423	0.02
732.741	0.01
733.059	0.02
733.376	0.02
733.694	0.01
734.012	0.01
734.329	0.02
734.647	0.02
734.964	0.02
735.281	0.02
735.599	0.03
735.916	0.03
736.233	0.02
736.55	0.03
736.867	0.03
737.184	0.04
737.501	0.02
737.818	0.03
738.135	0.03
738.452	0.03
738.768	0.03
739.085	0.03
739.402	0.02
739.718	0.03
740.035	0.03
740.351	0.03
740.668	0.03
740.984	0.03
741.3	0.02
741.617	0.03
741.933	0.03
742.249	0.03
742.565	0.03
742.881	0.03
743.197	0.04
743.513	0.03
743.829	0.02
744.144	0.03
744.46	0.03
744.776	0.04
745.091	0.02
745.407	0.03
745.722	0.03
746.038	0.03
746.353	0.02
746.669	0.03
746.984	0.02
747.299	0.03
747.614	0.03
747.93	0.03
748.245	0.02
748.56	0.03
748.875	0.02
749.189	0.02
749.504	0.03
749.819	0.03
750.134	0.02
750.448	0.03
750.763	0.03
751.078	0.02
751.392	0.03
751.707	0.04
752.021	0.04
752.335	0.04
752.65	0.04
752.964	0.03
753.278	0.03
753.592	0.04
753.906	0.03
754.22	0.04
754.534	0.04
754.848	0.04
755.162	0.03
755.476	0.03
755.789	0.04
756.103	0.03
756.417	0.04
756.73	0.04
757.044	0.04
757.357	0.03
757.671	0.03
757.984	0.03
758.297	0.04
758.61	0.04
758.924	0.03
759.237	0.03
759.55	0.03
759.863	0.04
760.176	0.03
760.488	0.04
760.801	0.03
761.114	0.03
761.427	0.03
761.739	0.04
762.052	0.03
762.365	0.03
762.677	0.03
762.99	0.02
763.302	0.03
763.614	0.03
763.926	0.04
764.239	0.03
764.551	0.02
764.863	0.03
765.175	0.04
765.487	0.03
765.799	0.02
766.111	0.02
766.423	0.03
766.734	0.03
767.046	0.02
767.358	0.02
767.669	0.02
767.981	0.02
768.292	0.02
768.604	0.02
768.915	0.03
769.226	0.02
769.537	0.02
769.849	0.03
770.16	0.02
770.471	0.02
770.782	0.02
771.093	0.02
771.404	0.01
771.715	0.01
772.025	0.02
772.336	0.02
772.647	0.02
772.957	0.02
773.268	0.01
773.578	0.02
773.889	0.02
774.199	0.02
774.51	0.02
774.82	0.01
775.13	0.02
775.44	0.02
775.75	0.02
776.06	0.02
776.37	0.02
776.68	0.03
776.99	0.02
777.3	0.03
777.61	0.03
777.92	0.02
778.229	0.03
778.539	0.02
778.848	0.02
779.158	0.03
779.467	0.03
779.777	0.02
780.086	0.03
780.395	0.03
780.704	0.02
781.013	0.01
781.323	0.02
781.632	0.03
781.941	0.02
782.249	0.02
782.558	0.02
782.867	0.02
783.176	0.01
783.485	0.02
783.793	0.02
784.102	0.02
784.41	0.02
784.719	0.01
785.027	0.02
785.335	0.02
785.644	0.02
785.952	0.02
786.26	0.03
786.568	0.01
786.876	0.02
787.184	0.02
787.492	0.03
787.8	0.02
788.108	0.03
788.416	0.02
788.723	0.02
789.031	0.01
789.338	0.02
789.646	0.02
789.953	0.03
790.261	0.03
790.568	0.02
790.876	0.02
791.183	0.03
791.49	0.02
791.797	0.02
792.104	0.02
792.411	0.03
792.718	0.02
793.025	0.02
793.332	0.02
793.639	0.04
793.945	0.04
794.252	0.03
794.559	0.03
794.865	0.04
795.172	0.03
795.478	0.03
795.784	0.03
796.091	0.03
796.397	0.03
796.703	0.03
797.009	0.04
797.315	0.03
797.622	0.04
797.927	0.03
798.233	0.03
798.539	0.03
798.845	0.03
799.151	0.03
799.456	0.03
799.762	0.03
800.068	0.02
800.373	0.03
800.679	0.02
800.984	0.02
801.289	0.02
801.595	0.03
801.9	0.02
802.205	0.02
802.51	0.02
802.815	0.03
803.12	0.03
803.425	0.02
803.73	0.02
804.035	0.02
804.339	0.01
804.644	0.02
804.949	0.03
805.253	0.02
805.558	0.03
805.862	0.02
806.167	0.02
806.471	0.02
806.775	0.02
807.08	0.03
807.384	0.03
807.688	0.03
807.992	0.03
808.296	0.03
808.6	0.03
808.904	0.04
809.207	0.03
809.511	0.04
809.815	0.04
810.119	0.03
810.422	0.04
810.726	0.04
811.029	0.04
811.332	0.04
811.636	0.04
811.939	0.03
812.242	0.03
812.546	0.04
812.849	0.04
813.152	0.04
813.455	0.04
813.758	0.04
814.06	0.04
814.363	0.04
814.666	0.04
814.969	0.03
815.271	0.04
815.574	0.03
815.877	0.03
816.179	0.04
816.481	0.03
816.784	0.03
817.086	0.03
817.388	0.02
817.69	0.02
817.993	0.02
818.295	0.03
818.597	0.02
818.899	0.02
819.2	0.01
819.502	0.02
819.804	0.03
820.106	0.02
820.407	0.03
820.709	0.03
821.01	0.03
821.312	0.03
821.613	0.02
821.915	0.03
822.216	0.02
822.517	0.01
822.818	0.02
823.119	0.02
823.42	0.02
823.721	0.01
824.022	0.02
824.323	0.02
824.624	0.02
824.925	0.02
825.226	0.03
825.526	0.02
825.827	0.02
826.127	0.02
826.428	0.03
826.728	0.02
827.028	0.02
827.329	0.01
827.629	0.01
827.929	0.02
828.229	0.02
828.529	0.02
828.829	0.02
829.129	0.02
829.429	0.02
829.729	0.01
830.029	0.01
830.328	0.02
830.628	0.01
830.927	0
831.227	0.01
831.526	0.02
831.826	0.01
832.125	0.01
832.424	0.01
832.724	0.01
833.023	0.01
833.322	0.02
833.621	0.01
833.92	0
834.219	0
834.518	0.01
834.816	0.01
835.115	0
835.414	0.01
835.712	0.01
836.011	0
836.309	0.01
836.608	-0
836.906	-0
837.205	0
837.503	-0
837.801	-0.01
838.099	-0.01
838.397	-0.02
838.695	-0.02
838.993	-0.02
839.291	-0.03
839.589	-0.02
839.887	-0.02
840.184	-0.03
840.482	-0.04
840.78	-0.03
841.077	-0.04
841.375	-0.04
841.672	-0.04
841.969	-0.05
842.267	-0.05
842.564	-0.05
842.861	-0.04
843.158	-0.05
843.455	-0.07
843.752	-0.05
844.049	-0.06
844.346	-0.05
844.643	-0.05
844.94	-0.06
845.236	-0.04
845.533	-0.05
845.83	-0.05
846.126	-0.06
846.423	-0.06
846.719	-0.07
847.015	-0.05
847.312	-0.06
847.608	-0.06
847.904	-0.06
848.2	-0.07
848.496	-0.06
848.792	-0.06
849.088	-0.04
849.384	-0.06
849.68	-0.07
849.975	-0.07
850.271	-0.07
850.567	-0.08
850.862	-0.08
851.158	-0.08
851.453	-0.07
851.748	-0.07
852.044	-0.08
852.339	-0.09
852.634	-0.1
852.929	-0.08
853.224	-0.09
853.519	-0.1
853.814	-0.09
854.109	-0.1
854.404	-0.1
854.699	-0.11
854.994	-0.1
855.288	-0.09
855.583	-0.1
855.877	-0.1
856.172	-0.1
856.466	-0.11
856.76	-0.11
857.055	-0.11
857.349	-0.11
857.643	-0.11
857.937	-0.13
858.231	-0.12
858.525	-0.12
858.819	-0.12
859.113	-0.14
859.407	-0.13
859.701	-0.13
859.994	-0.14
860.288	-0.12
860.581	-0.13
860.875	-0.13
861.168	-0.13
861.462	-0.14
861.755	-0.13
862.048	-0.14
862.341	-0.13
862.634	-0.13
862.928	-0.13
863.221	-0.14
863.513	-0.15
863.806	-0.14
864.099	-0.15
864.392	-0.14
864.685	-0.13
864.977	-0.14
865.27	-0.15
865.562	-0.14
865.855	-0.13
866.147	-0.14
866.44	-0.14
866.732	-0.13
867.024	-0.15
867.316	-0.14
867.608	-0.14
867.9	-0.15
868.192	-0.15
868.484	-0.15
868.776	-0.16
869.068	-0.15
869.359	-0.15
869.651	-0.14
869.943	-0.16
870.234	-0.15
870.526	-0.16
870.817	-0.16
871.108	-0.15
871.4	-0.15
871.691	-0.16
871.982	-0.17
872.273	-0.16
872.564	-0.17
872.855	-0.17
873.146	-0.16
873.437	-0.16
873.728	-0.18
874.019	-0.16
874.309	-0.17
874.6	-0.17
874.89	-0.18
875.181	-0.17
875.471	-0.17
875.762	-0.16
876.052	-0.17
876.342	-0.15
876.632	-0.17
876.922	-0.17
877.213	-0.17
877.503	-0.18
877.792	-0.17
878.082	-0.17
878.372	-0.16
878.662	-0.18
878.952	-0.18
879.241	-0.17
879.531	-0.17
879.82	-0.16
880.11	-0.18
880.399	-0.18
880.688	-0.16
880.978	-0.16
881.267	-0.16
