Data from 12-12-AQDScycling_Absorbance__251__00251.txt Node

Date: Tue Dec 12 12:01:59 EST 2023
User: kyuminlee
Spectrometer: FLMS00943
Trigger mode: 0
Integration Time (sec): 1.000000E-1
Scans to average: 1
Electric dark correction enabled: true
Nonlinearity correction enabled: false
Boxcar width: 0
XAxis mode: Wavelengths
Number of Pixels in Spectrum: 2048
>>>>>Begin Spectral Data<<<<<
179.651	0.63
180.037	0.63
180.424	0.63
180.81	-0.31
181.197	0.04
181.583	-0.2
181.97	-0.43
182.356	-0
182.743	-1.16
183.129	-0
183.515	-0
183.901	-2.18
184.288	0.37
184.674	-0
185.06	-0
185.446	0.03
185.832	-0
186.218	-0.01
186.604	-0
186.99	-0
187.376	0.46
187.762	-0
188.148	-0
188.534	0.05
188.92	0.24
189.305	0.01
189.691	0.11
190.077	0.28
190.463	0.21
190.848	0.13
191.234	0.28
191.619	0.11
192.005	-0.01
192.391	0.2
192.776	0.24
193.161	0.07
193.547	0.19
193.932	-0.01
194.318	0.06
194.703	0.1
195.088	0.51
195.473	0.2
195.859	0.1
196.244	0.21
196.629	0.01
197.014	0.14
197.399	0.21
197.784	0.16
198.169	0.04
198.554	0.22
198.939	0.09
199.324	0.17
199.709	0.07
200.094	0.09
200.478	0.18
200.863	0.15
201.248	0.39
201.633	0.11
202.017	0.15
202.402	0.14
202.787	0.09
203.171	0.2
203.556	0.23
203.94	0.26
204.325	0.23
204.709	0.18
205.093	0.13
205.478	0.15
205.862	0.22
206.246	0.09
206.631	0.34
207.015	0.12
207.399	0.26
207.783	0.08
208.167	0.09
208.551	0.18
208.935	0.13
209.319	0.09
209.703	0.35
210.087	0.34
210.471	0.08
210.855	0.13
211.239	0.26
211.623	0.29
212.007	0.21
212.39	0.37
212.774	0.06
213.158	0.13
213.541	0.33
213.925	0.26
214.309	0.33
214.692	0.28
215.076	0.27
215.459	0.11
215.842	0.09
216.226	0.33
216.609	0.35
216.993	0.26
217.376	0.39
217.759	0.16
218.142	0.27
218.525	0.5
218.909	0.46
219.292	0.32
219.675	0.42
220.058	0.54
220.441	0.4
220.824	0.4
221.207	0.54
221.59	0.49
221.973	0.44
222.355	0.62
222.738	0.56
223.121	0.65
223.504	0.55
223.886	0.66
224.269	0.6
224.652	0.64
225.034	0.71
225.417	0.66
225.799	0.75
226.182	0.8
226.564	0.84
226.947	0.81
227.329	0.92
227.711	1
228.094	0.85
228.476	0.88
228.858	0.77
229.24	0.93
229.623	0.93
230.005	0.75
230.387	0.95
230.769	0.76
231.151	1.07
231.533	0.91
231.915	1.05
232.297	0.89
232.679	0.99
233.061	0.95
233.442	1.06
233.824	0.9
234.206	1.17
234.588	1
234.969	0.95
235.351	1.08
235.733	1.05
236.114	1.22
236.496	1.04
236.877	1.14
237.259	1.04
237.64	1
238.022	1.03
238.403	1.05
238.784	1.14
239.165	0.9
239.547	1.11
239.928	1.16
240.309	1.11
240.69	0.98
241.071	1.09
241.452	1.1
241.834	1.01
242.215	0.99
242.595	1.1
242.976	1.09
243.357	1.13
243.738	1.09
244.119	1.2
244.5	1
244.881	1.18
245.261	1.25
245.642	1.09
246.023	1.04
246.403	1.16
246.784	1.28
247.164	1.2
247.545	1.25
247.925	1.26
248.306	1.19
248.686	1.35
249.067	1.28
249.447	1.4
249.827	1.42
250.207	1.66
250.588	1.27
250.968	1.39
251.348	1.24
251.728	1.45
252.108	1.4
252.488	1.39
252.868	1.37
253.248	1.42
253.628	1.27
254.008	1.42
254.388	1.38
254.768	1.29
255.147	1.31
255.527	1.43
255.907	1.32
256.287	1.23
256.666	1.28
257.046	1.44
257.425	1.53
257.805	1.34
258.184	1.33
258.564	1.43
258.943	1.45
259.323	1.54
259.702	1.49
260.081	1.35
260.461	1.59
260.84	1.54
261.219	1.46
261.598	1.5
261.977	1.5
262.356	1.51
262.736	1.33
263.115	1.48
263.494	1.43
263.873	1.37
264.251	1.39
264.63	1.5
265.009	1.46
265.388	1.43
265.767	1.37
266.145	1.48
266.524	1.37
266.903	1.54
267.281	1.34
267.66	1.53
268.039	1.4
268.417	1.38
268.796	1.47
269.174	1.39
269.552	1.37
269.931	1.5
270.309	1.39
270.687	1.57
271.066	1.44
271.444	1.51
271.822	1.57
272.2	1.38
272.578	1.42
272.956	1.44
273.334	1.29
273.712	1.4
274.09	1.36
274.468	1.42
274.846	1.29
275.224	1.41
275.602	1.42
275.98	1.5
276.357	1.38
276.735	1.33
277.113	1.34
277.49	1.4
277.868	1.3
278.246	1.36
278.623	1.22
279.001	1.31
279.378	1.29
279.756	1.37
280.133	1.52
280.51	1.41
280.888	1.43
281.265	1.32
281.642	1.44
282.019	1.57
282.396	1.42
282.773	1.46
283.151	1.52
283.528	1.41
283.905	1.38
284.282	1.47
284.659	1.63
285.035	1.31
285.412	1.27
285.789	1.41
286.166	1.42
286.543	1.44
286.919	1.41
287.296	1.38
287.673	1.67
288.049	1.41
288.426	1.54
288.802	1.44
289.179	1.33
289.555	1.55
289.932	1.49
290.308	1.28
290.684	1.44
291.061	1.34
291.437	1.41
291.813	1.4
292.189	1.3
292.565	1.32
292.942	1.26
293.318	1.38
293.694	1.46
294.07	1.35
294.446	1.31
294.822	1.52
295.197	1.38
295.573	1.5
295.949	1.54
296.325	1.55
296.701	1.57
297.076	1.59
297.452	1.49
297.828	1.54
298.203	1.54
298.579	1.49
298.954	1.36
299.33	1.4
299.705	1.6
300.081	1.48
300.456	1.57
300.831	1.35
301.206	1.41
301.582	1.43
301.957	1.4
302.332	1.71
302.707	1.38
303.082	1.5
303.457	1.46
303.832	1.47
304.207	1.5
304.582	1.49
304.957	1.49
305.332	1.52
305.707	1.48
306.082	1.54
306.456	1.55
306.831	1.41
307.206	1.37
307.58	1.52
307.955	1.46
308.33	1.4
308.704	1.44
309.079	1.41
309.453	1.58
309.828	1.5
310.202	1.43
310.576	1.46
310.951	1.56
311.325	1.59
311.699	1.5
312.073	1.41
312.447	1.49
312.821	1.5
313.196	1.58
313.57	1.34
313.944	1.39
314.317	1.45
314.691	1.54
315.065	1.4
315.439	1.67
315.813	1.51
316.187	1.37
316.56	1.59
316.934	1.43
317.308	1.44
317.681	1.47
318.055	1.49
318.428	1.44
318.802	1.61
319.175	1.39
319.549	1.46
319.922	1.31
320.295	1.42
320.669	1.73
321.042	1.48
321.415	1.72
321.788	1.65
322.162	1.46
322.535	1.59
322.908	1.44
323.281	1.48
323.654	1.75
324.027	1.41
324.4	1.59
324.773	1.49
325.145	1.54
325.518	1.43
325.891	1.49
326.264	1.42
326.636	1.4
327.009	1.47
327.382	1.42
327.754	1.63
328.127	1.52
328.499	1.54
328.872	1.48
329.244	1.53
329.616	1.39
329.989	1.39
330.361	1.47
330.733	1.41
331.106	1.44
331.478	1.55
331.85	1.35
332.222	1.34
332.594	1.4
332.966	1.54
333.338	1.83
333.71	1.47
334.082	1.56
334.454	1.52
334.826	1.41
335.197	1.56
335.569	1.5
335.941	1.41
336.312	1.5
336.684	1.54
337.056	1.52
337.427	1.5
337.799	1.59
338.17	1.54
338.542	1.46
338.913	1.52
339.284	1.67
339.656	1.49
340.027	1.58
340.398	1.46
340.769	1.51
341.141	1.83
341.512	1.54
341.883	1.61
342.254	1.52
342.625	1.59
342.996	1.57
343.367	1.43
343.738	1.61
344.108	1.54
344.479	1.5
344.85	1.44
345.221	1.76
345.591	1.35
345.962	1.38
346.333	1.51
346.703	1.34
347.074	1.4
347.444	1.25
347.815	1.42
348.185	1.47
348.556	1.35
348.926	1.42
349.296	1.25
349.666	1.29
350.037	1.3
350.407	1.22
350.777	1.35
351.147	1.33
351.517	1.4
351.887	1.22
352.257	1.44
352.627	1.32
352.997	1.38
353.367	1.34
353.737	1.51
354.106	1.5
354.476	1.31
354.846	1.37
355.216	1.34
355.585	1.33
355.955	1.31
356.324	1.29
356.694	1.31
357.063	1.33
357.433	1.31
357.802	1.32
358.171	1.31
358.541	1.23
358.91	1.28
359.279	1.31
359.648	1.21
360.017	1.19
360.387	1.24
360.756	1.19
361.125	1.23
361.494	1.23
361.863	1.1
362.231	1.17
362.6	1.12
362.969	1.18
363.338	1.09
363.707	1.15
364.075	1.18
364.444	1.03
364.813	1.05
365.181	1.07
365.55	1.1
365.918	1.08
366.287	1.09
366.655	1.14
367.024	1.04
367.392	1.09
367.76	1.01
368.128	1.05
368.497	1.01
368.865	1.07
369.233	1
369.601	0.99
369.969	1
370.337	1
370.705	1.04
371.073	0.96
371.441	1.01
371.809	0.98
372.177	0.97
372.544	0.98
372.912	0.97
373.28	0.97
373.647	1.01
374.015	0.99
374.383	0.99
374.75	1.02
375.118	0.96
375.485	0.95
375.853	0.97
376.22	0.98
376.587	0.95
376.955	0.95
377.322	0.98
377.689	0.93
378.056	0.92
378.423	0.95
378.79	0.99
379.157	0.96
379.524	0.99
379.891	0.94
380.258	1.01
380.625	0.96
380.992	0.99
381.359	0.98
381.726	1.04
382.092	0.98
382.459	0.96
382.826	1
383.192	1.01
383.559	1.04
383.925	1.03
384.292	1.01
384.658	1.05
385.025	1.01
385.391	1.06
385.757	1.04
386.123	1.06
386.49	1.04
386.856	1.06
387.222	1.06
387.588	1.06
387.954	1.08
388.32	1.09
388.686	1.08
389.052	1.09
389.418	1.06
389.784	1.06
390.15	1.08
390.515	1.01
390.881	1.11
391.247	1.09
391.613	1.1
391.978	1.04
392.344	1.07
392.709	1.08
393.075	1.03
393.44	1.1
393.806	1.08
394.171	1.11
394.536	1.05
394.902	1.03
395.267	1.04
395.632	1
395.997	1.03
396.362	1.04
396.727	1.09
397.092	1.01
397.457	1.02
397.822	1.07
398.187	1.02
398.552	1.03
398.917	1.02
399.282	1.02
399.646	1
400.011	1.04
400.376	0.98
400.74	1.04
401.105	1.01
401.47	1.01
401.834	1
402.199	0.98
402.563	0.93
402.927	0.94
403.292	0.98
403.656	0.93
404.02	0.96
404.384	0.98
404.749	0.9
405.113	0.93
405.477	0.92
405.841	0.91
406.205	0.9
406.569	0.87
406.933	0.85
407.296	0.87
407.66	0.88
408.024	0.84
408.388	0.88
408.752	0.86
409.115	0.87
409.479	0.86
409.842	0.85
410.206	0.85
410.569	0.81
410.933	0.8
411.296	0.79
411.66	0.82
412.023	0.79
412.386	0.8
412.749	0.8
413.113	0.78
413.476	0.74
413.839	0.77
414.202	0.76
414.565	0.74
414.928	0.75
415.291	0.75
415.654	0.75
416.017	0.77
416.38	0.74
416.742	0.76
417.105	0.73
417.468	0.72
417.83	0.72
418.193	0.76
418.556	0.73
418.918	0.72
419.281	0.7
419.643	0.72
420.005	0.74
420.368	0.71
420.73	0.69
421.092	0.73
421.455	0.72
421.817	0.68
422.179	0.69
422.541	0.71
422.903	0.71
423.265	0.7
423.627	0.69
423.989	0.71
424.351	0.66
424.713	0.69
425.075	0.68
425.436	0.68
425.798	0.67
426.16	0.68
426.521	0.7
426.883	0.69
427.245	0.67
427.606	0.68
427.967	0.65
428.329	0.67
428.69	0.69
429.052	0.66
429.413	0.66
429.774	0.66
430.135	0.66
430.497	0.68
430.858	0.64
431.219	0.67
431.58	0.65
431.941	0.64
432.302	0.64
432.663	0.64
433.024	0.64
433.384	0.63
433.745	0.63
434.106	0.62
434.467	0.64
434.827	0.63
435.188	0.63
435.548	0.63
435.909	0.62
436.269	0.64
436.63	0.61
436.99	0.62
437.351	0.62
437.711	0.64
438.071	0.59
438.431	0.61
438.792	0.6
439.152	0.61
439.512	0.61
439.872	0.62
440.232	0.61
440.592	0.6
440.952	0.6
441.312	0.58
441.671	0.58
442.031	0.59
442.391	0.57
442.751	0.58
443.11	0.58
443.47	0.55
443.83	0.57
444.189	0.56
444.549	0.55
444.908	0.56
445.267	0.54
445.627	0.54
445.986	0.54
446.345	0.52
446.705	0.53
447.064	0.54
447.423	0.53
447.782	0.53
448.141	0.53
448.5	0.5
448.859	0.52
449.218	0.52
449.577	0.52
449.936	0.51
450.295	0.5
450.653	0.52
451.012	0.51
451.371	0.5
451.729	0.5
452.088	0.5
452.447	0.5
452.805	0.49
453.163	0.5
453.522	0.5
453.88	0.47
454.239	0.47
454.597	0.47
454.955	0.47
455.313	0.47
455.671	0.47
456.029	0.46
456.388	0.46
456.746	0.46
457.104	0.45
457.461	0.44
457.819	0.43
458.177	0.43
458.535	0.42
458.893	0.42
459.25	0.41
459.608	0.41
459.966	0.4
460.323	0.41
460.681	0.39
461.038	0.4
461.396	0.39
461.753	0.39
462.111	0.38
462.468	0.37
462.825	0.38
463.182	0.36
463.54	0.37
463.897	0.38
464.254	0.36
464.611	0.36
464.968	0.36
465.325	0.36
465.682	0.35
466.039	0.35
466.395	0.34
466.752	0.33
467.109	0.33
467.466	0.34
467.822	0.33
468.179	0.33
468.535	0.32
468.892	0.32
469.248	0.31
469.605	0.31
469.961	0.3
470.318	0.31
470.674	0.31
471.03	0.3
471.386	0.3
471.743	0.29
472.099	0.29
472.455	0.29
472.811	0.28
473.167	0.28
473.523	0.27
473.879	0.27
474.235	0.27
474.59	0.27
474.946	0.26
475.302	0.26
475.657	0.26
476.013	0.26
476.369	0.25
476.724	0.25
477.08	0.26
477.435	0.24
477.791	0.24
478.146	0.24
478.501	0.24
478.857	0.24
479.212	0.23
479.567	0.23
479.922	0.22
480.277	0.22
480.632	0.22
480.987	0.22
481.342	0.22
481.697	0.21
482.052	0.21
482.407	0.21
482.762	0.21
483.116	0.2
483.471	0.2
483.826	0.19
484.18	0.19
484.535	0.19
484.89	0.19
485.244	0.19
485.598	0.19
485.953	0.18
486.307	0.18
486.661	0.19
487.016	0.18
487.37	0.18
487.724	0.18
488.078	0.17
488.432	0.17
488.786	0.17
489.14	0.17
489.494	0.17
489.848	0.16
490.202	0.16
490.556	0.17
490.91	0.17
491.263	0.16
491.617	0.17
491.971	0.16
492.324	0.16
492.678	0.17
493.031	0.16
493.385	0.16
493.738	0.16
494.091	0.16
494.445	0.16
494.798	0.15
495.151	0.15
495.504	0.15
495.857	0.15
496.21	0.15
496.564	0.15
496.916	0.15
497.269	0.14
497.622	0.15
497.975	0.14
498.328	0.15
498.681	0.15
499.033	0.14
499.386	0.15
499.739	0.14
500.091	0.14
500.444	0.14
500.796	0.14
501.149	0.13
501.501	0.14
501.854	0.14
502.206	0.13
502.558	0.14
502.91	0.13
503.263	0.14
503.615	0.13
503.967	0.13
504.319	0.14
504.671	0.13
505.023	0.13
505.375	0.13
505.726	0.12
506.078	0.13
506.43	0.13
506.782	0.12
507.133	0.13
507.485	0.13
507.837	0.14
508.188	0.13
508.54	0.13
508.891	0.13
509.243	0.13
509.594	0.13
509.945	0.12
510.296	0.12
510.648	0.13
510.999	0.12
511.35	0.12
511.701	0.12
512.052	0.13
512.403	0.13
512.754	0.12
513.105	0.12
513.456	0.12
513.807	0.12
514.157	0.12
514.508	0.12
514.859	0.12
515.209	0.12
515.56	0.12
515.91	0.11
516.261	0.12
516.611	0.12
516.962	0.12
517.312	0.12
517.662	0.12
518.013	0.12
518.363	0.12
518.713	0.12
519.063	0.12
519.413	0.12
519.763	0.12
520.113	0.12
520.463	0.12
520.813	0.12
521.163	0.13
521.512	0.12
521.862	0.12
522.212	0.12
522.562	0.13
522.911	0.12
523.261	0.12
523.61	0.12
523.96	0.12
524.309	0.13
524.658	0.12
525.008	0.12
525.357	0.12
525.706	0.12
526.056	0.12
526.405	0.12
526.754	0.12
527.103	0.11
527.452	0.12
527.801	0.12
528.15	0.12
528.499	0.12
528.847	0.12
529.196	0.13
529.545	0.13
529.893	0.13
530.242	0.13
530.591	0.13
530.939	0.14
531.288	0.13
531.636	0.14
531.985	0.12
532.333	0.13
532.681	0.13
533.029	0.13
533.378	0.13
533.726	0.13
534.074	0.13
534.422	0.12
534.77	0.13
535.118	0.13
535.466	0.12
535.814	0.13
536.162	0.13
536.509	0.13
536.857	0.13
537.205	0.13
537.552	0.13
537.9	0.13
538.248	0.13
538.595	0.13
538.943	0.14
539.29	0.13
539.637	0.13
539.985	0.13
540.332	0.13
540.679	0.13
541.026	0.12
541.373	0.12
541.721	0.12
542.068	0.13
542.415	0.13
542.762	0.12
543.108	0.11
543.455	0.11
543.802	0.12
544.149	0.12
544.496	0.12
544.842	0.12
545.189	0.11
545.535	0.12
545.882	0.12
546.228	0.12
546.575	0.11
546.921	0.11
547.267	0.12
547.614	0.12
547.96	0.12
548.306	0.12
548.652	0.11
548.998	0.12
549.344	0.12
549.69	0.11
550.036	0.12
550.382	0.12
550.728	0.12
551.074	0.12
551.42	0.12
551.765	0.12
552.111	0.13
552.457	0.13
552.802	0.13
553.148	0.12
553.493	0.13
553.839	0.13
554.184	0.13
554.529	0.13
554.875	0.13
555.22	0.13
555.565	0.12
555.91	0.12
556.255	0.13
556.6	0.13
556.945	0.12
557.29	0.12
557.635	0.13
557.98	0.13
558.325	0.12
558.67	0.13
559.014	0.13
559.359	0.13
559.704	0.13
560.048	0.12
560.393	0.13
560.737	0.11
561.082	0.12
561.426	0.11
561.77	0.12
562.115	0.11
562.459	0.12
562.803	0.12
563.147	0.12
563.491	0.13
563.835	0.13
564.179	0.12
564.523	0.12
564.867	0.12
565.211	0.12
565.555	0.13
565.899	0.13
566.242	0.13
566.586	0.12
566.93	0.13
567.273	0.14
567.617	0.13
567.96	0.13
568.304	0.13
568.647	0.13
568.99	0.12
569.334	0.14
569.677	0.13
570.02	0.13
570.363	0.13
570.706	0.13
571.049	0.13
571.392	0.13
571.735	0.12
572.078	0.12
572.421	0.13
572.764	0.12
573.106	0.12
573.449	0.12
573.792	0.12
574.134	0.13
574.477	0.12
574.819	0.13
575.162	0.12
575.504	0.12
575.847	0.12
576.189	0.13
576.531	0.13
576.873	0.13
577.215	0.13
577.558	0.13
577.9	0.12
578.242	0.12
578.584	0.13
578.926	0.12
579.267	0.12
579.609	0.13
579.951	0.13
580.293	0.12
580.634	0.13
580.976	0.13
581.318	0.12
581.659	0.12
582.001	0.12
582.342	0.12
582.683	0.13
583.025	0.12
583.366	0.12
583.707	0.12
584.049	0.12
584.39	0.12
584.731	0.12
585.072	0.12
585.413	0.13
585.754	0.12
586.095	0.13
586.435	0.12
586.776	0.12
587.117	0.12
587.458	0.12
587.798	0.12
588.139	0.13
588.48	0.12
588.82	0.12
589.161	0.13
589.501	0.12
589.841	0.12
590.182	0.13
590.522	0.12
590.862	0.12
591.202	0.12
591.542	0.12
591.882	0.12
592.222	0.12
592.562	0.12
592.902	0.12
593.242	0.12
593.582	0.12
593.922	0.12
594.261	0.12
594.601	0.12
594.941	0.12
595.28	0.12
595.62	0.12
595.959	0.12
596.299	0.12
596.638	0.12
596.977	0.12
597.317	0.13
597.656	0.12
597.995	0.12
598.334	0.13
598.673	0.11
599.012	0.11
599.351	0.12
599.69	0.12
600.029	0.12
600.368	0.12
600.707	0.12
601.046	0.12
601.384	0.12
601.723	0.13
602.061	0.12
602.4	0.12
602.738	0.13
603.077	0.12
603.415	0.12
603.754	0.12
604.092	0.12
604.43	0.12
604.768	0.12
605.107	0.13
605.445	0.12
605.783	0.12
606.121	0.11
606.459	0.12
606.796	0.12
607.134	0.11
607.472	0.12
607.81	0.12
608.148	0.11
608.485	0.12
608.823	0.12
609.16	0.12
609.498	0.12
609.835	0.11
610.173	0.11
610.51	0.12
610.847	0.12
611.185	0.12
611.522	0.13
611.859	0.13
612.196	0.12
612.533	0.13
612.87	0.13
613.207	0.13
613.544	0.13
613.881	0.13
614.217	0.13
614.554	0.12
614.891	0.13
615.228	0.13
615.564	0.12
615.901	0.13
616.237	0.12
616.574	0.13
616.91	0.13
617.246	0.13
617.583	0.13
617.919	0.14
618.255	0.13
618.591	0.13
618.927	0.13
619.263	0.13
619.599	0.13
619.935	0.14
620.271	0.13
620.607	0.13
620.943	0.12
621.279	0.13
621.614	0.13
621.95	0.13
622.286	0.12
622.621	0.12
622.957	0.13
623.292	0.12
623.627	0.12
623.963	0.12
624.298	0.12
624.633	0.12
624.968	0.12
625.304	0.12
625.639	0.11
625.974	0.11
626.309	0.11
626.644	0.12
626.979	0.12
627.313	0.12
627.648	0.11
627.983	0.12
628.318	0.11
628.652	0.11
628.987	0.11
629.321	0.12
629.656	0.11
629.99	0.11
630.325	0.11
630.659	0.12
630.993	0.11
631.327	0.11
631.662	0.11
631.996	0.1
632.33	0.11
632.664	0.12
632.998	0.11
633.332	0.11
633.666	0.11
633.999	0.11
634.333	0.1
634.667	0.11
635.001	0.1
635.334	0.11
635.668	0.11
636.001	0.11
636.335	0.11
636.668	0.11
637.001	0.1
637.335	0.1
637.668	0.11
638.001	0.1
638.334	0.11
638.668	0.1
639.001	0.11
639.334	0.09
639.667	0.1
639.999	0.1
640.332	0.1
640.665	0.09
640.998	0.1
641.331	0.1
641.663	0.09
641.996	0.09
642.328	0.1
642.661	0.1
642.993	0.1
643.326	0.1
643.658	0.1
643.99	0.1
644.323	0.09
644.655	0.09
644.987	0.1
645.319	0.1
645.651	0.11
645.983	0.1
646.315	0.1
646.647	0.1
646.979	0.11
647.31	0.11
647.642	0.11
647.974	0.1
648.305	0.12
648.637	0.11
648.968	0.12
649.3	0.11
649.631	0.11
649.963	0.11
650.294	0.11
650.625	0.11
650.957	0.11
651.288	0.11
651.619	0.12
651.95	0.11
652.281	0.11
652.612	0.11
652.943	0.11
653.274	0.12
653.604	0.11
653.935	0.11
654.266	0.11
654.596	0.11
654.927	0.11
655.258	0.12
655.588	0.12
655.918	0.12
656.249	0.09
656.579	0.1
656.909	0.11
657.24	0.1
657.57	0.11
657.9	0.11
658.23	0.11
658.56	0.11
658.89	0.11
659.22	0.1
659.55	0.11
659.88	0.11
660.209	0.12
660.539	0.12
660.869	0.11
661.198	0.12
661.528	0.12
661.857	0.11
662.187	0.12
662.516	0.11
662.846	0.1
663.175	0.11
663.504	0.11
663.833	0.1
664.163	0.11
664.492	0.11
664.821	0.11
665.15	0.1
665.479	0.1
665.807	0.1
666.136	0.1
666.465	0.1
666.794	0.1
667.122	0.09
667.451	0.1
667.78	0.1
668.108	0.11
668.437	0.1
668.765	0.1
669.093	0.1
669.422	0.1
669.75	0.1
670.078	0.1
670.406	0.1
670.734	0.11
671.062	0.1
671.39	0.1
671.718	0.1
672.046	0.1
672.374	0.1
672.702	0.1
673.029	0.09
673.357	0.11
673.685	0.11
674.012	0.1
674.34	0.1
674.667	0.11
674.995	0.1
675.322	0.11
675.649	0.1
675.977	0.1
676.304	0.1
676.631	0.1
676.958	0.1
677.285	0.09
677.612	0.09
677.939	0.1
678.266	0.1
678.593	0.1
678.92	0.1
679.246	0.1
679.573	0.09
679.9	0.09
680.226	0.1
680.553	0.09
680.879	0.09
681.206	0.09
681.532	0.09
681.858	0.09
682.184	0.08
682.511	0.09
682.837	0.09
683.163	0.09
683.489	0.09
683.815	0.09
684.141	0.09
684.467	0.09
684.793	0.09
685.118	0.09
685.444	0.09
685.77	0.09
686.095	0.09
686.421	0.09
686.746	0.1
687.072	0.09
687.397	0.09
687.723	0.1
688.048	0.1
688.373	0.09
688.698	0.1
689.023	0.1
689.349	0.1
689.674	0.09
689.999	0.09
690.323	0.08
690.648	0.08
690.973	0.08
691.298	0.08
691.623	0.08
691.947	0.08
692.272	0.08
692.596	0.09
692.921	0.09
693.245	0.08
693.57	0.09
693.894	0.09
694.218	0.09
694.543	0.08
694.867	0.08
695.191	0.07
695.515	0.08
695.839	0.08
696.163	0.08
696.487	0.08
696.811	0.08
697.135	0.08
697.458	0.08
697.782	0.09
698.106	0.08
698.429	0.09
698.753	0.08
699.076	0.08
699.4	0.08
699.723	0.08
700.046	0.07
700.37	0.08
700.693	0.08
701.016	0.09
701.339	0.09
701.662	0.09
701.985	0.08
702.308	0.08
702.631	0.07
702.954	0.08
703.277	0.08
703.599	0.08
703.922	0.08
704.245	0.08
704.567	0.07
704.89	0.08
705.212	0.08
705.535	0.07
705.857	0.08
706.179	0.06
706.502	0.07
706.824	0.07
707.146	0.07
707.468	0.08
707.79	0.08
708.112	0.08
708.434	0.08
708.756	0.08
709.078	0.08
709.399	0.07
709.721	0.07
710.043	0.08
710.364	0.08
710.686	0.08
711.007	0.08
711.329	0.09
711.65	0.07
711.972	0.07
712.293	0.09
712.614	0.09
712.935	0.08
713.256	0.07
713.577	0.08
713.898	0.07
714.219	0.07
714.54	0.07
714.861	0.06
715.182	0.07
715.503	0.07
715.823	0.07
716.144	0.07
716.464	0.06
716.785	0.06
717.105	0.07
717.426	0.07
717.746	0.06
718.066	0.06
718.387	0.06
718.707	0.06
719.027	0.07
719.347	0.06
719.667	0.06
719.987	0.05
720.307	0.05
720.627	0.06
720.947	0.06
721.266	0.05
721.586	0.06
721.906	0.05
722.225	0.05
722.545	0.06
722.864	0.05
723.184	0.05
723.503	0.05
723.823	0.05
724.142	0.05
724.461	0.05
724.78	0.06
725.099	0.05
725.418	0.06
725.737	0.05
726.056	0.06
726.375	0.06
726.694	0.06
727.013	0.05
727.331	0.05
727.65	0.06
727.969	0.06
728.287	0.06
728.606	0.06
728.924	0.05
729.242	0.06
729.561	0.05
729.879	0.05
730.197	0.06
730.515	0.05
730.834	0.05
731.152	0.06
731.47	0.06
731.788	0.05
732.105	0.05
732.423	0.05
732.741	0.04
733.059	0.06
733.376	0.06
733.694	0.05
734.012	0.05
734.329	0.06
734.647	0.05
734.964	0.06
735.281	0.05
735.599	0.06
735.916	0.06
736.233	0.06
736.55	0.05
736.867	0.06
737.184	0.06
737.501	0.06
737.818	0.05
738.135	0.06
738.452	0.05
738.768	0.06
739.085	0.06
739.402	0.05
739.718	0.06
740.035	0.06
740.351	0.06
740.668	0.06
740.984	0.06
741.3	0.05
741.617	0.06
741.933	0.06
742.249	0.06
742.565	0.05
742.881	0.06
743.197	0.06
743.513	0.05
743.829	0.05
744.144	0.05
744.46	0.05
744.776	0.06
745.091	0.06
745.407	0.06
745.722	0.05
746.038	0.05
746.353	0.05
746.669	0.06
746.984	0.05
747.299	0.06
747.614	0.06
747.93	0.06
748.245	0.05
748.56	0.06
748.875	0.06
749.189	0.06
749.504	0.06
749.819	0.06
750.134	0.05
750.448	0.06
750.763	0.06
751.078	0.05
751.392	0.06
751.707	0.06
752.021	0.06
752.335	0.06
752.65	0.06
752.964	0.05
753.278	0.05
753.592	0.06
753.906	0.05
754.22	0.05
754.534	0.06
754.848	0.05
755.162	0.05
755.476	0.06
755.789	0.05
756.103	0.04
756.417	0.05
756.73	0.06
757.044	0.06
757.357	0.06
757.671	0.06
757.984	0.06
758.297	0.06
758.61	0.06
758.924	0.06
759.237	0.06
759.55	0.06
759.863	0.06
760.176	0.06
760.488	0.06
760.801	0.06
761.114	0.06
761.427	0.05
761.739	0.06
762.052	0.05
762.365	0.05
762.677	0.05
762.99	0.04
763.302	0.05
763.614	0.05
763.926	0.05
764.239	0.05
764.551	0.04
764.863	0.05
765.175	0.06
765.487	0.05
765.799	0.05
766.111	0.05
766.423	0.06
766.734	0.05
767.046	0.04
767.358	0.05
767.669	0.05
767.981	0.04
768.292	0.05
768.604	0.05
768.915	0.05
769.226	0.04
769.537	0.04
769.849	0.05
770.16	0.05
770.471	0.04
770.782	0.05
771.093	0.04
771.404	0.03
771.715	0.04
772.025	0.04
772.336	0.04
772.647	0.04
772.957	0.04
773.268	0.05
773.578	0.04
773.889	0.04
774.199	0.04
774.51	0.04
774.82	0.04
775.13	0.05
775.44	0.04
775.75	0.05
776.06	0.04
776.37	0.04
776.68	0.05
776.99	0.04
777.3	0.04
777.61	0.05
777.92	0.05
778.229	0.04
778.539	0.04
778.848	0.05
779.158	0.05
779.467	0.05
779.777	0.04
780.086	0.06
780.395	0.05
780.704	0.05
781.013	0.04
781.323	0.04
781.632	0.04
781.941	0.05
782.249	0.04
782.558	0.04
782.867	0.05
783.176	0.04
783.485	0.04
783.793	0.05
784.102	0.04
784.41	0.04
784.719	0.04
785.027	0.03
785.335	0.04
785.644	0.04
785.952	0.04
786.26	0.05
786.568	0.03
786.876	0.04
787.184	0.04
787.492	0.04
787.8	0.04
788.108	0.04
788.416	0.04
788.723	0.04
789.031	0.04
789.338	0.03
789.646	0.04
789.953	0.04
790.261	0.04
790.568	0.04
790.876	0.04
791.183	0.04
791.49	0.03
791.797	0.04
792.104	0.03
792.411	0.04
792.718	0.04
793.025	0.05
793.332	0.04
793.639	0.04
793.945	0.06
794.252	0.04
794.559	0.04
794.865	0.05
795.172	0.05
795.478	0.04
795.784	0.05
796.091	0.05
796.397	0.05
796.703	0.04
797.009	0.06
797.315	0.05
797.622	0.05
797.927	0.05
798.233	0.04
798.539	0.05
798.845	0.05
799.151	0.05
799.456	0.05
799.762	0.04
800.068	0.04
800.373	0.06
800.679	0.04
800.984	0.04
801.289	0.05
801.595	0.04
801.9	0.04
802.205	0.04
802.51	0.04
802.815	0.05
803.12	0.04
803.425	0.04
803.73	0.04
804.035	0.04
804.339	0.04
804.644	0.04
804.949	0.05
805.253	0.03
805.558	0.04
805.862	0.04
806.167	0.04
806.471	0.04
806.775	0.05
807.08	0.05
807.384	0.05
807.688	0.05
807.992	0.05
808.296	0.04
808.6	0.05
808.904	0.05
809.207	0.05
809.511	0.05
809.815	0.05
810.119	0.05
810.422	0.05
810.726	0.05
811.029	0.05
811.332	0.05
811.636	0.05
811.939	0.05
812.242	0.05
812.546	0.05
812.849	0.05
813.152	0.05
813.455	0.05
813.758	0.05
814.06	0.05
814.363	0.05
814.666	0.05
814.969	0.05
815.271	0.05
815.574	0.05
815.877	0.05
816.179	0.04
816.481	0.04
816.784	0.04
817.086	0.04
817.388	0.04
817.69	0.03
817.993	0.03
818.295	0.04
818.597	0.04
818.899	0.03
819.2	0.03
819.502	0.03
819.804	0.04
820.106	0.02
820.407	0.02
820.709	0.03
821.01	0.03
821.312	0.03
821.613	0.03
821.915	0.03
822.216	0.03
822.517	0.03
822.818	0.02
823.119	0.02
823.42	0.03
823.721	0.02
824.022	0.03
824.323	0.03
824.624	0.03
824.925	0.04
825.226	0.04
825.526	0.03
825.827	0.03
826.127	0.04
826.428	0.03
826.728	0.03
827.028	0.03
827.329	0.03
827.629	0.03
827.929	0.03
828.229	0.03
828.529	0.04
828.829	0.03
829.129	0.03
829.429	0.04
829.729	0.03
830.029	0.03
830.328	0.03
830.628	0.03
830.927	0.01
831.227	0.03
831.526	0.03
831.826	0.02
832.125	0.03
832.424	0.02
832.724	0.03
833.023	0.03
833.322	0.03
833.621	0.03
833.92	0.02
834.219	0.02
834.518	0.03
834.816	0.01
835.115	0.02
835.414	0.02
835.712	0.02
836.011	0.01
836.309	0.02
836.608	0.01
836.906	0.01
837.205	0.01
837.503	0.01
837.801	0.01
838.099	-0
838.397	-0
838.695	0.01
838.993	-0
839.291	-0
839.589	0
839.887	-0
840.184	-0.01
840.482	-0.01
840.78	-0.01
841.077	-0.01
841.375	-0.02
841.672	-0.01
841.969	-0.02
842.267	-0.02
842.564	-0.02
842.861	-0.02
843.158	-0.02
843.455	-0.04
843.752	-0.03
844.049	-0.03
844.346	-0.04
844.643	-0.04
844.94	-0.04
845.236	-0.03
845.533	-0.03
845.83	-0.04
846.126	-0.04
846.423	-0.05
846.719	-0.06
847.015	-0.05
847.312	-0.06
847.608	-0.05
847.904	-0.06
848.2	-0.07
848.496	-0.06
848.792	-0.05
849.088	-0.04
849.384	-0.06
849.68	-0.06
849.975	-0.06
850.271	-0.06
850.567	-0.06
850.862	-0.07
851.158	-0.06
851.453	-0.06
851.748	-0.07
852.044	-0.07
852.339	-0.06
852.634	-0.08
852.929	-0.06
853.224	-0.08
853.519	-0.08
853.814	-0.08
854.109	-0.07
854.404	-0.08
854.699	-0.08
854.994	-0.07
855.288	-0.07
855.583	-0.07
855.877	-0.08
856.172	-0.08
856.466	-0.08
856.76	-0.08
857.055	-0.08
857.349	-0.09
857.643	-0.09
857.937	-0.09
858.231	-0.09
858.525	-0.1
858.819	-0.1
859.113	-0.11
859.407	-0.11
859.701	-0.12
859.994	-0.11
860.288	-0.1
860.581	-0.11
860.875	-0.11
861.168	-0.11
861.462	-0.11
861.755	-0.11
862.048	-0.11
862.341	-0.11
862.634	-0.12
862.928	-0.12
863.221	-0.11
863.513	-0.12
863.806	-0.13
864.099	-0.12
864.392	-0.13
864.685	-0.12
864.977	-0.13
865.27	-0.12
865.562	-0.13
865.855	-0.13
866.147	-0.13
866.44	-0.13
866.732	-0.13
867.024	-0.14
867.316	-0.13
867.608	-0.15
867.9	-0.14
868.192	-0.15
868.484	-0.14
868.776	-0.15
869.068	-0.14
869.359	-0.15
869.651	-0.15
869.943	-0.16
870.234	-0.16
870.526	-0.16
870.817	-0.16
871.108	-0.14
871.4	-0.15
871.691	-0.16
871.982	-0.17
872.273	-0.18
872.564	-0.16
872.855	-0.17
873.146	-0.17
873.437	-0.17
873.728	-0.17
874.019	-0.17
874.309	-0.18
874.6	-0.17
874.89	-0.17
875.181	-0.18
875.471	-0.16
875.762	-0.16
876.052	-0.17
876.342	-0.15
876.632	-0.16
876.922	-0.18
877.213	-0.18
877.503	-0.19
877.792	-0.18
878.082	-0.19
878.372	-0.17
878.662	-0.2
878.952	-0.18
879.241	-0.19
879.531	-0.18
879.82	-0.2
880.11	-0.18
880.399	-0.18
880.688	-0.17
880.978	-0.17
881.267	-0.17
