Data from 12-12-AQDScycling_Absorbance__247__00247.txt Node

Date: Tue Dec 12 11:58:57 EST 2023
User: kyuminlee
Spectrometer: FLMS00943
Trigger mode: 0
Integration Time (sec): 1.000000E-1
Scans to average: 1
Electric dark correction enabled: true
Nonlinearity correction enabled: false
Boxcar width: 0
XAxis mode: Wavelengths
Number of Pixels in Spectrum: 2048
>>>>>Begin Spectral Data<<<<<
179.651	-0
180.037	-0
180.424	-0
180.81	0.21
181.197	0.34
181.583	-0
181.97	0.91
182.356	-0
182.743	-0
183.129	0.06
183.515	-0
183.901	-1.94
184.288	0.44
184.674	-0
185.06	-1.14
185.446	-0.35
185.832	-0.96
186.218	-0.1
186.604	-0.26
186.99	-0
187.376	-0
187.762	-0
188.148	0.16
188.534	-0.4
188.92	0.03
189.305	0.05
189.691	0.09
190.077	0.17
190.463	0.08
190.848	0.03
191.234	0.11
191.619	-0.09
192.005	0.03
192.391	0.12
192.776	0.17
193.161	0.09
193.547	0.14
193.932	0.05
194.318	0.06
194.703	0.14
195.088	0.43
195.473	0.19
195.859	0.12
196.244	0.18
196.629	0.05
197.014	0.18
197.399	0.25
197.784	0.08
198.169	0.23
198.554	0.13
198.939	0.1
199.324	0.13
199.709	0.07
200.094	0.12
200.478	0.05
200.863	0.2
201.248	0.1
201.633	0.14
202.017	-0
202.402	0.14
202.787	0.2
203.171	0.14
203.556	0.29
203.94	0.17
204.325	0.26
204.709	0.22
205.093	0.11
205.478	0.09
205.862	0.18
206.246	0.08
206.631	0.18
207.015	0.19
207.399	0.11
207.783	0.06
208.167	0.12
208.551	0.28
208.935	0.09
209.319	0.13
209.703	0.16
210.087	0.2
210.471	0.08
210.855	0.16
211.239	0.1
211.623	0.25
212.007	0.18
212.39	0.41
212.774	0.3
213.158	0.09
213.541	0.35
213.925	0.26
214.309	0.32
214.692	0.31
215.076	0.3
215.459	0.07
215.842	0.2
216.226	0.21
216.609	0.22
216.993	0.14
217.376	0.46
217.759	0.26
218.142	0.41
218.525	0.6
218.909	0.42
219.292	0.31
219.675	0.38
220.058	0.5
220.441	0.56
220.824	0.43
221.207	0.71
221.59	0.45
221.973	0.54
222.355	0.66
222.738	0.72
223.121	0.56
223.504	0.63
223.886	0.59
224.269	0.73
224.652	0.6
225.034	0.72
225.417	0.71
225.799	0.76
226.182	1.05
226.564	0.85
226.947	0.77
227.329	0.86
227.711	0.91
228.094	0.85
228.476	0.95
228.858	0.83
229.24	0.87
229.623	0.98
230.005	0.77
230.387	0.86
230.769	0.83
231.151	0.95
231.533	0.94
231.915	0.91
232.297	0.93
232.679	0.94
233.061	1.06
233.442	0.98
233.824	0.95
234.206	1.05
234.588	1.04
234.969	1.02
235.351	0.96
235.733	1.1
236.114	1.16
236.496	1.06
236.877	1.07
237.259	1.03
237.64	1
238.022	0.94
238.403	1.05
238.784	1.07
239.165	1
239.547	1.16
239.928	1.13
240.309	1.04
240.69	1.04
241.071	1.07
241.452	1.16
241.834	1.09
242.215	1.23
242.595	1.01
242.976	1.17
243.357	1.04
243.738	0.99
244.119	1.14
244.5	1.14
244.881	1.08
245.261	1.25
245.642	1.16
246.023	1.17
246.403	1.09
246.784	1.26
247.164	1.21
247.545	1.22
247.925	1.35
248.306	1.28
248.686	1.36
249.067	1.42
249.447	1.35
249.827	1.6
250.207	1.68
250.588	1.19
250.968	1.35
251.348	1.36
251.728	1.48
252.108	1.37
252.488	1.43
252.868	1.45
253.248	1.27
253.628	1.4
254.008	1.4
254.388	1.22
254.768	1.24
255.147	1.26
255.527	1.27
255.907	1.29
256.287	1.3
256.666	1.51
257.046	1.4
257.425	1.55
257.805	1.37
258.184	1.36
258.564	1.31
258.943	1.33
259.323	1.5
259.702	1.4
260.081	1.45
260.461	1.49
260.84	1.41
261.219	1.73
261.598	1.48
261.977	1.5
262.356	1.5
262.736	1.49
263.115	1.47
263.494	1.47
263.873	1.41
264.251	1.54
264.63	1.57
265.009	1.43
265.388	1.57
265.767	1.44
266.145	1.46
266.524	1.44
266.903	1.59
267.281	1.42
267.66	1.35
268.039	1.4
268.417	1.44
268.796	1.38
269.174	1.33
269.552	1.33
269.931	1.65
270.309	1.51
270.687	1.47
271.066	1.7
271.444	1.45
271.822	1.66
272.2	1.44
272.578	1.3
272.956	1.4
273.334	1.39
273.712	1.6
274.09	1.33
274.468	1.35
274.846	1.31
275.224	1.37
275.602	1.33
275.98	1.77
276.357	1.44
276.735	1.36
277.113	1.38
277.49	1.27
277.868	1.24
278.246	1.46
278.623	1.3
279.001	1.34
279.378	1.32
279.756	1.51
280.133	1.58
280.51	1.34
280.888	1.5
281.265	1.5
281.642	1.58
282.019	1.53
282.396	1.68
282.773	1.27
283.151	1.47
283.528	1.42
283.905	1.31
284.282	1.69
284.659	1.53
285.035	1.4
285.412	1.37
285.789	1.47
286.166	1.38
286.543	1.52
286.919	1.52
287.296	1.46
287.673	1.56
288.049	1.44
288.426	1.69
288.802	1.47
289.179	1.41
289.555	1.72
289.932	1.42
290.308	1.34
290.684	1.42
291.061	1.3
291.437	1.58
291.813	1.42
292.189	1.35
292.565	1.28
292.942	1.27
293.318	1.36
293.694	1.54
294.07	1.3
294.446	1.4
294.822	1.67
295.197	1.55
295.573	1.36
295.949	1.29
296.325	1.45
296.701	1.45
297.076	1.59
297.452	1.54
297.828	1.47
298.203	1.55
298.579	1.43
298.954	1.46
299.33	1.53
299.705	1.56
300.081	1.47
300.456	1.44
300.831	1.36
301.206	1.56
301.582	1.71
301.957	1.42
302.332	1.67
302.707	1.44
303.082	1.43
303.457	1.67
303.832	1.67
304.207	1.35
304.582	1.4
304.957	1.53
305.332	1.6
305.707	1.53
306.082	1.56
306.456	1.65
306.831	1.49
307.206	1.53
307.58	1.49
307.955	1.52
308.33	1.46
308.704	1.49
309.079	1.53
309.453	1.58
309.828	1.45
310.202	1.52
310.576	1.47
310.951	1.57
311.325	1.58
311.699	1.5
312.073	1.38
312.447	1.54
312.821	1.45
313.196	1.59
313.57	1.5
313.944	1.49
314.317	1.46
314.691	1.56
315.065	1.54
315.439	1.66
315.813	1.45
316.187	1.58
316.56	1.63
316.934	1.5
317.308	1.44
317.681	1.48
318.055	1.44
318.428	1.57
318.802	1.57
319.175	1.34
319.549	1.45
319.922	1.34
320.295	1.47
320.669	1.61
321.042	1.52
321.415	1.83
321.788	1.53
322.162	1.53
322.535	1.57
322.908	1.47
323.281	1.46
323.654	1.67
324.027	1.44
324.4	1.7
324.773	1.52
325.145	1.65
325.518	1.5
325.891	1.5
326.264	1.53
326.636	1.36
327.009	1.51
327.382	1.43
327.754	1.46
328.127	1.44
328.499	1.53
328.872	1.47
329.244	1.56
329.616	1.39
329.989	1.44
330.361	1.48
330.733	1.41
331.106	1.45
331.478	1.66
331.85	1.44
332.222	1.48
332.594	1.55
332.966	1.52
333.338	1.61
333.71	1.66
334.082	1.66
334.454	1.47
334.826	1.4
335.197	1.55
335.569	1.49
335.941	1.4
336.312	1.56
336.684	1.32
337.056	1.47
337.427	1.64
337.799	1.47
338.17	1.49
338.542	1.45
338.913	1.57
339.284	1.72
339.656	1.53
340.027	1.53
340.398	1.53
340.769	1.53
341.141	1.64
341.512	1.55
341.883	1.61
342.254	1.46
342.625	1.58
342.996	1.55
343.367	1.68
343.738	1.49
344.108	1.4
344.479	1.7
344.85	1.43
345.221	1.65
345.591	1.52
345.962	1.47
346.333	1.52
346.703	1.28
347.074	1.42
347.444	1.36
347.815	1.55
348.185	1.52
348.556	1.34
348.926	1.37
349.296	1.44
349.666	1.39
350.037	1.29
350.407	1.32
350.777	1.37
351.147	1.43
351.517	1.33
351.887	1.38
352.257	1.39
352.627	1.26
352.997	1.31
353.367	1.36
353.737	1.34
354.106	1.38
354.476	1.29
354.846	1.35
355.216	1.35
355.585	1.48
355.955	1.44
356.324	1.26
356.694	1.24
357.063	1.31
357.433	1.29
357.802	1.2
358.171	1.21
358.541	1.19
358.91	1.24
359.279	1.22
359.648	1.11
360.017	1.19
360.387	1.15
360.756	1.1
361.125	1.1
361.494	1.08
361.863	1.07
362.231	1.06
362.6	1.07
362.969	1.03
363.338	1.01
363.707	1.03
364.075	0.98
364.444	0.91
364.813	0.97
365.181	0.96
365.55	0.94
365.918	0.94
366.287	0.91
366.655	0.91
367.024	0.84
367.392	0.89
367.76	0.85
368.128	0.82
368.497	0.82
368.865	0.81
369.233	0.79
369.601	0.8
369.969	0.8
370.337	0.77
370.705	0.78
371.073	0.76
371.441	0.75
371.809	0.76
372.177	0.76
372.544	0.75
372.912	0.73
373.28	0.71
373.647	0.74
374.015	0.73
374.383	0.73
374.75	0.73
375.118	0.69
375.485	0.7
375.853	0.71
376.22	0.67
376.587	0.68
376.955	0.67
377.322	0.64
377.689	0.67
378.056	0.65
378.423	0.67
378.79	0.67
379.157	0.65
379.524	0.64
379.891	0.63
380.258	0.64
380.625	0.64
380.992	0.66
381.359	0.64
381.726	0.67
382.092	0.64
382.459	0.65
382.826	0.65
383.192	0.66
383.559	0.67
383.925	0.64
384.292	0.66
384.658	0.68
385.025	0.66
385.391	0.66
385.757	0.67
386.123	0.68
386.49	0.67
386.856	0.7
387.222	0.67
387.588	0.68
387.954	0.7
388.32	0.68
388.686	0.67
389.052	0.65
389.418	0.68
389.784	0.66
390.15	0.67
390.515	0.65
390.881	0.69
391.247	0.65
391.613	0.69
391.978	0.67
392.344	0.69
392.709	0.67
393.075	0.69
393.44	0.67
393.806	0.65
394.171	0.64
394.536	0.66
394.902	0.63
395.267	0.66
395.632	0.65
395.997	0.64
396.362	0.65
396.727	0.64
397.092	0.64
397.457	0.64
397.822	0.65
398.187	0.63
398.552	0.62
398.917	0.61
399.282	0.63
399.646	0.6
400.011	0.62
400.376	0.6
400.74	0.63
401.105	0.59
401.47	0.61
401.834	0.59
402.199	0.59
402.563	0.57
402.927	0.57
403.292	0.58
403.656	0.58
404.02	0.58
404.384	0.57
404.749	0.56
405.113	0.57
405.477	0.56
405.841	0.54
406.205	0.53
406.569	0.53
406.933	0.53
407.296	0.52
407.66	0.53
408.024	0.53
408.388	0.51
408.752	0.5
409.115	0.51
409.479	0.51
409.842	0.5
410.206	0.48
410.569	0.48
410.933	0.49
411.296	0.5
411.66	0.49
412.023	0.48
412.386	0.49
412.749	0.47
413.113	0.47
413.476	0.44
413.839	0.48
414.202	0.44
414.565	0.44
414.928	0.46
415.291	0.44
415.654	0.45
416.017	0.45
416.38	0.44
416.742	0.43
417.105	0.42
417.468	0.43
417.83	0.43
418.193	0.45
418.556	0.42
418.918	0.41
419.281	0.42
419.643	0.41
420.005	0.44
420.368	0.42
420.73	0.42
421.092	0.42
421.455	0.41
421.817	0.4
422.179	0.41
422.541	0.41
422.903	0.41
423.265	0.41
423.627	0.42
423.989	0.4
424.351	0.4
424.713	0.39
425.075	0.38
425.436	0.4
425.798	0.38
426.16	0.4
426.521	0.39
426.883	0.4
427.245	0.38
427.606	0.38
427.967	0.39
428.329	0.38
428.69	0.39
429.052	0.38
429.413	0.39
429.774	0.39
430.135	0.38
430.497	0.36
430.858	0.37
431.219	0.37
431.58	0.36
431.941	0.37
432.302	0.38
432.663	0.37
433.024	0.38
433.384	0.38
433.745	0.35
434.106	0.36
434.467	0.37
434.827	0.38
435.188	0.37
435.548	0.36
435.909	0.37
436.269	0.38
436.63	0.34
436.99	0.36
437.351	0.36
437.711	0.35
438.071	0.36
438.431	0.35
438.792	0.35
439.152	0.35
439.512	0.34
439.872	0.34
440.232	0.35
440.592	0.35
440.952	0.34
441.312	0.34
441.671	0.32
442.031	0.33
442.391	0.32
442.751	0.34
443.11	0.32
443.47	0.32
443.83	0.34
444.189	0.31
444.549	0.33
444.908	0.33
445.267	0.32
445.627	0.32
445.986	0.31
446.345	0.3
446.705	0.32
447.064	0.31
447.423	0.31
447.782	0.29
448.141	0.31
448.5	0.28
448.859	0.31
449.218	0.29
449.577	0.3
449.936	0.31
450.295	0.3
450.653	0.29
451.012	0.3
451.371	0.31
451.729	0.3
452.088	0.3
452.447	0.3
452.805	0.29
453.163	0.3
453.522	0.3
453.88	0.29
454.239	0.28
454.597	0.28
454.955	0.28
455.313	0.27
455.671	0.28
456.029	0.27
456.388	0.27
456.746	0.26
457.104	0.26
457.461	0.26
457.819	0.26
458.177	0.25
458.535	0.24
458.893	0.24
459.25	0.25
459.608	0.24
459.966	0.24
460.323	0.24
460.681	0.23
461.038	0.24
461.396	0.23
461.753	0.23
462.111	0.22
462.468	0.22
462.825	0.22
463.182	0.22
463.54	0.21
463.897	0.21
464.254	0.21
464.611	0.22
464.968	0.21
465.325	0.22
465.682	0.2
466.039	0.21
466.395	0.2
466.752	0.2
467.109	0.2
467.466	0.2
467.822	0.2
468.179	0.19
468.535	0.19
468.892	0.19
469.248	0.18
469.605	0.19
469.961	0.18
470.318	0.19
470.674	0.2
471.03	0.19
471.386	0.19
471.743	0.19
472.099	0.18
472.455	0.17
472.811	0.16
473.167	0.17
473.523	0.16
473.879	0.16
474.235	0.16
474.59	0.16
474.946	0.16
475.302	0.16
475.657	0.15
476.013	0.16
476.369	0.14
476.724	0.15
477.08	0.15
477.435	0.15
477.791	0.15
478.146	0.15
478.501	0.15
478.857	0.14
479.212	0.15
479.567	0.14
479.922	0.14
480.277	0.14
480.632	0.13
480.987	0.14
481.342	0.14
481.697	0.13
482.052	0.13
482.407	0.13
482.762	0.13
483.116	0.12
483.471	0.12
483.826	0.12
484.18	0.12
484.535	0.12
484.89	0.12
485.244	0.12
485.598	0.12
485.953	0.12
486.307	0.12
486.661	0.12
487.016	0.11
487.37	0.11
487.724	0.12
488.078	0.11
488.432	0.11
488.786	0.12
489.14	0.11
489.494	0.11
489.848	0.1
490.202	0.11
490.556	0.11
490.91	0.1
491.263	0.1
491.617	0.1
491.971	0.11
492.324	0.1
492.678	0.11
493.031	0.11
493.385	0.11
493.738	0.1
494.091	0.1
494.445	0.1
494.798	0.1
495.151	0.1
495.504	0.1
495.857	0.1
496.21	0.1
496.564	0.09
496.916	0.1
497.269	0.09
497.622	0.11
497.975	0.09
498.328	0.1
498.681	0.1
499.033	0.09
499.386	0.09
499.739	0.09
500.091	0.09
500.444	0.09
500.796	0.09
501.149	0.09
501.501	0.09
501.854	0.09
502.206	0.09
502.558	0.09
502.91	0.09
503.263	0.09
503.615	0.09
503.967	0.08
504.319	0.08
504.671	0.09
505.023	0.08
505.375	0.08
505.726	0.08
506.078	0.08
506.43	0.08
506.782	0.08
507.133	0.08
507.485	0.08
507.837	0.09
508.188	0.09
508.54	0.09
508.891	0.09
509.243	0.08
509.594	0.08
509.945	0.08
510.296	0.08
510.648	0.08
510.999	0.08
511.35	0.08
511.701	0.08
512.052	0.08
512.403	0.08
512.754	0.08
513.105	0.08
513.456	0.07
513.807	0.08
514.157	0.08
514.508	0.08
514.859	0.08
515.209	0.07
515.56	0.08
515.91	0.07
516.261	0.08
516.611	0.07
516.962	0.07
517.312	0.07
517.662	0.07
518.013	0.07
518.363	0.07
518.713	0.07
519.063	0.08
519.413	0.07
519.763	0.08
520.113	0.08
520.463	0.08
520.813	0.08
521.163	0.08
521.512	0.07
521.862	0.08
522.212	0.08
522.562	0.08
522.911	0.08
523.261	0.08
523.61	0.07
523.96	0.08
524.309	0.08
524.658	0.08
525.008	0.07
525.357	0.07
525.706	0.08
526.056	0.07
526.405	0.08
526.754	0.07
527.103	0.07
527.452	0.08
527.801	0.08
528.15	0.08
528.499	0.08
528.847	0.08
529.196	0.09
529.545	0.08
529.893	0.09
530.242	0.09
530.591	0.09
530.939	0.09
531.288	0.09
531.636	0.09
531.985	0.08
532.333	0.08
532.681	0.09
533.029	0.08
533.378	0.09
533.726	0.09
534.074	0.09
534.422	0.08
534.77	0.09
535.118	0.08
535.466	0.09
535.814	0.07
536.162	0.08
536.509	0.09
536.857	0.08
537.205	0.09
537.552	0.08
537.9	0.08
538.248	0.08
538.595	0.09
538.943	0.08
539.29	0.09
539.637	0.08
539.985	0.09
540.332	0.08
540.679	0.08
541.026	0.08
541.373	0.08
541.721	0.07
542.068	0.07
542.415	0.08
542.762	0.07
543.108	0.06
543.455	0.06
543.802	0.07
544.149	0.07
544.496	0.07
544.842	0.07
545.189	0.06
545.535	0.07
545.882	0.07
546.228	0.07
546.575	0.07
546.921	0.06
547.267	0.06
547.614	0.07
547.96	0.07
548.306	0.06
548.652	0.06
548.998	0.07
549.344	0.07
549.69	0.07
550.036	0.07
550.382	0.07
550.728	0.07
551.074	0.08
551.42	0.07
551.765	0.07
552.111	0.08
552.457	0.08
552.802	0.08
553.148	0.07
553.493	0.07
553.839	0.08
554.184	0.08
554.529	0.07
554.875	0.08
555.22	0.08
555.565	0.08
555.91	0.08
556.255	0.09
556.6	0.09
556.945	0.08
557.29	0.08
557.635	0.08
557.98	0.08
558.325	0.08
558.67	0.08
559.014	0.08
559.359	0.08
559.704	0.07
560.048	0.07
560.393	0.08
560.737	0.07
561.082	0.07
561.426	0.06
561.77	0.07
562.115	0.07
562.459	0.07
562.803	0.06
563.147	0.07
563.491	0.07
563.835	0.07
564.179	0.07
564.523	0.07
564.867	0.07
565.211	0.07
565.555	0.08
565.899	0.08
566.242	0.07
566.586	0.06
566.93	0.07
567.273	0.08
567.617	0.08
567.96	0.07
568.304	0.07
568.647	0.07
568.99	0.08
569.334	0.08
569.677	0.07
570.02	0.08
570.363	0.08
570.706	0.07
571.049	0.08
571.392	0.08
571.735	0.07
572.078	0.07
572.421	0.08
572.764	0.07
573.106	0.07
573.449	0.07
573.792	0.07
574.134	0.07
574.477	0.08
574.819	0.07
575.162	0.07
575.504	0.07
575.847	0.07
576.189	0.07
576.531	0.07
576.873	0.07
577.215	0.07
577.558	0.08
577.9	0.07
578.242	0.07
578.584	0.07
578.926	0.07
579.267	0.08
579.609	0.07
579.951	0.06
580.293	0.07
580.634	0.08
580.976	0.07
581.318	0.07
581.659	0.07
582.001	0.07
582.342	0.07
582.683	0.08
583.025	0.07
583.366	0.07
583.707	0.07
584.049	0.08
584.39	0.07
584.731	0.07
585.072	0.06
585.413	0.07
585.754	0.08
586.095	0.08
586.435	0.07
586.776	0.08
587.117	0.07
587.458	0.07
587.798	0.07
588.139	0.08
588.48	0.07
588.82	0.07
589.161	0.07
589.501	0.07
589.841	0.07
590.182	0.07
590.522	0.07
590.862	0.08
591.202	0.07
591.542	0.07
591.882	0.07
592.222	0.07
592.562	0.07
592.902	0.07
593.242	0.07
593.582	0.07
593.922	0.07
594.261	0.07
594.601	0.07
594.941	0.07
595.28	0.07
595.62	0.07
595.959	0.07
596.299	0.07
596.638	0.07
596.977	0.08
597.317	0.07
597.656	0.07
597.995	0.07
598.334	0.08
598.673	0.07
599.012	0.07
599.351	0.07
599.69	0.07
600.029	0.07
600.368	0.07
600.707	0.07
601.046	0.07
601.384	0.08
601.723	0.08
602.061	0.07
602.4	0.08
602.738	0.07
603.077	0.08
603.415	0.07
603.754	0.07
604.092	0.07
604.43	0.07
604.768	0.07
605.107	0.08
605.445	0.07
605.783	0.07
606.121	0.06
606.459	0.08
606.796	0.07
607.134	0.06
607.472	0.07
607.81	0.07
608.148	0.07
608.485	0.07
608.823	0.07
609.16	0.07
609.498	0.06
609.835	0.07
610.173	0.06
610.51	0.07
610.847	0.07
611.185	0.07
611.522	0.08
611.859	0.07
612.196	0.08
612.533	0.08
612.87	0.09
613.207	0.08
613.544	0.08
613.881	0.08
614.217	0.08
614.554	0.08
614.891	0.08
615.228	0.08
615.564	0.08
615.901	0.08
616.237	0.08
616.574	0.08
616.91	0.09
617.246	0.09
617.583	0.08
617.919	0.09
618.255	0.09
618.591	0.08
618.927	0.08
619.263	0.09
619.599	0.09
619.935	0.08
620.271	0.08
620.607	0.08
620.943	0.08
621.279	0.09
621.614	0.08
621.95	0.09
622.286	0.08
622.621	0.08
622.957	0.07
623.292	0.06
623.627	0.07
623.963	0.07
624.298	0.07
624.633	0.07
624.968	0.07
625.304	0.07
625.639	0.07
625.974	0.07
626.309	0.07
626.644	0.07
626.979	0.07
627.313	0.07
627.648	0.07
627.983	0.08
628.318	0.07
628.652	0.07
628.987	0.07
629.321	0.07
629.656	0.06
629.99	0.07
630.325	0.06
630.659	0.07
630.993	0.06
631.327	0.07
631.662	0.06
631.996	0.06
632.33	0.07
632.664	0.07
632.998	0.06
633.332	0.07
633.666	0.07
633.999	0.07
634.333	0.06
634.667	0.07
635.001	0.06
635.334	0.07
635.668	0.06
636.001	0.06
636.335	0.07
636.668	0.07
637.001	0.06
637.335	0.06
637.668	0.06
638.001	0.06
638.334	0.06
638.668	0.06
639.001	0.06
639.334	0.06
639.667	0.06
639.999	0.06
640.332	0.06
640.665	0.06
640.998	0.06
641.331	0.06
641.663	0.05
641.996	0.05
642.328	0.06
642.661	0.06
642.993	0.06
643.326	0.06
643.658	0.06
643.99	0.05
644.323	0.06
644.655	0.06
644.987	0.06
645.319	0.06
645.651	0.07
645.983	0.06
646.315	0.06
646.647	0.06
646.979	0.07
647.31	0.07
647.642	0.06
647.974	0.06
648.305	0.07
648.637	0.07
648.968	0.07
649.3	0.08
649.631	0.07
649.963	0.07
650.294	0.07
650.625	0.08
650.957	0.07
651.288	0.08
651.619	0.08
651.95	0.07
652.281	0.07
652.612	0.07
652.943	0.07
653.274	0.08
653.604	0.07
653.935	0.07
654.266	0.08
654.596	0.07
654.927	0.06
655.258	0.07
655.588	0.08
655.918	0.07
656.249	0.05
656.579	0.07
656.909	0.07
657.24	0.07
657.57	0.08
657.9	0.07
658.23	0.07
658.56	0.07
658.89	0.08
659.22	0.07
659.55	0.08
659.88	0.07
660.209	0.08
660.539	0.09
660.869	0.08
661.198	0.07
661.528	0.08
661.857	0.08
662.187	0.08
662.516	0.08
662.846	0.07
663.175	0.07
663.504	0.08
663.833	0.07
664.163	0.07
664.492	0.07
664.821	0.08
665.15	0.07
665.479	0.07
665.807	0.07
666.136	0.07
666.465	0.07
666.794	0.06
667.122	0.07
667.451	0.07
667.78	0.06
668.108	0.07
668.437	0.06
668.765	0.07
669.093	0.07
669.422	0.07
669.75	0.07
670.078	0.06
670.406	0.07
670.734	0.07
671.062	0.07
671.39	0.07
671.718	0.08
672.046	0.07
672.374	0.07
672.702	0.07
673.029	0.06
673.357	0.07
673.685	0.08
674.012	0.07
674.34	0.07
674.667	0.07
674.995	0.07
675.322	0.07
675.649	0.06
675.977	0.07
676.304	0.07
676.631	0.07
676.958	0.07
677.285	0.06
677.612	0.06
677.939	0.06
678.266	0.07
678.593	0.07
678.92	0.06
679.246	0.06
679.573	0.06
679.9	0.06
680.226	0.06
680.553	0.05
680.879	0.06
681.206	0.06
681.532	0.05
681.858	0.06
682.184	0.06
682.511	0.06
682.837	0.05
683.163	0.06
683.489	0.06
683.815	0.06
684.141	0.06
684.467	0.06
684.793	0.06
685.118	0.06
685.444	0.06
685.77	0.06
686.095	0.06
686.421	0.07
686.746	0.07
687.072	0.06
687.397	0.06
687.723	0.07
688.048	0.07
688.373	0.06
688.698	0.07
689.023	0.07
689.349	0.07
689.674	0.07
689.999	0.06
690.323	0.05
690.648	0.06
690.973	0.05
691.298	0.06
691.623	0.05
691.947	0.05
692.272	0.05
692.596	0.06
692.921	0.05
693.245	0.06
693.57	0.06
693.894	0.05
694.218	0.05
694.543	0.05
694.867	0.05
695.191	0.05
695.515	0.06
695.839	0.05
696.163	0.06
696.487	0.06
696.811	0.05
697.135	0.05
697.458	0.06
697.782	0.05
698.106	0.05
698.429	0.06
698.753	0.06
699.076	0.05
699.4	0.05
699.723	0.06
700.046	0.05
700.37	0.06
700.693	0.06
701.016	0.05
701.339	0.06
701.662	0.06
701.985	0.06
702.308	0.05
702.631	0.06
702.954	0.06
703.277	0.06
703.599	0.05
703.922	0.05
704.245	0.05
704.567	0.05
704.89	0.05
705.212	0.05
705.535	0.05
705.857	0.05
706.179	0.04
706.502	0.05
706.824	0.05
707.146	0.04
707.468	0.06
707.79	0.05
708.112	0.05
708.434	0.05
708.756	0.05
709.078	0.05
709.399	0.05
709.721	0.05
710.043	0.06
710.364	0.05
710.686	0.05
711.007	0.06
711.329	0.07
711.65	0.05
711.972	0.05
712.293	0.05
712.614	0.06
712.935	0.07
713.256	0.05
713.577	0.06
713.898	0.05
714.219	0.05
714.54	0.04
714.861	0.05
715.182	0.05
715.503	0.04
715.823	0.05
716.144	0.05
716.464	0.04
716.785	0.04
717.105	0.04
717.426	0.05
717.746	0.04
718.066	0.03
718.387	0.05
718.707	0.03
719.027	0.05
719.347	0.03
719.667	0.04
719.987	0.04
720.307	0.03
720.627	0.03
720.947	0.04
721.266	0.03
721.586	0.04
721.906	0.03
722.225	0.02
722.545	0.03
722.864	0.03
723.184	0.03
723.503	0.03
723.823	0.04
724.142	0.03
724.461	0.04
724.78	0.03
725.099	0.03
725.418	0.03
725.737	0.03
726.056	0.04
726.375	0.04
726.694	0.04
727.013	0.04
727.331	0.03
727.65	0.04
727.969	0.04
728.287	0.04
728.606	0.04
728.924	0.04
729.242	0.04
729.561	0.04
729.879	0.04
730.197	0.04
730.515	0.03
730.834	0.03
731.152	0.04
731.47	0.04
731.788	0.04
732.105	0.03
732.423	0.03
732.741	0.04
733.059	0.03
733.376	0.04
733.694	0.03
734.012	0.03
734.329	0.04
734.647	0.03
734.964	0.04
735.281	0.04
735.599	0.04
735.916	0.04
736.233	0.03
736.55	0.04
736.867	0.04
737.184	0.05
737.501	0.03
737.818	0.04
738.135	0.04
738.452	0.03
738.768	0.04
739.085	0.04
739.402	0.03
739.718	0.04
740.035	0.04
740.351	0.04
740.668	0.04
740.984	0.04
741.3	0.04
741.617	0.05
741.933	0.04
742.249	0.05
742.565	0.04
742.881	0.05
743.197	0.04
743.513	0.04
743.829	0.04
744.144	0.04
744.46	0.04
744.776	0.05
745.091	0.04
745.407	0.04
745.722	0.04
746.038	0.04
746.353	0.03
746.669	0.05
746.984	0.03
747.299	0.04
747.614	0.05
747.93	0.05
748.245	0.04
748.56	0.05
748.875	0.04
749.189	0.04
749.504	0.04
749.819	0.04
750.134	0.04
750.448	0.05
750.763	0.05
751.078	0.04
751.392	0.05
751.707	0.05
752.021	0.05
752.335	0.04
752.65	0.04
752.964	0.05
753.278	0.05
753.592	0.04
753.906	0.04
754.22	0.04
754.534	0.04
754.848	0.04
755.162	0.04
755.476	0.04
755.789	0.04
756.103	0.03
756.417	0.05
756.73	0.05
757.044	0.04
757.357	0.04
757.671	0.05
757.984	0.04
758.297	0.05
758.61	0.05
758.924	0.05
759.237	0.05
759.55	0.05
759.863	0.05
760.176	0.05
760.488	0.05
760.801	0.04
761.114	0.04
761.427	0.04
761.739	0.05
762.052	0.04
762.365	0.04
762.677	0.04
762.99	0.03
763.302	0.04
763.614	0.04
763.926	0.05
764.239	0.04
764.551	0.03
764.863	0.03
765.175	0.04
765.487	0.04
765.799	0.03
766.111	0.03
766.423	0.04
766.734	0.04
767.046	0.03
767.358	0.04
767.669	0.04
767.981	0.04
768.292	0.04
768.604	0.04
768.915	0.04
769.226	0.04
769.537	0.03
769.849	0.04
770.16	0.03
770.471	0.04
770.782	0.03
771.093	0.04
771.404	0.02
771.715	0.03
772.025	0.03
772.336	0.03
772.647	0.03
772.957	0.03
773.268	0.04
773.578	0.03
773.889	0.04
774.199	0.03
774.51	0.04
774.82	0.03
775.13	0.04
775.44	0.03
775.75	0.05
776.06	0.04
776.37	0.03
776.68	0.03
776.99	0.04
777.3	0.03
777.61	0.04
777.92	0.04
778.229	0.03
778.539	0.03
778.848	0.04
779.158	0.04
779.467	0.04
779.777	0.03
780.086	0.03
780.395	0.03
780.704	0.03
781.013	0.03
781.323	0.03
781.632	0.03
781.941	0.04
782.249	0.04
782.558	0.03
782.867	0.04
783.176	0.03
783.485	0.03
783.793	0.04
784.102	0.03
784.41	0.03
784.719	0.04
785.027	0.04
785.335	0.02
785.644	0.04
785.952	0.03
786.26	0.03
786.568	0.03
786.876	0.03
787.184	0.03
787.492	0.03
787.8	0.03
788.108	0.03
788.416	0.03
788.723	0.03
789.031	0.03
789.338	0.03
789.646	0.02
789.953	0.03
790.261	0.03
790.568	0.04
790.876	0.03
791.183	0.04
791.49	0.03
791.797	0.03
792.104	0.03
792.411	0.03
792.718	0.03
793.025	0.03
793.332	0.03
793.639	0.03
793.945	0.04
794.252	0.05
794.559	0.04
794.865	0.04
795.172	0.03
795.478	0.04
795.784	0.04
796.091	0.04
796.397	0.04
796.703	0.05
797.009	0.05
797.315	0.04
797.622	0.04
797.927	0.03
798.233	0.04
798.539	0.05
798.845	0.03
799.151	0.05
799.456	0.04
799.762	0.04
800.068	0.04
800.373	0.05
800.679	0.04
800.984	0.03
801.289	0.03
801.595	0.04
801.9	0.03
802.205	0.04
802.51	0.03
802.815	0.03
803.12	0.04
803.425	0.04
803.73	0.02
804.035	0.03
804.339	0.03
804.644	0.03
804.949	0.04
805.253	0.03
805.558	0.04
805.862	0.03
806.167	0.04
806.471	0.03
806.775	0.04
807.08	0.04
807.384	0.04
807.688	0.04
807.992	0.05
808.296	0.04
808.6	0.05
808.904	0.04
809.207	0.03
809.511	0.05
809.815	0.05
810.119	0.04
810.422	0.05
810.726	0.05
811.029	0.05
811.332	0.04
811.636	0.05
811.939	0.04
812.242	0.04
812.546	0.04
812.849	0.04
813.152	0.05
813.455	0.05
813.758	0.05
814.06	0.04
814.363	0.05
814.666	0.04
814.969	0.04
815.271	0.04
815.574	0.04
815.877	0.05
816.179	0.04
816.481	0.04
816.784	0.03
817.086	0.03
817.388	0.03
817.69	0.03
817.993	0.02
818.295	0.03
818.597	0.03
818.899	0.02
819.2	0.02
819.502	0.03
819.804	0.03
820.106	0.02
820.407	0.03
820.709	0.02
821.01	0.03
821.312	0.03
821.613	0.02
821.915	0.02
822.216	0.02
822.517	0.02
822.818	0.02
823.119	0.03
823.42	0.03
823.721	0.02
824.022	0.02
824.323	0.03
824.624	0.03
824.925	0.03
825.226	0.04
825.526	0.02
825.827	0.02
826.127	0.04
826.428	0.03
826.728	0.02
827.028	0.03
827.329	0.02
827.629	0.02
827.929	0.02
828.229	0.03
828.529	0.03
828.829	0.02
829.129	0.03
829.429	0.03
829.729	0.03
830.029	0.03
830.328	0.02
830.628	0.02
830.927	0.01
831.227	0.02
831.526	0.02
831.826	0.02
832.125	0.02
832.424	0.02
832.724	0.02
833.023	0.03
833.322	0.03
833.621	0.02
833.92	0.01
834.219	0.02
834.518	0.02
834.816	0.01
835.115	0.01
835.414	0.01
835.712	0.01
836.011	0.02
836.309	0.01
836.608	0.01
836.906	0
837.205	0
837.503	0
837.801	0
838.099	0
838.397	-0.01
838.695	-0
838.993	0
839.291	-0.01
839.589	-0
839.887	-0.01
840.184	-0.02
840.482	-0.01
840.78	-0.01
841.077	-0.03
841.375	-0.02
841.672	-0.02
841.969	-0.03
842.267	-0.03
842.564	-0.02
842.861	-0.03
843.158	-0.03
843.455	-0.04
843.752	-0.04
844.049	-0.04
844.346	-0.04
844.643	-0.04
844.94	-0.04
845.236	-0.04
845.533	-0.04
845.83	-0.03
846.126	-0.05
846.423	-0.05
846.719	-0.06
847.015	-0.05
847.312	-0.05
847.608	-0.06
847.904	-0.06
848.2	-0.06
848.496	-0.06
848.792	-0.06
849.088	-0.05
849.384	-0.07
849.68	-0.07
849.975	-0.07
850.271	-0.06
850.567	-0.07
850.862	-0.07
851.158	-0.07
851.453	-0.07
851.748	-0.08
852.044	-0.07
852.339	-0.07
852.634	-0.09
852.929	-0.07
853.224	-0.07
853.519	-0.08
853.814	-0.06
854.109	-0.08
854.404	-0.09
854.699	-0.08
854.994	-0.08
855.288	-0.07
855.583	-0.07
855.877	-0.09
856.172	-0.08
856.466	-0.08
856.76	-0.08
857.055	-0.08
857.349	-0.1
857.643	-0.1
857.937	-0.1
858.231	-0.1
858.525	-0.1
858.819	-0.11
859.113	-0.11
859.407	-0.1
859.701	-0.11
859.994	-0.12
860.288	-0.1
860.581	-0.11
860.875	-0.12
861.168	-0.12
861.462	-0.12
861.755	-0.11
862.048	-0.12
862.341	-0.11
862.634	-0.12
862.928	-0.12
863.221	-0.12
863.513	-0.12
863.806	-0.12
864.099	-0.13
864.392	-0.13
864.685	-0.12
864.977	-0.12
865.27	-0.13
865.562	-0.13
865.855	-0.11
866.147	-0.14
866.44	-0.13
866.732	-0.13
867.024	-0.14
867.316	-0.14
867.608	-0.15
867.9	-0.15
868.192	-0.15
868.484	-0.14
868.776	-0.14
869.068	-0.14
869.359	-0.15
869.651	-0.15
869.943	-0.16
870.234	-0.16
870.526	-0.15
870.817	-0.16
871.108	-0.15
871.4	-0.15
871.691	-0.17
871.982	-0.17
872.273	-0.19
872.564	-0.17
872.855	-0.16
873.146	-0.17
873.437	-0.18
873.728	-0.17
874.019	-0.17
874.309	-0.17
874.6	-0.18
874.89	-0.17
875.181	-0.19
875.471	-0.18
875.762	-0.18
876.052	-0.17
876.342	-0.17
876.632	-0.17
876.922	-0.18
877.213	-0.18
877.503	-0.2
877.792	-0.18
878.082	-0.18
878.372	-0.18
878.662	-0.19
878.952	-0.18
879.241	-0.18
879.531	-0.18
879.82	-0.18
880.11	-0.18
880.399	-0.18
880.688	-0.17
880.978	-0.17
881.267	-0.17
