Data from 12-12-AQDScycling_Absorbance__955__00955.txt Node

Date: Tue Dec 12 14:55:29 EST 2023
User: kyuminlee
Spectrometer: FLMS00943
Trigger mode: 0
Integration Time (sec): 1.000000E-1
Scans to average: 1
Electric dark correction enabled: true
Nonlinearity correction enabled: false
Boxcar width: 0
XAxis mode: Wavelengths
Number of Pixels in Spectrum: 2048
>>>>>Begin Spectral Data<<<<<
179.651	-0
180.037	-0
180.424	-0
180.81	-0
181.197	0.07
181.583	0.37
181.97	-0.56
182.356	-0
182.743	-0.56
183.129	-0.04
183.515	0.4
183.901	-2.08
184.288	0.06
184.674	-0
185.06	-0
185.446	-0
185.832	-1.12
186.218	0.03
186.604	0.4
186.99	-0
187.376	-0
187.762	-0.21
188.148	0.29
188.534	0.1
188.92	0.02
189.305	-0.02
189.691	0.07
190.077	0.17
190.463	0.03
190.848	-0.02
191.234	0.01
191.619	0.14
192.005	0.11
192.391	0.07
192.776	0.07
193.161	-0.01
193.547	0.07
193.932	-0.06
194.318	0.06
194.703	0.06
195.088	0.2
195.473	0.16
195.859	0.05
196.244	0.11
196.629	0.08
197.014	0.07
197.399	0.22
197.784	0.15
198.169	0.03
198.554	0.18
198.939	0.1
199.324	0.13
199.709	-0.03
200.094	0.13
200.478	-0.05
200.863	0.16
201.248	0.04
201.633	0.11
202.017	0.18
202.402	0.14
202.787	0.11
203.171	0.21
203.556	0.15
203.94	0.08
204.325	0.27
204.709	0.2
205.093	0.21
205.478	0.04
205.862	0.11
206.246	0.18
206.631	0.14
207.015	0.13
207.399	0.24
207.783	0.01
208.167	0.1
208.551	0.18
208.935	0.11
209.319	0.16
209.703	-0.03
210.087	0.15
210.471	0.05
210.855	0.08
211.239	0.21
211.623	0.26
212.007	0.23
212.39	0.32
212.774	0.11
213.158	0.06
213.541	0.29
213.925	0.17
214.309	0.23
214.692	0.24
215.076	0.28
215.459	0.09
215.842	0.01
216.226	0.19
216.609	0.31
216.993	0.13
217.376	0.61
217.759	0.13
218.142	0.29
218.525	0.42
218.909	0.33
219.292	0.43
219.675	0.32
220.058	0.43
220.441	0.45
220.824	0.48
221.207	0.43
221.59	0.41
221.973	0.63
222.355	0.69
222.738	0.64
223.121	0.59
223.504	0.45
223.886	0.77
224.269	0.6
224.652	0.57
225.034	0.77
225.417	0.64
225.799	0.79
226.182	0.87
226.564	0.95
226.947	0.77
227.329	0.73
227.711	0.96
228.094	0.94
228.476	0.71
228.858	0.83
229.24	0.82
229.623	0.79
230.005	0.81
230.387	0.89
230.769	0.77
231.151	0.9
231.533	0.91
231.915	0.89
232.297	1
232.679	0.85
233.061	1.08
233.442	1.08
233.824	1.01
234.206	1.09
234.588	0.96
234.969	0.93
235.351	0.93
235.733	0.94
236.114	1.07
236.496	1.01
236.877	1.03
237.259	1.01
237.64	1.01
238.022	0.88
238.403	0.96
238.784	1.05
239.165	1.01
239.547	1.05
239.928	0.96
240.309	1
240.69	1.05
241.071	1.09
241.452	1.12
241.834	1.06
242.215	1.03
242.595	0.91
242.976	1
243.357	1.07
243.738	1.01
244.119	1.32
244.5	1.04
244.881	1.17
245.261	1.13
245.642	1.1
246.023	1.14
246.403	1.13
246.784	1.2
247.164	1.13
247.545	1.2
247.925	1.2
248.306	1.07
248.686	1.3
249.067	1.1
249.447	1.3
249.827	1.47
250.207	1.43
250.588	1.26
250.968	1.4
251.348	1.26
251.728	1.24
252.108	1.46
252.488	1.41
252.868	1.38
253.248	1.36
253.628	1.29
254.008	1.45
254.388	1.2
254.768	1.54
255.147	1.35
255.527	1.43
255.907	1.28
256.287	1.3
256.666	1.3
257.046	1.36
257.425	1.46
257.805	1.3
258.184	1.27
258.564	1.32
258.943	1.35
259.323	1.49
259.702	1.55
260.081	1.42
260.461	1.4
260.84	1.39
261.219	1.66
261.598	1.44
261.977	1.33
262.356	1.39
262.736	1.31
263.115	1.44
263.494	1.48
263.873	1.48
264.251	1.42
264.63	1.44
265.009	1.46
265.388	1.38
265.767	1.36
266.145	1.41
266.524	1.38
266.903	1.36
267.281	1.36
267.66	1.52
268.039	1.38
268.417	1.44
268.796	1.38
269.174	1.31
269.552	1.28
269.931	1.42
270.309	1.34
270.687	1.48
271.066	1.57
271.444	1.39
271.822	1.41
272.2	1.28
272.578	1.45
272.956	1.4
273.334	1.35
273.712	1.34
274.09	1.35
274.468	1.28
274.846	1.26
275.224	1.31
275.602	1.48
275.98	1.54
276.357	1.34
276.735	1.47
277.113	1.42
277.49	1.34
277.868	1.27
278.246	1.34
278.623	1.28
279.001	1.42
279.378	1.35
279.756	1.4
280.133	1.48
280.51	1.32
280.888	1.38
281.265	1.35
281.642	1.51
282.019	1.59
282.396	1.52
282.773	1.37
283.151	1.46
283.528	1.36
283.905	1.35
284.282	1.49
284.659	1.79
285.035	1.28
285.412	1.26
285.789	1.49
286.166	1.4
286.543	1.46
286.919	1.51
287.296	1.36
287.673	1.47
288.049	1.47
288.426	1.62
288.802	1.41
289.179	1.44
289.555	1.72
289.932	1.45
290.308	1.35
290.684	1.34
291.061	1.34
291.437	1.45
291.813	1.39
292.189	1.34
292.565	1.3
292.942	1.32
293.318	1.39
293.694	1.29
294.07	1.25
294.446	1.44
294.822	1.45
295.197	1.33
295.573	1.35
295.949	1.45
296.325	1.51
296.701	1.59
297.076	1.54
297.452	1.61
297.828	1.4
298.203	1.51
298.579	1.37
298.954	1.39
299.33	1.42
299.705	1.46
300.081	1.46
300.456	1.5
300.831	1.41
301.206	1.35
301.582	1.65
301.957	1.46
302.332	1.6
302.707	1.51
303.082	1.42
303.457	1.48
303.832	1.46
304.207	1.55
304.582	1.49
304.957	1.52
305.332	1.54
305.707	1.42
306.082	1.46
306.456	1.65
306.831	1.47
307.206	1.53
307.58	1.62
307.955	1.4
308.33	1.49
308.704	1.47
309.079	1.5
309.453	1.77
309.828	1.54
310.202	1.4
310.576	1.52
310.951	1.53
311.325	1.53
311.699	1.48
312.073	1.47
312.447	1.41
312.821	1.51
313.196	1.51
313.57	1.37
313.944	1.43
314.317	1.38
314.691	1.62
315.065	1.44
315.439	1.72
315.813	1.59
316.187	1.44
316.56	1.52
316.934	1.66
317.308	1.43
317.681	1.44
318.055	1.59
318.428	1.39
318.802	1.5
319.175	1.54
319.549	1.46
319.922	1.38
320.295	1.4
320.669	1.69
321.042	1.61
321.415	1.62
321.788	1.45
322.162	1.59
322.535	1.61
322.908	1.63
323.281	1.38
323.654	1.59
324.027	1.64
324.4	1.73
324.773	1.39
325.145	1.55
325.518	1.4
325.891	1.46
326.264	1.49
326.636	1.4
327.009	1.45
327.382	1.32
327.754	1.46
328.127	1.39
328.499	1.54
328.872	1.47
329.244	1.45
329.616	1.45
329.989	1.4
330.361	1.58
330.733	1.5
331.106	1.38
331.478	1.61
331.85	1.46
332.222	1.42
332.594	1.48
332.966	1.5
333.338	1.54
333.71	1.49
334.082	1.53
334.454	1.43
334.826	1.52
335.197	1.65
335.569	1.61
335.941	1.37
336.312	1.49
336.684	1.4
337.056	1.45
337.427	1.57
337.799	1.55
338.17	1.49
338.542	1.45
338.913	1.55
339.284	1.59
339.656	1.51
340.027	1.62
340.398	1.54
340.769	1.4
341.141	1.7
341.512	1.48
341.883	1.52
342.254	1.47
342.625	1.52
342.996	1.43
343.367	1.46
343.738	1.46
344.108	1.36
344.479	1.56
344.85	1.5
345.221	1.59
345.591	1.39
345.962	1.41
346.333	1.39
346.703	1.2
347.074	1.37
347.444	1.38
347.815	1.47
348.185	1.57
348.556	1.36
348.926	1.29
349.296	1.38
349.666	1.37
350.037	1.36
350.407	1.23
350.777	1.28
351.147	1.32
351.517	1.29
351.887	1.34
352.257	1.4
352.627	1.22
352.997	1.2
353.367	1.36
353.737	1.32
354.106	1.37
354.476	1.29
354.846	1.32
355.216	1.39
355.585	1.32
355.955	1.24
356.324	1.28
356.694	1.24
357.063	1.23
357.433	1.17
357.802	1.18
358.171	1.15
358.541	1.2
358.91	1.16
359.279	1.16
359.648	1.1
360.017	1.1
360.387	1.12
360.756	1.08
361.125	1.05
361.494	0.99
361.863	0.95
362.231	0.92
362.6	0.92
362.969	0.91
363.338	0.87
363.707	0.89
364.075	0.88
364.444	0.82
364.813	0.83
365.181	0.79
365.55	0.78
365.918	0.79
366.287	0.74
366.655	0.73
367.024	0.74
367.392	0.72
367.76	0.65
368.128	0.67
368.497	0.65
368.865	0.66
369.233	0.61
369.601	0.57
369.969	0.61
370.337	0.57
370.705	0.56
371.073	0.56
371.441	0.55
371.809	0.52
372.177	0.51
372.544	0.51
372.912	0.49
373.28	0.48
373.647	0.47
374.015	0.48
374.383	0.45
374.75	0.46
375.118	0.45
375.485	0.43
375.853	0.42
376.22	0.41
376.587	0.42
376.955	0.4
377.322	0.37
377.689	0.38
378.056	0.38
378.423	0.36
378.79	0.38
379.157	0.35
379.524	0.35
379.891	0.35
380.258	0.36
380.625	0.32
380.992	0.34
381.359	0.32
381.726	0.33
382.092	0.33
382.459	0.32
382.826	0.31
383.192	0.31
383.559	0.3
383.925	0.3
384.292	0.28
384.658	0.3
385.025	0.27
385.391	0.28
385.757	0.29
386.123	0.3
386.49	0.29
386.856	0.28
387.222	0.28
387.588	0.27
387.954	0.28
388.32	0.27
388.686	0.25
389.052	0.25
389.418	0.26
389.784	0.26
390.15	0.26
390.515	0.25
390.881	0.26
391.247	0.25
391.613	0.26
391.978	0.24
392.344	0.25
392.709	0.24
393.075	0.25
393.44	0.23
393.806	0.25
394.171	0.23
394.536	0.24
394.902	0.24
395.267	0.21
395.632	0.22
395.997	0.22
396.362	0.23
396.727	0.24
397.092	0.23
397.457	0.22
397.822	0.23
398.187	0.22
398.552	0.21
398.917	0.21
399.282	0.23
399.646	0.21
400.011	0.23
400.376	0.21
400.74	0.22
401.105	0.22
401.47	0.21
401.834	0.21
402.199	0.22
402.563	0.18
402.927	0.2
403.292	0.21
403.656	0.22
404.02	0.21
404.384	0.21
404.749	0.22
405.113	0.21
405.477	0.19
405.841	0.2
406.205	0.2
406.569	0.19
406.933	0.2
407.296	0.19
407.66	0.21
408.024	0.19
408.388	0.2
408.752	0.19
409.115	0.19
409.479	0.2
409.842	0.18
410.206	0.18
410.569	0.18
410.933	0.17
411.296	0.19
411.66	0.19
412.023	0.18
412.386	0.18
412.749	0.18
413.113	0.18
413.476	0.15
413.839	0.16
414.202	0.16
414.565	0.15
414.928	0.16
415.291	0.15
415.654	0.16
416.017	0.18
416.38	0.16
416.742	0.16
417.105	0.15
417.468	0.15
417.83	0.16
418.193	0.16
418.556	0.16
418.918	0.17
419.281	0.14
419.643	0.16
420.005	0.16
420.368	0.15
420.73	0.14
421.092	0.14
421.455	0.14
421.817	0.13
422.179	0.14
422.541	0.14
422.903	0.14
423.265	0.14
423.627	0.13
423.989	0.14
424.351	0.12
424.713	0.13
425.075	0.12
425.436	0.13
425.798	0.12
426.16	0.12
426.521	0.14
426.883	0.14
427.245	0.12
427.606	0.12
427.967	0.14
428.329	0.12
428.69	0.14
429.052	0.14
429.413	0.14
429.774	0.13
430.135	0.12
430.497	0.11
430.858	0.12
431.219	0.1
431.58	0.12
431.941	0.11
432.302	0.12
432.663	0.12
433.024	0.13
433.384	0.13
433.745	0.11
434.106	0.11
434.467	0.13
434.827	0.13
435.188	0.13
435.548	0.13
435.909	0.12
436.269	0.12
436.63	0.11
436.99	0.12
437.351	0.12
437.711	0.12
438.071	0.11
438.431	0.11
438.792	0.11
439.152	0.11
439.512	0.11
439.872	0.11
440.232	0.12
440.592	0.13
440.952	0.11
441.312	0.11
441.671	0.11
442.031	0.11
442.391	0.11
442.751	0.12
443.11	0.1
443.47	0.1
443.83	0.1
444.189	0.1
444.549	0.1
444.908	0.12
445.267	0.11
445.627	0.1
445.986	0.09
446.345	0.09
446.705	0.09
447.064	0.1
447.423	0.1
447.782	0.09
448.141	0.09
448.5	0.09
448.859	0.1
449.218	0.09
449.577	0.1
449.936	0.11
450.295	0.1
450.653	0.1
451.012	0.11
451.371	0.1
451.729	0.1
452.088	0.1
452.447	0.1
452.805	0.1
453.163	0.1
453.522	0.11
453.88	0.09
454.239	0.1
454.597	0.09
454.955	0.09
455.313	0.09
455.671	0.1
456.029	0.09
456.388	0.09
456.746	0.09
457.104	0.08
457.461	0.08
457.819	0.09
458.177	0.08
458.535	0.08
458.893	0.08
459.25	0.08
459.608	0.08
459.966	0.08
460.323	0.07
460.681	0.07
461.038	0.08
461.396	0.08
461.753	0.07
462.111	0.07
462.468	0.07
462.825	0.07
463.182	0.07
463.54	0.07
463.897	0.08
464.254	0.07
464.611	0.07
464.968	0.07
465.325	0.08
465.682	0.06
466.039	0.08
466.395	0.07
466.752	0.06
467.109	0.07
467.466	0.07
467.822	0.08
468.179	0.07
468.535	0.07
468.892	0.07
469.248	0.06
469.605	0.06
469.961	0.07
470.318	0.08
470.674	0.07
471.03	0.07
471.386	0.07
471.743	0.06
472.099	0.07
472.455	0.07
472.811	0.06
473.167	0.07
473.523	0.06
473.879	0.06
474.235	0.07
474.59	0.06
474.946	0.07
475.302	0.07
475.657	0.06
476.013	0.06
476.369	0.06
476.724	0.06
477.08	0.07
477.435	0.06
477.791	0.07
478.146	0.07
478.501	0.06
478.857	0.07
479.212	0.07
479.567	0.06
479.922	0.05
480.277	0.05
480.632	0.05
480.987	0.06
481.342	0.06
481.697	0.05
482.052	0.05
482.407	0.06
482.762	0.05
483.116	0.05
483.471	0.05
483.826	0.05
484.18	0.05
484.535	0.05
484.89	0.04
485.244	0.05
485.598	0.05
485.953	0.05
486.307	0.05
486.661	0.05
487.016	0.05
487.37	0.05
487.724	0.05
488.078	0.05
488.432	0.05
488.786	0.05
489.14	0.05
489.494	0.04
489.848	0.05
490.202	0.05
490.556	0.05
490.91	0.04
491.263	0.05
491.617	0.05
491.971	0.05
492.324	0.04
492.678	0.05
493.031	0.05
493.385	0.05
493.738	0.05
494.091	0.05
494.445	0.05
494.798	0.05
495.151	0.04
495.504	0.04
495.857	0.04
496.21	0.05
496.564	0.05
496.916	0.05
497.269	0.04
497.622	0.05
497.975	0.04
498.328	0.05
498.681	0.05
499.033	0.04
499.386	0.04
499.739	0.04
500.091	0.04
500.444	0.04
500.796	0.04
501.149	0.04
501.501	0.03
501.854	0.04
502.206	0.04
502.558	0.04
502.91	0.04
503.263	0.04
503.615	0.04
503.967	0.04
504.319	0.04
504.671	0.04
505.023	0.03
505.375	0.04
505.726	0.04
506.078	0.04
506.43	0.04
506.782	0.04
507.133	0.03
507.485	0.04
507.837	0.05
508.188	0.05
508.54	0.05
508.891	0.05
509.243	0.04
509.594	0.04
509.945	0.04
510.296	0.04
510.648	0.04
510.999	0.04
511.35	0.04
511.701	0.04
512.052	0.04
512.403	0.04
512.754	0.04
513.105	0.04
513.456	0.04
513.807	0.04
514.157	0.04
514.508	0.04
514.859	0.03
515.209	0.04
515.56	0.04
515.91	0.04
516.261	0.04
516.611	0.04
516.962	0.04
517.312	0.04
517.662	0.04
518.013	0.04
518.363	0.04
518.713	0.04
519.063	0.04
519.413	0.04
519.763	0.04
520.113	0.04
520.463	0.05
520.813	0.05
521.163	0.05
521.512	0.04
521.862	0.04
522.212	0.04
522.562	0.04
522.911	0.04
523.261	0.04
523.61	0.04
523.96	0.04
524.309	0.05
524.658	0.05
525.008	0.04
525.357	0.04
525.706	0.04
526.056	0.05
526.405	0.04
526.754	0.04
527.103	0.04
527.452	0.04
527.801	0.04
528.15	0.04
528.499	0.04
528.847	0.04
529.196	0.05
529.545	0.05
529.893	0.06
530.242	0.05
530.591	0.05
530.939	0.05
531.288	0.05
531.636	0.05
531.985	0.05
532.333	0.05
532.681	0.05
533.029	0.05
533.378	0.05
533.726	0.05
534.074	0.05
534.422	0.04
534.77	0.05
535.118	0.04
535.466	0.05
535.814	0.04
536.162	0.04
536.509	0.05
536.857	0.05
537.205	0.05
537.552	0.06
537.9	0.05
538.248	0.04
538.595	0.05
538.943	0.05
539.29	0.05
539.637	0.04
539.985	0.05
540.332	0.05
540.679	0.05
541.026	0.04
541.373	0.05
541.721	0.04
542.068	0.04
542.415	0.04
542.762	0.05
543.108	0.03
543.455	0.03
543.802	0.04
544.149	0.04
544.496	0.04
544.842	0.04
545.189	0.03
545.535	0.04
545.882	0.04
546.228	0.04
546.575	0.03
546.921	0.03
547.267	0.03
547.614	0.03
547.96	0.03
548.306	0.03
548.652	0.03
548.998	0.04
549.344	0.03
549.69	0.03
550.036	0.03
550.382	0.03
550.728	0.03
551.074	0.04
551.42	0.03
551.765	0.03
552.111	0.04
552.457	0.04
552.802	0.04
553.148	0.04
553.493	0.04
553.839	0.04
554.184	0.04
554.529	0.03
554.875	0.04
555.22	0.05
555.565	0.04
555.91	0.05
556.255	0.05
556.6	0.04
556.945	0.04
557.29	0.04
557.635	0.04
557.98	0.04
558.325	0.04
558.67	0.04
559.014	0.04
559.359	0.04
559.704	0.04
560.048	0.03
560.393	0.03
560.737	0.03
561.082	0.04
561.426	0.03
561.77	0.03
562.115	0.03
562.459	0.03
562.803	0.03
563.147	0.04
563.491	0.04
563.835	0.04
564.179	0.04
564.523	0.03
564.867	0.03
565.211	0.03
565.555	0.04
565.899	0.04
566.242	0.03
566.586	0.03
566.93	0.04
567.273	0.04
567.617	0.04
567.96	0.04
568.304	0.04
568.647	0.04
568.99	0.05
569.334	0.04
569.677	0.04
570.02	0.04
570.363	0.04
570.706	0.04
571.049	0.04
571.392	0.05
571.735	0.04
572.078	0.04
572.421	0.05
572.764	0.04
573.106	0.04
573.449	0.04
573.792	0.04
574.134	0.04
574.477	0.04
574.819	0.04
575.162	0.04
575.504	0.03
575.847	0.03
576.189	0.04
576.531	0.03
576.873	0.03
577.215	0.03
577.558	0.04
577.9	0.03
578.242	0.03
578.584	0.04
578.926	0.03
579.267	0.03
579.609	0.04
579.951	0.04
580.293	0.03
580.634	0.04
580.976	0.04
581.318	0.03
581.659	0.03
582.001	0.04
582.342	0.03
582.683	0.04
583.025	0.03
583.366	0.03
583.707	0.04
584.049	0.04
584.39	0.04
584.731	0.03
585.072	0.04
585.413	0.04
585.754	0.04
586.095	0.04
586.435	0.04
586.776	0.04
587.117	0.03
587.458	0.04
587.798	0.03
588.139	0.03
588.48	0.03
588.82	0.03
589.161	0.03
589.501	0.04
589.841	0.03
590.182	0.03
590.522	0.02
590.862	0.03
591.202	0.03
591.542	0.03
591.882	0.03
592.222	0.03
592.562	0.03
592.902	0.03
593.242	0.03
593.582	0.04
593.922	0.04
594.261	0.03
594.601	0.03
594.941	0.03
595.28	0.04
595.62	0.04
595.959	0.04
596.299	0.03
596.638	0.02
596.977	0.03
597.317	0.04
597.656	0.03
597.995	0.03
598.334	0.04
598.673	0.04
599.012	0.03
599.351	0.04
599.69	0.04
600.029	0.05
600.368	0.05
600.707	0.04
601.046	0.05
601.384	0.04
601.723	0.05
602.061	0.04
602.4	0.04
602.738	0.04
603.077	0.04
603.415	0.03
603.754	0.04
604.092	0.04
604.43	0.03
604.768	0.04
605.107	0.04
605.445	0.04
605.783	0.04
606.121	0.03
606.459	0.04
606.796	0.03
607.134	0.03
607.472	0.03
607.81	0.03
608.148	0.03
608.485	0.04
608.823	0.04
609.16	0.03
609.498	0.04
609.835	0.04
610.173	0.04
610.51	0.03
610.847	0.04
611.185	0.04
611.522	0.04
611.859	0.04
612.196	0.04
612.533	0.04
612.87	0.04
613.207	0.05
613.544	0.05
613.881	0.04
614.217	0.05
614.554	0.05
614.891	0.04
615.228	0.04
615.564	0.04
615.901	0.05
616.237	0.05
616.574	0.05
616.91	0.05
617.246	0.05
617.583	0.05
617.919	0.05
618.255	0.05
618.591	0.05
618.927	0.05
619.263	0.06
619.599	0.05
619.935	0.05
620.271	0.06
620.607	0.05
620.943	0.05
621.279	0.06
621.614	0.05
621.95	0.05
622.286	0.05
622.621	0.05
622.957	0.05
623.292	0.04
623.627	0.04
623.963	0.05
624.298	0.04
624.633	0.04
624.968	0.04
625.304	0.04
625.639	0.04
625.974	0.04
626.309	0.04
626.644	0.04
626.979	0.05
627.313	0.05
627.648	0.05
627.983	0.05
628.318	0.04
628.652	0.04
628.987	0.04
629.321	0.05
629.656	0.04
629.99	0.03
630.325	0.04
630.659	0.04
630.993	0.03
631.327	0.04
631.662	0.03
631.996	0.03
632.33	0.03
632.664	0.03
632.998	0.03
633.332	0.03
633.666	0.04
633.999	0.03
634.333	0.03
634.667	0.03
635.001	0.02
635.334	0.03
635.668	0.03
636.001	0.03
636.335	0.03
636.668	0.03
637.001	0.02
637.335	0.03
637.668	0.03
638.001	0.03
638.334	0.03
638.668	0.03
639.001	0.03
639.334	0.03
639.667	0.03
639.999	0.02
640.332	0.03
640.665	0.02
640.998	0.03
641.331	0.04
641.663	0.03
641.996	0.03
642.328	0.03
642.661	0.04
642.993	0.04
643.326	0.03
643.658	0.03
643.99	0.03
644.323	0.03
644.655	0.04
644.987	0.04
645.319	0.04
645.651	0.04
645.983	0.04
646.315	0.04
646.647	0.05
646.979	0.05
647.31	0.05
647.642	0.05
647.974	0.05
648.305	0.05
648.637	0.04
648.968	0.04
649.3	0.04
649.631	0.04
649.963	0.04
650.294	0.05
650.625	0.04
650.957	0.04
651.288	0.04
651.619	0.05
651.95	0.04
652.281	0.04
652.612	0.04
652.943	0.04
653.274	0.05
653.604	0.05
653.935	0.05
654.266	0.05
654.596	0.04
654.927	0.05
655.258	0.05
655.588	0.05
655.918	0.05
656.249	0.03
656.579	0.04
656.909	0.04
657.24	0.04
657.57	0.05
657.9	0.04
658.23	0.04
658.56	0.04
658.89	0.04
659.22	0.04
659.55	0.04
659.88	0.05
660.209	0.04
660.539	0.05
660.869	0.05
661.198	0.04
661.528	0.04
661.857	0.04
662.187	0.04
662.516	0.05
662.846	0.04
663.175	0.04
663.504	0.04
663.833	0.04
664.163	0.04
664.492	0.04
664.821	0.04
665.15	0.04
665.479	0.04
665.807	0.04
666.136	0.04
666.465	0.04
666.794	0.04
667.122	0.04
667.451	0.04
667.78	0.05
668.108	0.05
668.437	0.04
668.765	0.04
669.093	0.05
669.422	0.05
669.75	0.05
670.078	0.05
670.406	0.05
670.734	0.05
671.062	0.04
671.39	0.05
671.718	0.05
672.046	0.05
672.374	0.05
672.702	0.05
673.029	0.04
673.357	0.05
673.685	0.06
674.012	0.05
674.34	0.04
674.667	0.06
674.995	0.05
675.322	0.05
675.649	0.04
675.977	0.05
676.304	0.05
676.631	0.04
676.958	0.05
677.285	0.04
677.612	0.04
677.939	0.05
678.266	0.05
678.593	0.05
678.92	0.05
679.246	0.04
679.573	0.04
679.9	0.04
680.226	0.04
680.553	0.04
680.879	0.05
681.206	0.05
681.532	0.05
681.858	0.05
682.184	0.05
682.511	0.05
682.837	0.05
683.163	0.05
683.489	0.05
683.815	0.05
684.141	0.05
684.467	0.05
684.793	0.05
685.118	0.04
685.444	0.05
685.77	0.05
686.095	0.05
686.421	0.05
686.746	0.05
687.072	0.05
687.397	0.04
687.723	0.06
688.048	0.05
688.373	0.04
688.698	0.05
689.023	0.04
689.349	0.04
689.674	0.04
689.999	0.03
690.323	0.04
690.648	0.04
690.973	0.03
691.298	0.04
691.623	0.04
691.947	0.03
692.272	0.03
692.596	0.04
692.921	0.04
693.245	0.04
693.57	0.04
693.894	0.05
694.218	0.04
694.543	0.04
694.867	0.04
695.191	0.04
695.515	0.05
695.839	0.04
696.163	0.04
696.487	0.04
696.811	0.05
697.135	0.05
697.458	0.05
697.782	0.04
698.106	0.04
698.429	0.05
698.753	0.04
699.076	0.05
699.4	0.05
699.723	0.04
700.046	0.04
700.37	0.05
700.693	0.05
701.016	0.05
701.339	0.05
701.662	0.05
701.985	0.05
702.308	0.05
702.631	0.05
702.954	0.04
703.277	0.05
703.599	0.04
703.922	0.04
704.245	0.04
704.567	0.04
704.89	0.04
705.212	0.04
705.535	0.03
705.857	0.03
706.179	0.03
706.502	0.04
706.824	0.03
707.146	0.03
707.468	0.04
707.79	0.04
708.112	0.04
708.434	0.04
708.756	0.05
709.078	0.03
709.399	0.04
709.721	0.04
710.043	0.04
710.364	0.04
710.686	0.05
711.007	0.04
711.329	0.05
711.65	0.04
711.972	0.05
712.293	0.04
712.614	0.05
712.935	0.05
713.256	0.05
713.577	0.06
713.898	0.05
714.219	0.04
714.54	0.04
714.861	0.04
715.182	0.04
715.503	0.05
715.823	0.05
716.144	0.04
716.464	0.04
716.785	0.04
717.105	0.04
717.426	0.05
717.746	0.04
718.066	0.03
718.387	0.04
718.707	0.03
719.027	0.05
719.347	0.03
719.667	0.04
719.987	0.03
720.307	0.03
720.627	0.04
720.947	0.03
721.266	0.04
721.586	0.03
721.906	0.03
722.225	0.03
722.545	0.03
722.864	0.03
723.184	0.04
723.503	0.03
723.823	0.04
724.142	0.03
724.461	0.03
724.78	0.04
725.099	0.03
725.418	0.04
725.737	0.03
726.056	0.04
726.375	0.04
726.694	0.04
727.013	0.04
727.331	0.03
727.65	0.04
727.969	0.04
728.287	0.04
728.606	0.04
728.924	0.04
729.242	0.04
729.561	0.03
729.879	0.04
730.197	0.04
730.515	0.04
730.834	0.04
731.152	0.04
731.47	0.03
731.788	0.04
732.105	0.03
732.423	0.04
732.741	0.04
733.059	0.04
733.376	0.04
733.694	0.04
734.012	0.04
734.329	0.05
734.647	0.04
734.964	0.05
735.281	0.05
735.599	0.05
735.916	0.05
736.233	0.04
736.55	0.05
736.867	0.05
737.184	0.05
737.501	0.05
737.818	0.05
738.135	0.05
738.452	0.05
738.768	0.05
739.085	0.05
739.402	0.04
739.718	0.04
740.035	0.05
740.351	0.05
740.668	0.05
740.984	0.05
741.3	0.04
741.617	0.05
741.933	0.04
742.249	0.05
742.565	0.05
742.881	0.05
743.197	0.05
743.513	0.04
743.829	0.03
744.144	0.04
744.46	0.04
744.776	0.05
745.091	0.04
745.407	0.04
745.722	0.04
746.038	0.05
746.353	0.03
746.669	0.05
746.984	0.03
747.299	0.04
747.614	0.05
747.93	0.04
748.245	0.04
748.56	0.04
748.875	0.04
749.189	0.04
749.504	0.03
749.819	0.04
750.134	0.03
750.448	0.03
750.763	0.03
751.078	0.03
751.392	0.04
751.707	0.04
752.021	0.05
752.335	0.05
752.65	0.05
752.964	0.03
753.278	0.04
753.592	0.04
753.906	0.03
754.22	0.04
754.534	0.05
754.848	0.04
755.162	0.04
755.476	0.04
755.789	0.04
756.103	0.03
756.417	0.04
756.73	0.04
757.044	0.04
757.357	0.04
757.671	0.04
757.984	0.04
758.297	0.04
758.61	0.04
758.924	0.03
759.237	0.04
759.55	0.03
759.863	0.03
760.176	0.04
760.488	0.03
760.801	0.03
761.114	0.04
761.427	0.03
761.739	0.04
762.052	0.03
762.365	0.04
762.677	0.04
762.99	0.03
763.302	0.04
763.614	0.04
763.926	0.04
764.239	0.04
764.551	0.04
764.863	0.04
765.175	0.04
765.487	0.04
765.799	0.04
766.111	0.03
766.423	0.03
766.734	0.04
767.046	0.03
767.358	0.04
767.669	0.04
767.981	0.03
768.292	0.04
768.604	0.04
768.915	0.03
769.226	0.04
769.537	0.03
769.849	0.04
770.16	0.03
770.471	0.03
770.782	0.03
771.093	0.04
771.404	0.02
771.715	0.02
772.025	0.03
772.336	0.02
772.647	0.02
772.957	0.03
773.268	0.03
773.578	0.03
773.889	0.04
774.199	0.05
774.51	0.04
774.82	0.04
775.13	0.04
775.44	0.04
775.75	0.04
776.06	0.04
776.37	0.04
776.68	0.05
776.99	0.04
777.3	0.04
777.61	0.05
777.92	0.04
778.229	0.05
778.539	0.04
778.848	0.04
779.158	0.05
779.467	0.05
779.777	0.05
780.086	0.05
780.395	0.04
780.704	0.04
781.013	0.04
781.323	0.04
781.632	0.05
781.941	0.05
782.249	0.04
782.558	0.03
782.867	0.05
783.176	0.03
783.485	0.04
783.793	0.04
784.102	0.04
784.41	0.04
784.719	0.05
785.027	0.05
785.335	0.04
785.644	0.05
785.952	0.04
786.26	0.05
786.568	0.04
786.876	0.04
787.184	0.03
787.492	0.05
787.8	0.05
788.108	0.04
788.416	0.04
788.723	0.05
789.031	0.04
789.338	0.04
789.646	0.04
789.953	0.05
790.261	0.05
790.568	0.05
790.876	0.04
791.183	0.05
791.49	0.04
791.797	0.04
792.104	0.04
792.411	0.05
792.718	0.04
793.025	0.04
793.332	0.05
793.639	0.05
793.945	0.05
794.252	0.05
794.559	0.04
794.865	0.05
795.172	0.04
795.478	0.04
795.784	0.05
796.091	0.05
796.397	0.05
796.703	0.04
797.009	0.05
797.315	0.05
797.622	0.05
797.927	0.05
798.233	0.04
798.539	0.06
798.845	0.05
799.151	0.05
799.456	0.05
799.762	0.04
800.068	0.05
800.373	0.06
800.679	0.05
800.984	0.05
801.289	0.05
801.595	0.05
801.9	0.04
802.205	0.05
802.51	0.05
802.815	0.05
803.12	0.05
803.425	0.05
803.73	0.05
804.035	0.05
804.339	0.04
804.644	0.04
804.949	0.05
805.253	0.04
805.558	0.05
805.862	0.04
806.167	0.04
806.471	0.04
806.775	0.05
807.08	0.05
807.384	0.05
807.688	0.05
807.992	0.05
808.296	0.05
808.6	0.05
808.904	0.05
809.207	0.05
809.511	0.06
809.815	0.06
810.119	0.05
810.422	0.06
810.726	0.06
811.029	0.06
811.332	0.06
811.636	0.06
811.939	0.05
812.242	0.05
812.546	0.06
812.849	0.05
813.152	0.06
813.455	0.05
813.758	0.05
814.06	0.05
814.363	0.05
814.666	0.06
814.969	0.05
815.271	0.05
815.574	0.05
815.877	0.05
816.179	0.05
816.481	0.05
816.784	0.06
817.086	0.04
817.388	0.04
817.69	0.04
817.993	0.04
818.295	0.04
818.597	0.05
818.899	0.03
819.2	0.03
819.502	0.03
819.804	0.04
820.106	0.04
820.407	0.03
820.709	0.04
821.01	0.04
821.312	0.04
821.613	0.03
821.915	0.03
822.216	0.03
822.517	0.02
822.818	0.03
823.119	0.03
823.42	0.04
823.721	0.03
824.022	0.03
824.323	0.03
824.624	0.03
824.925	0.04
825.226	0.05
825.526	0.04
825.827	0.03
826.127	0.04
826.428	0.03
826.728	0.02
827.028	0.03
827.329	0.03
827.629	0.02
827.929	0.03
828.229	0.03
828.529	0.03
828.829	0.02
829.129	0.03
829.429	0.03
829.729	0.03
830.029	0.02
830.328	0.03
830.628	0.02
830.927	0.01
831.227	0.03
831.526	0.03
831.826	0.03
832.125	0.03
832.424	0.02
832.724	0.03
833.023	0.02
833.322	0.02
833.621	0.02
833.92	0.02
834.219	0.02
834.518	0.02
834.816	0.01
835.115	0.02
835.414	0.02
835.712	0.01
836.011	0.01
836.309	0.01
836.608	0.01
836.906	0.01
837.205	0
837.503	-0
837.801	0.01
838.099	-0
838.397	-0.01
838.695	-0.01
838.993	-0.01
839.291	-0.02
839.589	-0.01
839.887	-0.01
840.184	-0.02
840.482	-0.02
840.78	-0.02
841.077	-0.02
841.375	-0.02
841.672	-0.01
841.969	-0.01
842.267	-0.02
842.564	-0.02
842.861	-0.02
843.158	-0.02
843.455	-0.03
843.752	-0.02
844.049	-0.02
844.346	-0.02
844.643	-0.03
844.94	-0.03
845.236	-0.01
845.533	-0.03
845.83	-0.03
846.126	-0.03
846.423	-0.03
846.719	-0.03
847.015	-0.03
847.312	-0.04
847.608	-0.04
847.904	-0.05
848.2	-0.05
848.496	-0.04
848.792	-0.04
849.088	-0.03
849.384	-0.05
849.68	-0.06
849.975	-0.05
850.271	-0.06
850.567	-0.06
850.862	-0.05
851.158	-0.07
851.453	-0.06
851.748	-0.06
852.044	-0.06
852.339	-0.06
852.634	-0.07
852.929	-0.06
853.224	-0.07
853.519	-0.06
853.814	-0.06
854.109	-0.07
854.404	-0.07
854.699	-0.07
854.994	-0.07
855.288	-0.06
855.583	-0.06
855.877	-0.07
856.172	-0.06
856.466	-0.06
856.76	-0.07
857.055	-0.07
857.349	-0.08
857.643	-0.08
857.937	-0.08
858.231	-0.08
858.525	-0.09
858.819	-0.09
859.113	-0.09
859.407	-0.09
859.701	-0.1
859.994	-0.1
860.288	-0.09
860.581	-0.1
860.875	-0.11
861.168	-0.1
861.462	-0.1
861.755	-0.1
862.048	-0.11
862.341	-0.11
862.634	-0.1
862.928	-0.11
863.221	-0.11
863.513	-0.12
863.806	-0.11
864.099	-0.12
864.392	-0.12
864.685	-0.11
864.977	-0.11
865.27	-0.12
865.562	-0.12
865.855	-0.11
866.147	-0.11
866.44	-0.11
866.732	-0.12
867.024	-0.13
867.316	-0.12
867.608	-0.14
867.9	-0.12
868.192	-0.13
868.484	-0.12
868.776	-0.13
869.068	-0.13
869.359	-0.14
869.651	-0.14
869.943	-0.15
870.234	-0.15
870.526	-0.15
870.817	-0.15
871.108	-0.15
871.4	-0.14
871.691	-0.15
871.982	-0.15
872.273	-0.16
872.564	-0.16
872.855	-0.16
873.146	-0.15
873.437	-0.16
873.728	-0.16
874.019	-0.16
874.309	-0.16
874.6	-0.15
874.89	-0.16
875.181	-0.17
875.471	-0.15
875.762	-0.16
876.052	-0.16
876.342	-0.14
876.632	-0.17
876.922	-0.16
877.213	-0.16
877.503	-0.19
877.792	-0.17
878.082	-0.18
878.372	-0.17
878.662	-0.17
878.952	-0.18
879.241	-0.17
879.531	-0.16
879.82	-0.16
880.11	-0.17
880.399	-0.17
880.688	-0.16
880.978	-0.16
881.267	-0.16
