Data from 12-12-AQDScycling_Absorbance__558__00558.txt Node

Date: Tue Dec 12 13:16:14 EST 2023
User: kyuminlee
Spectrometer: FLMS00943
Trigger mode: 0
Integration Time (sec): 1.000000E-1
Scans to average: 1
Electric dark correction enabled: true
Nonlinearity correction enabled: false
Boxcar width: 0
XAxis mode: Wavelengths
Number of Pixels in Spectrum: 2048
>>>>>Begin Spectral Data<<<<<
179.651	0.28
180.037	0.28
180.424	0.28
180.81	-0.06
181.197	0.35
181.583	-0
181.97	-0.03
182.356	-0
182.743	-0
183.129	-0
183.515	-0
183.901	-2.1
184.288	0.46
184.674	-0
185.06	-1.06
185.446	0.35
185.832	-1.11
186.218	0.13
186.604	0.07
186.99	-0
187.376	-0
187.762	0.23
188.148	0.55
188.534	0.34
188.92	0.04
189.305	0.09
189.691	0.15
190.077	0.19
190.463	0.14
190.848	0.05
191.234	0.07
191.619	0.11
192.005	0.14
192.391	0.2
192.776	0.21
193.161	0.06
193.547	0.12
193.932	0.09
194.318	0.03
194.703	0.13
195.088	0.18
195.473	0.16
195.859	0.18
196.244	0.19
196.629	0.09
197.014	0.07
197.399	0.14
197.784	0.24
198.169	0.24
198.554	0.12
198.939	0.11
199.324	0.07
199.709	0.16
200.094	0.19
200.478	0.19
200.863	0.27
201.248	0.15
201.633	0.16
202.017	0.13
202.402	0.39
202.787	0.02
203.171	0.13
203.556	0.16
203.94	0.15
204.325	0.17
204.709	0.18
205.093	0.12
205.478	0.09
205.862	0.17
206.246	0.09
206.631	0.2
207.015	0.05
207.399	0.21
207.783	0.1
208.167	0.2
208.551	0.26
208.935	0.19
209.319	0.15
209.703	0.2
210.087	0.32
210.471	0.19
210.855	0.04
211.239	0.44
211.623	0.27
212.007	0.34
212.39	0.2
212.774	0.2
213.158	0.11
213.541	0.37
213.925	0.23
214.309	0.43
214.692	0.28
215.076	0.29
215.459	0.19
215.842	0.17
216.226	0.21
216.609	0.29
216.993	0.15
217.376	0.32
217.759	0.22
218.142	0.29
218.525	0.47
218.909	0.33
219.292	0.37
219.675	0.43
220.058	0.58
220.441	0.57
220.824	0.4
221.207	0.57
221.59	0.4
221.973	0.53
222.355	0.57
222.738	0.67
223.121	0.46
223.504	0.56
223.886	0.69
224.269	0.66
224.652	0.61
225.034	0.79
225.417	0.7
225.799	0.78
226.182	0.94
226.564	0.95
226.947	0.76
227.329	0.81
227.711	0.86
228.094	0.91
228.476	0.93
228.858	0.83
229.24	0.86
229.623	0.91
230.005	0.8
230.387	0.85
230.769	0.92
231.151	0.94
231.533	1
231.915	0.96
232.297	0.92
232.679	0.92
233.061	0.99
233.442	1
233.824	1.1
234.206	0.99
234.588	1.06
234.969	1.13
235.351	0.9
235.733	1.12
236.114	1.16
236.496	1.01
236.877	1.12
237.259	1.05
237.64	1.1
238.022	0.94
238.403	0.99
238.784	1.02
239.165	1.04
239.547	1.05
239.928	0.98
240.309	1.14
240.69	1.06
241.071	1.01
241.452	1.13
241.834	0.98
242.215	1.08
242.595	1.1
242.976	1.08
243.357	1.07
243.738	1.03
244.119	1.27
244.5	1.1
244.881	1.25
245.261	1.26
245.642	1.19
246.023	1.11
246.403	1.16
246.784	1.19
247.164	1.28
247.545	1.26
247.925	1.23
248.306	1.1
248.686	1.37
249.067	1.27
249.447	1.39
249.827	1.71
250.207	1.24
250.588	1.33
250.968	1.46
251.348	1.28
251.728	1.55
252.108	1.28
252.488	1.42
252.868	1.32
253.248	1.33
253.628	1.45
254.008	1.54
254.388	1.27
254.768	1.37
255.147	1.5
255.527	1.51
255.907	1.25
256.287	1.48
256.666	1.41
257.046	1.55
257.425	1.47
257.805	1.32
258.184	1.37
258.564	1.38
258.943	1.42
259.323	1.51
259.702	1.41
260.081	1.59
260.461	1.47
260.84	1.45
261.219	1.87
261.598	1.53
261.977	1.42
262.356	1.43
262.736	1.42
263.115	1.46
263.494	1.41
263.873	1.46
264.251	1.42
264.63	1.53
265.009	1.42
265.388	1.3
265.767	1.4
266.145	1.42
266.524	1.37
266.903	1.33
267.281	1.39
267.66	1.5
268.039	1.44
268.417	1.37
268.796	1.45
269.174	1.37
269.552	1.32
269.931	1.51
270.309	1.39
270.687	1.61
271.066	1.46
271.444	1.38
271.822	1.43
272.2	1.46
272.578	1.32
272.956	1.4
273.334	1.38
273.712	1.39
274.09	1.51
274.468	1.29
274.846	1.29
275.224	1.38
275.602	1.36
275.98	1.63
276.357	1.36
276.735	1.43
277.113	1.36
277.49	1.37
277.868	1.27
278.246	1.42
278.623	1.25
279.001	1.4
279.378	1.4
279.756	1.44
280.133	1.58
280.51	1.4
280.888	1.39
281.265	1.34
281.642	1.52
282.019	1.57
282.396	1.58
282.773	1.45
283.151	1.53
283.528	1.47
283.905	1.43
284.282	1.47
284.659	1.47
285.035	1.37
285.412	1.36
285.789	1.55
286.166	1.54
286.543	1.5
286.919	1.53
287.296	1.32
287.673	1.56
288.049	1.61
288.426	1.63
288.802	1.56
289.179	1.4
289.555	1.62
289.932	1.48
290.308	1.24
290.684	1.31
291.061	1.25
291.437	1.49
291.813	1.44
292.189	1.29
292.565	1.37
292.942	1.31
293.318	1.39
293.694	1.37
294.07	1.29
294.446	1.31
294.822	1.56
295.197	1.5
295.573	1.45
295.949	1.48
296.325	1.4
296.701	1.43
297.076	1.47
297.452	1.46
297.828	1.35
298.203	1.48
298.579	1.35
298.954	1.38
299.33	1.41
299.705	1.32
300.081	1.44
300.456	1.35
300.831	1.25
301.206	1.29
301.582	1.44
301.957	1.31
302.332	1.38
302.707	1.19
303.082	1.24
303.457	1.32
303.832	1.2
304.207	1.15
304.582	1.2
304.957	1.18
305.332	1.23
305.707	1.14
306.082	1.13
306.456	1.16
306.831	1.1
307.206	1.13
307.58	1.1
307.955	1.05
308.33	1.05
308.704	1.03
309.079	1.01
309.453	1.08
309.828	1.03
310.202	0.96
310.576	0.94
310.951	1
311.325	0.96
311.699	0.94
312.073	0.9
312.447	0.92
312.821	0.93
313.196	0.93
313.57	0.85
313.944	0.86
314.317	0.89
314.691	0.88
315.065	0.88
315.439	0.89
315.813	0.91
316.187	0.9
316.56	0.89
316.934	0.91
317.308	0.85
317.681	0.86
318.055	0.89
318.428	0.85
318.802	0.84
319.175	0.83
319.549	0.84
319.922	0.81
320.295	0.87
320.669	0.89
321.042	0.86
321.415	0.88
321.788	0.83
322.162	0.79
322.535	0.85
322.908	0.81
323.281	0.83
323.654	0.81
324.027	0.81
324.4	0.86
324.773	0.86
325.145	0.87
325.518	0.81
325.891	0.84
326.264	0.88
326.636	0.82
327.009	0.86
327.382	0.87
327.754	0.88
328.127	0.88
328.499	0.84
328.872	0.86
329.244	0.89
329.616	0.84
329.989	0.88
330.361	0.86
330.733	0.87
331.106	0.85
331.478	0.9
331.85	0.9
332.222	0.85
332.594	0.89
332.966	0.89
333.338	0.95
333.71	0.91
334.082	0.98
334.454	0.96
334.826	0.97
335.197	0.97
335.569	0.97
335.941	0.91
336.312	0.96
336.684	0.94
337.056	0.97
337.427	1.03
337.799	1.01
338.17	1
338.542	0.99
338.913	1.04
339.284	1.03
339.656	1.01
340.027	1.05
340.398	1.03
340.769	1.05
341.141	1.13
341.512	1
341.883	1.08
342.254	1.07
342.625	1.15
342.996	1.07
343.367	1.12
343.738	1.09
344.108	1.12
344.479	1.14
344.85	1.06
345.221	1.11
345.591	1.14
345.962	1.12
346.333	1.18
346.703	1.09
347.074	1.12
347.444	1.15
347.815	1.23
348.185	1.17
348.556	1.07
348.926	1.16
349.296	1.17
349.666	1.13
350.037	1.2
350.407	1.11
350.777	1.18
351.147	1.28
351.517	1.25
351.887	1.3
352.257	1.29
352.627	1.2
352.997	1.23
353.367	1.27
353.737	1.4
354.106	1.34
354.476	1.28
354.846	1.46
355.216	1.41
355.585	1.47
355.955	1.32
356.324	1.5
356.694	1.43
357.063	1.47
357.433	1.45
357.802	1.5
358.171	1.51
358.541	1.47
358.91	1.53
359.279	1.5
359.648	1.5
360.017	1.51
360.387	1.54
360.756	1.37
361.125	1.63
361.494	1.61
361.863	1.47
362.231	1.52
362.6	1.43
362.969	1.57
363.338	1.41
363.707	1.64
364.075	1.75
364.444	1.42
364.813	1.44
365.181	1.49
365.55	1.51
365.918	1.64
366.287	1.54
366.655	1.62
367.024	1.59
367.392	1.67
367.76	1.55
368.128	1.56
368.497	1.62
368.865	1.63
369.233	1.56
369.601	1.46
369.969	1.67
370.337	1.59
370.705	1.54
371.073	1.48
371.441	1.59
371.809	1.45
372.177	1.5
372.544	1.45
372.912	1.62
373.28	1.52
373.647	1.61
374.015	1.63
374.383	1.72
374.75	2.01
375.118	1.55
375.485	1.63
375.853	1.66
376.22	1.51
376.587	1.52
376.955	1.53
377.322	1.68
377.689	1.52
378.056	1.52
378.423	1.57
378.79	1.59
379.157	1.7
379.524	1.55
379.891	1.54
380.258	1.62
380.625	1.64
380.992	1.62
381.359	1.48
381.726	1.87
382.092	1.52
382.459	1.53
382.826	1.51
383.192	1.55
383.559	1.55
383.925	1.64
384.292	1.51
384.658	1.82
385.025	1.44
385.391	1.7
385.757	1.6
386.123	1.56
386.49	1.53
386.856	1.6
387.222	1.68
387.588	1.56
387.954	1.79
388.32	1.58
388.686	1.6
389.052	1.45
389.418	1.73
389.784	1.47
390.15	1.67
390.515	1.41
390.881	1.62
391.247	1.53
391.613	1.71
391.978	1.45
392.344	1.73
392.709	1.56
393.075	1.61
393.44	1.54
393.806	1.49
394.171	1.47
394.536	1.57
394.902	1.7
395.267	1.64
395.632	1.51
395.997	1.53
396.362	1.5
396.727	1.55
397.092	1.57
397.457	1.71
397.822	1.45
398.187	1.53
398.552	1.58
398.917	1.69
399.282	1.48
399.646	1.56
400.011	1.7
400.376	1.46
400.74	1.55
401.105	1.71
401.47	1.58
401.834	1.49
402.199	1.58
402.563	1.66
402.927	1.59
403.292	1.59
403.656	1.6
404.02	1.56
404.384	1.68
404.749	1.65
405.113	1.76
405.477	1.65
405.841	1.63
406.205	1.53
406.569	1.61
406.933	1.56
407.296	1.53
407.66	1.5
408.024	1.63
408.388	1.6
408.752	1.61
409.115	1.72
409.479	1.66
409.842	1.58
410.206	1.51
410.569	1.6
410.933	1.53
411.296	1.37
411.66	1.53
412.023	1.54
412.386	1.5
412.749	1.5
413.113	1.64
413.476	1.35
413.839	1.43
414.202	1.53
414.565	1.42
414.928	1.41
415.291	1.43
415.654	1.4
416.017	1.44
416.38	1.4
416.742	1.45
417.105	1.44
417.468	1.43
417.83	1.46
418.193	1.48
418.556	1.46
418.918	1.44
419.281	1.5
419.643	1.54
420.005	1.48
420.368	1.49
420.73	1.51
421.092	1.56
421.455	1.62
421.817	1.43
422.179	1.54
422.541	1.54
422.903	1.6
423.265	1.65
423.627	1.51
423.989	1.47
424.351	1.57
424.713	1.53
425.075	1.48
425.436	1.52
425.798	1.44
426.16	1.55
426.521	1.53
426.883	1.5
427.245	1.55
427.606	1.44
427.967	1.5
428.329	1.61
428.69	1.52
429.052	1.55
429.413	1.56
429.774	1.55
430.135	1.59
430.497	1.62
430.858	1.56
431.219	1.59
431.58	1.47
431.941	1.47
432.302	1.49
432.663	1.48
433.024	1.6
433.384	1.57
433.745	1.4
434.106	1.51
434.467	1.53
434.827	1.42
435.188	1.51
435.548	1.6
435.909	1.56
436.269	1.63
436.63	1.55
436.99	1.48
437.351	1.44
437.711	1.5
438.071	1.44
438.431	1.43
438.792	1.57
439.152	1.44
439.512	1.4
439.872	1.43
440.232	1.51
440.592	1.44
440.952	1.51
441.312	1.41
441.671	1.43
442.031	1.5
442.391	1.43
442.751	1.44
443.11	1.43
443.47	1.4
443.83	1.34
444.189	1.37
444.549	1.37
444.908	1.33
445.267	1.31
445.627	1.45
445.986	1.38
446.345	1.32
446.705	1.33
447.064	1.42
447.423	1.3
447.782	1.3
448.141	1.3
448.5	1.3
448.859	1.29
449.218	1.35
449.577	1.32
449.936	1.29
450.295	1.3
450.653	1.28
451.012	1.26
451.371	1.25
451.729	1.26
452.088	1.27
452.447	1.22
452.805	1.22
453.163	1.26
453.522	1.2
453.88	1.2
454.239	1.17
454.597	1.18
454.955	1.2
455.313	1.19
455.671	1.17
456.029	1.16
456.388	1.13
456.746	1.13
457.104	1.13
457.461	1.09
457.819	1.08
458.177	1.07
458.535	1.05
458.893	1.06
459.25	1.03
459.608	1.02
459.966	0.99
460.323	0.99
460.681	0.97
461.038	0.95
461.396	0.95
461.753	0.94
462.111	0.93
462.468	0.91
462.825	0.9
463.182	0.89
463.54	0.87
463.897	0.88
464.254	0.86
464.611	0.85
464.968	0.83
465.325	0.82
465.682	0.8
466.039	0.8
466.395	0.79
466.752	0.79
467.109	0.77
467.466	0.75
467.822	0.74
468.179	0.71
468.535	0.72
468.892	0.71
469.248	0.69
469.605	0.68
469.961	0.68
470.318	0.68
470.674	0.64
471.03	0.65
471.386	0.63
471.743	0.61
472.099	0.62
472.455	0.61
472.811	0.59
473.167	0.59
473.523	0.56
473.879	0.57
474.235	0.55
474.59	0.54
474.946	0.54
475.302	0.53
475.657	0.51
476.013	0.51
476.369	0.49
476.724	0.49
477.08	0.47
477.435	0.47
477.791	0.46
478.146	0.46
478.501	0.45
478.857	0.44
479.212	0.44
479.567	0.43
479.922	0.42
480.277	0.41
480.632	0.4
480.987	0.4
481.342	0.39
481.697	0.38
482.052	0.37
482.407	0.37
482.762	0.35
483.116	0.36
483.471	0.34
483.826	0.33
484.18	0.33
484.535	0.32
484.89	0.32
485.244	0.32
485.598	0.31
485.953	0.31
486.307	0.29
486.661	0.3
487.016	0.29
487.37	0.28
487.724	0.28
488.078	0.27
488.432	0.27
488.786	0.27
489.14	0.26
489.494	0.25
489.848	0.25
490.202	0.24
490.556	0.24
490.91	0.23
491.263	0.23
491.617	0.23
491.971	0.23
492.324	0.22
492.678	0.22
493.031	0.22
493.385	0.21
493.738	0.21
494.091	0.21
494.445	0.2
494.798	0.2
495.151	0.2
495.504	0.2
495.857	0.19
496.21	0.19
496.564	0.18
496.916	0.18
497.269	0.18
497.622	0.18
497.975	0.17
498.328	0.17
498.681	0.17
499.033	0.16
499.386	0.16
499.739	0.16
500.091	0.16
500.444	0.15
500.796	0.15
501.149	0.14
501.501	0.15
501.854	0.15
502.206	0.14
502.558	0.14
502.91	0.15
503.263	0.15
503.615	0.14
503.967	0.14
504.319	0.14
504.671	0.14
505.023	0.13
505.375	0.13
505.726	0.13
506.078	0.14
506.43	0.13
506.782	0.12
507.133	0.13
507.485	0.13
507.837	0.14
508.188	0.13
508.54	0.13
508.891	0.13
509.243	0.12
509.594	0.12
509.945	0.12
510.296	0.11
510.648	0.12
510.999	0.11
511.35	0.12
511.701	0.12
512.052	0.12
512.403	0.12
512.754	0.11
513.105	0.11
513.456	0.11
513.807	0.11
514.157	0.11
514.508	0.11
514.859	0.11
515.209	0.11
515.56	0.11
515.91	0.1
516.261	0.11
516.611	0.11
516.962	0.11
517.312	0.11
517.662	0.11
518.013	0.1
518.363	0.11
518.713	0.11
519.063	0.11
519.413	0.1
519.763	0.1
520.113	0.1
520.463	0.11
520.813	0.11
521.163	0.11
521.512	0.11
521.862	0.1
522.212	0.11
522.562	0.11
522.911	0.1
523.261	0.1
523.61	0.1
523.96	0.11
524.309	0.11
524.658	0.1
525.008	0.1
525.357	0.1
525.706	0.1
526.056	0.1
526.405	0.1
526.754	0.1
527.103	0.1
527.452	0.1
527.801	0.1
528.15	0.1
528.499	0.1
528.847	0.1
529.196	0.1
529.545	0.11
529.893	0.1
530.242	0.1
530.591	0.11
530.939	0.11
531.288	0.11
531.636	0.11
531.985	0.1
532.333	0.11
532.681	0.1
533.029	0.11
533.378	0.1
533.726	0.11
534.074	0.11
534.422	0.1
534.77	0.1
535.118	0.11
535.466	0.1
535.814	0.1
536.162	0.11
536.509	0.11
536.857	0.1
537.205	0.11
537.552	0.1
537.9	0.11
538.248	0.1
538.595	0.1
538.943	0.11
539.29	0.1
539.637	0.1
539.985	0.1
540.332	0.1
540.679	0.1
541.026	0.1
541.373	0.11
541.721	0.1
542.068	0.1
542.415	0.11
542.762	0.09
543.108	0.09
543.455	0.1
543.802	0.09
544.149	0.09
544.496	0.09
544.842	0.09
545.189	0.08
545.535	0.08
545.882	0.09
546.228	0.09
546.575	0.08
546.921	0.09
547.267	0.08
547.614	0.09
547.96	0.09
548.306	0.09
548.652	0.09
548.998	0.1
549.344	0.09
549.69	0.09
550.036	0.09
550.382	0.09
550.728	0.09
551.074	0.09
551.42	0.1
551.765	0.1
552.111	0.11
552.457	0.1
552.802	0.09
553.148	0.09
553.493	0.09
553.839	0.09
554.184	0.1
554.529	0.08
554.875	0.1
555.22	0.09
555.565	0.1
555.91	0.09
556.255	0.1
556.6	0.1
556.945	0.09
557.29	0.09
557.635	0.1
557.98	0.1
558.325	0.1
558.67	0.1
559.014	0.1
559.359	0.1
559.704	0.1
560.048	0.08
560.393	0.1
560.737	0.08
561.082	0.1
561.426	0.08
561.77	0.09
562.115	0.09
562.459	0.09
562.803	0.1
563.147	0.09
563.491	0.09
563.835	0.1
564.179	0.09
564.523	0.09
564.867	0.09
565.211	0.1
565.555	0.09
565.899	0.1
566.242	0.09
566.586	0.09
566.93	0.09
567.273	0.09
567.617	0.09
567.96	0.09
568.304	0.09
568.647	0.09
568.99	0.09
569.334	0.1
569.677	0.09
570.02	0.1
570.363	0.1
570.706	0.09
571.049	0.1
571.392	0.1
571.735	0.1
572.078	0.1
572.421	0.1
572.764	0.1
573.106	0.1
573.449	0.09
573.792	0.09
574.134	0.09
574.477	0.09
574.819	0.1
575.162	0.09
575.504	0.09
575.847	0.1
576.189	0.09
576.531	0.09
576.873	0.09
577.215	0.09
577.558	0.1
577.9	0.09
578.242	0.09
578.584	0.1
578.926	0.09
579.267	0.09
579.609	0.09
579.951	0.09
580.293	0.09
580.634	0.09
580.976	0.09
581.318	0.09
581.659	0.09
582.001	0.09
582.342	0.09
582.683	0.09
583.025	0.08
583.366	0.08
583.707	0.09
584.049	0.09
584.39	0.08
584.731	0.08
585.072	0.08
585.413	0.09
585.754	0.09
586.095	0.09
586.435	0.09
586.776	0.09
587.117	0.09
587.458	0.08
587.798	0.09
588.139	0.09
588.48	0.08
588.82	0.08
589.161	0.08
589.501	0.08
589.841	0.09
590.182	0.08
590.522	0.08
590.862	0.09
591.202	0.09
591.542	0.09
591.882	0.09
592.222	0.09
592.562	0.09
592.902	0.09
593.242	0.09
593.582	0.09
593.922	0.09
594.261	0.09
594.601	0.09
594.941	0.09
595.28	0.09
595.62	0.09
595.959	0.08
596.299	0.09
596.638	0.09
596.977	0.09
597.317	0.09
597.656	0.09
597.995	0.09
598.334	0.1
598.673	0.1
599.012	0.09
599.351	0.1
599.69	0.09
600.029	0.1
600.368	0.09
600.707	0.09
601.046	0.09
601.384	0.09
601.723	0.1
602.061	0.09
602.4	0.09
602.738	0.09
603.077	0.1
603.415	0.09
603.754	0.1
604.092	0.1
604.43	0.09
604.768	0.09
605.107	0.09
605.445	0.09
605.783	0.08
606.121	0.08
606.459	0.09
606.796	0.08
607.134	0.08
607.472	0.09
607.81	0.1
608.148	0.08
608.485	0.1
608.823	0.09
609.16	0.09
609.498	0.09
609.835	0.08
610.173	0.08
610.51	0.09
610.847	0.08
611.185	0.09
611.522	0.09
611.859	0.1
612.196	0.1
612.533	0.1
612.87	0.1
613.207	0.09
613.544	0.09
613.881	0.1
614.217	0.09
614.554	0.1
614.891	0.09
615.228	0.1
615.564	0.1
615.901	0.1
616.237	0.1
616.574	0.09
616.91	0.1
617.246	0.1
617.583	0.1
617.919	0.1
618.255	0.11
618.591	0.1
618.927	0.1
619.263	0.1
619.599	0.1
619.935	0.1
620.271	0.11
620.607	0.1
620.943	0.09
621.279	0.1
621.614	0.09
621.95	0.1
622.286	0.1
622.621	0.09
622.957	0.1
623.292	0.1
623.627	0.1
623.963	0.09
624.298	0.1
624.633	0.09
624.968	0.09
625.304	0.09
625.639	0.09
625.974	0.09
626.309	0.08
626.644	0.09
626.979	0.09
627.313	0.09
627.648	0.09
627.983	0.1
628.318	0.09
628.652	0.08
628.987	0.09
629.321	0.09
629.656	0.08
629.99	0.07
630.325	0.09
630.659	0.08
630.993	0.08
631.327	0.08
631.662	0.07
631.996	0.08
632.33	0.08
632.664	0.08
632.998	0.08
633.332	0.08
633.666	0.08
633.999	0.08
634.333	0.08
634.667	0.08
635.001	0.08
635.334	0.08
635.668	0.08
636.001	0.07
636.335	0.08
636.668	0.08
637.001	0.07
637.335	0.08
637.668	0.08
638.001	0.08
638.334	0.08
638.668	0.08
639.001	0.07
639.334	0.08
639.667	0.08
639.999	0.08
640.332	0.08
640.665	0.07
640.998	0.08
641.331	0.08
641.663	0.08
641.996	0.08
642.328	0.08
642.661	0.08
642.993	0.08
643.326	0.07
643.658	0.07
643.99	0.07
644.323	0.07
644.655	0.07
644.987	0.07
645.319	0.08
645.651	0.08
645.983	0.08
646.315	0.07
646.647	0.07
646.979	0.08
647.31	0.08
647.642	0.08
647.974	0.08
648.305	0.08
648.637	0.08
648.968	0.08
649.3	0.08
649.631	0.08
649.963	0.08
650.294	0.08
650.625	0.08
650.957	0.08
651.288	0.08
651.619	0.09
651.95	0.08
652.281	0.08
652.612	0.08
652.943	0.08
653.274	0.09
653.604	0.08
653.935	0.09
654.266	0.08
654.596	0.08
654.927	0.08
655.258	0.08
655.588	0.08
655.918	0.08
656.249	0.06
656.579	0.08
656.909	0.08
657.24	0.07
657.57	0.07
657.9	0.08
658.23	0.08
658.56	0.08
658.89	0.08
659.22	0.07
659.55	0.08
659.88	0.08
660.209	0.08
660.539	0.08
660.869	0.08
661.198	0.08
661.528	0.08
661.857	0.08
662.187	0.08
662.516	0.08
662.846	0.08
663.175	0.07
663.504	0.07
663.833	0.08
664.163	0.08
664.492	0.07
664.821	0.08
665.15	0.08
665.479	0.08
665.807	0.08
666.136	0.08
666.465	0.08
666.794	0.08
667.122	0.08
667.451	0.08
667.78	0.08
668.108	0.08
668.437	0.08
668.765	0.07
669.093	0.08
669.422	0.08
669.75	0.08
670.078	0.08
670.406	0.08
670.734	0.08
671.062	0.08
671.39	0.07
671.718	0.08
672.046	0.08
672.374	0.07
672.702	0.07
673.029	0.07
673.357	0.08
673.685	0.08
674.012	0.07
674.34	0.07
674.667	0.07
674.995	0.08
675.322	0.08
675.649	0.07
675.977	0.08
676.304	0.07
676.631	0.07
676.958	0.08
677.285	0.07
677.612	0.07
677.939	0.08
678.266	0.08
678.593	0.08
678.92	0.08
679.246	0.07
679.573	0.07
679.9	0.07
680.226	0.07
680.553	0.07
680.879	0.08
681.206	0.07
681.532	0.07
681.858	0.08
682.184	0.07
682.511	0.08
682.837	0.07
683.163	0.08
683.489	0.07
683.815	0.08
684.141	0.07
684.467	0.07
684.793	0.06
685.118	0.07
685.444	0.07
685.77	0.07
686.095	0.08
686.421	0.07
686.746	0.07
687.072	0.07
687.397	0.07
687.723	0.08
688.048	0.08
688.373	0.07
688.698	0.08
689.023	0.07
689.349	0.07
689.674	0.07
689.999	0.07
690.323	0.07
690.648	0.07
690.973	0.06
691.298	0.07
691.623	0.07
691.947	0.07
692.272	0.07
692.596	0.07
692.921	0.08
693.245	0.07
693.57	0.07
693.894	0.08
694.218	0.07
694.543	0.07
694.867	0.07
695.191	0.07
695.515	0.07
695.839	0.07
696.163	0.08
696.487	0.07
696.811	0.07
697.135	0.08
697.458	0.07
697.782	0.08
698.106	0.07
698.429	0.07
698.753	0.07
699.076	0.07
699.4	0.07
699.723	0.07
700.046	0.07
700.37	0.07
700.693	0.07
701.016	0.07
701.339	0.07
701.662	0.08
701.985	0.07
702.308	0.07
702.631	0.07
702.954	0.07
703.277	0.07
703.599	0.07
703.922	0.07
704.245	0.07
704.567	0.07
704.89	0.07
705.212	0.07
705.535	0.06
705.857	0.06
706.179	0.06
706.502	0.06
706.824	0.06
707.146	0.06
707.468	0.07
707.79	0.06
708.112	0.07
708.434	0.07
708.756	0.07
709.078	0.07
709.399	0.06
709.721	0.06
710.043	0.06
710.364	0.07
710.686	0.07
711.007	0.06
711.329	0.07
711.65	0.06
711.972	0.07
712.293	0.07
712.614	0.07
712.935	0.07
713.256	0.07
713.577	0.08
713.898	0.07
714.219	0.06
714.54	0.07
714.861	0.06
715.182	0.06
715.503	0.06
715.823	0.06
716.144	0.06
716.464	0.05
716.785	0.06
717.105	0.06
717.426	0.07
717.746	0.06
718.066	0.05
718.387	0.06
718.707	0.05
719.027	0.06
719.347	0.05
719.667	0.05
719.987	0.05
720.307	0.05
720.627	0.05
720.947	0.05
721.266	0.06
721.586	0.05
721.906	0.06
722.225	0.05
722.545	0.05
722.864	0.05
723.184	0.06
723.503	0.06
723.823	0.06
724.142	0.05
724.461	0.05
724.78	0.06
725.099	0.06
725.418	0.05
725.737	0.05
726.056	0.05
726.375	0.06
726.694	0.06
727.013	0.06
727.331	0.05
727.65	0.06
727.969	0.05
728.287	0.05
728.606	0.06
728.924	0.05
729.242	0.05
729.561	0.05
729.879	0.05
730.197	0.06
730.515	0.05
730.834	0.05
731.152	0.06
731.47	0.06
731.788	0.05
732.105	0.06
732.423	0.06
732.741	0.06
733.059	0.05
733.376	0.06
733.694	0.06
734.012	0.05
734.329	0.06
734.647	0.06
734.964	0.06
735.281	0.07
735.599	0.07
735.916	0.06
736.233	0.06
736.55	0.06
736.867	0.06
737.184	0.07
737.501	0.05
737.818	0.07
738.135	0.07
738.452	0.06
738.768	0.05
739.085	0.05
739.402	0.04
739.718	0.06
740.035	0.05
740.351	0.06
740.668	0.06
740.984	0.05
741.3	0.06
741.617	0.05
741.933	0.05
742.249	0.06
742.565	0.06
742.881	0.06
743.197	0.06
743.513	0.06
743.829	0.05
744.144	0.05
744.46	0.05
744.776	0.05
745.091	0.05
745.407	0.05
745.722	0.04
746.038	0.04
746.353	0.04
746.669	0.04
746.984	0.04
747.299	0.04
747.614	0.04
747.93	0.05
748.245	0.04
748.56	0.04
748.875	0.04
749.189	0.05
749.504	0.05
749.819	0.05
750.134	0.05
750.448	0.05
750.763	0.05
751.078	0.04
751.392	0.05
751.707	0.05
752.021	0.06
752.335	0.06
752.65	0.06
752.964	0.05
753.278	0.06
753.592	0.05
753.906	0.05
754.22	0.06
754.534	0.05
754.848	0.05
755.162	0.05
755.476	0.05
755.789	0.06
756.103	0.05
756.417	0.06
756.73	0.06
757.044	0.05
757.357	0.06
757.671	0.05
757.984	0.06
758.297	0.06
758.61	0.06
758.924	0.06
759.237	0.05
759.55	0.05
759.863	0.06
760.176	0.06
760.488	0.05
760.801	0.05
761.114	0.05
761.427	0.05
761.739	0.05
762.052	0.05
762.365	0.05
762.677	0.05
762.99	0.04
763.302	0.05
763.614	0.05
763.926	0.05
764.239	0.05
764.551	0.05
764.863	0.05
765.175	0.05
765.487	0.05
765.799	0.04
766.111	0.05
766.423	0.05
766.734	0.05
767.046	0.05
767.358	0.06
767.669	0.06
767.981	0.05
768.292	0.06
768.604	0.05
768.915	0.05
769.226	0.04
769.537	0.04
769.849	0.05
770.16	0.05
770.471	0.04
770.782	0.04
771.093	0.05
771.404	0.04
771.715	0.04
772.025	0.04
772.336	0.05
772.647	0.04
772.957	0.04
773.268	0.05
773.578	0.04
773.889	0.06
774.199	0.06
774.51	0.06
774.82	0.04
775.13	0.05
775.44	0.05
775.75	0.06
776.06	0.05
776.37	0.05
776.68	0.05
776.99	0.05
777.3	0.05
777.61	0.05
777.92	0.05
778.229	0.05
778.539	0.05
778.848	0.05
779.158	0.05
779.467	0.05
779.777	0.04
780.086	0.04
780.395	0.04
780.704	0.04
781.013	0.03
781.323	0.04
781.632	0.05
781.941	0.05
782.249	0.04
782.558	0.04
782.867	0.03
783.176	0.03
783.485	0.03
783.793	0.04
784.102	0.04
784.41	0.04
784.719	0.04
785.027	0.04
785.335	0.04
785.644	0.04
785.952	0.04
786.26	0.05
786.568	0.04
786.876	0.04
787.184	0.04
787.492	0.05
787.8	0.04
788.108	0.05
788.416	0.04
788.723	0.05
789.031	0.03
789.338	0.04
789.646	0.04
789.953	0.04
790.261	0.04
790.568	0.04
790.876	0.05
791.183	0.05
791.49	0.04
791.797	0.04
792.104	0.04
792.411	0.05
792.718	0.04
793.025	0.04
793.332	0.05
793.639	0.05
793.945	0.05
794.252	0.05
794.559	0.05
794.865	0.06
795.172	0.05
795.478	0.05
795.784	0.06
796.091	0.06
796.397	0.05
796.703	0.05
797.009	0.06
797.315	0.05
797.622	0.06
797.927	0.06
798.233	0.05
798.539	0.06
798.845	0.05
799.151	0.06
799.456	0.06
799.762	0.05
800.068	0.06
800.373	0.06
800.679	0.05
800.984	0.06
801.289	0.05
801.595	0.06
801.9	0.06
802.205	0.05
802.51	0.05
802.815	0.06
803.12	0.05
803.425	0.06
803.73	0.05
804.035	0.06
804.339	0.05
804.644	0.05
804.949	0.05
805.253	0.05
805.558	0.06
805.862	0.05
806.167	0.05
806.471	0.05
806.775	0.04
807.08	0.05
807.384	0.05
807.688	0.05
807.992	0.05
808.296	0.05
808.6	0.05
808.904	0.05
809.207	0.05
809.511	0.05
809.815	0.06
810.119	0.05
810.422	0.06
810.726	0.07
811.029	0.07
811.332	0.06
811.636	0.06
811.939	0.06
812.242	0.06
812.546	0.07
812.849	0.06
813.152	0.07
813.455	0.07
813.758	0.07
814.06	0.07
814.363	0.06
814.666	0.07
814.969	0.06
815.271	0.07
815.574	0.06
815.877	0.06
816.179	0.06
816.481	0.05
816.784	0.05
817.086	0.06
817.388	0.04
817.69	0.05
817.993	0.04
818.295	0.05
818.597	0.05
818.899	0.04
819.2	0.04
819.502	0.04
819.804	0.05
820.106	0.04
820.407	0.03
820.709	0.04
821.01	0.04
821.312	0.05
821.613	0.03
821.915	0.04
822.216	0.04
822.517	0.03
822.818	0.04
823.119	0.05
823.42	0.04
823.721	0.03
824.022	0.03
824.323	0.03
824.624	0.04
824.925	0.04
825.226	0.04
825.526	0.04
825.827	0.04
826.127	0.03
826.428	0.03
826.728	0.03
827.028	0.04
827.329	0.04
827.629	0.03
827.929	0.04
828.229	0.04
828.529	0.04
828.829	0.04
829.129	0.04
829.429	0.03
829.729	0.04
830.029	0.03
830.328	0.04
830.628	0.02
830.927	0.02
831.227	0.03
831.526	0.03
831.826	0.03
832.125	0.03
832.424	0.03
832.724	0.03
833.023	0.03
833.322	0.03
833.621	0.03
833.92	0.02
834.219	0.02
834.518	0.03
834.816	0.02
835.115	0.02
835.414	0.02
835.712	0.02
836.011	0.01
836.309	0.01
836.608	0.02
836.906	0.01
837.205	0
837.503	0
837.801	0
838.099	-0
838.397	-0.01
838.695	-0.01
838.993	-0
839.291	-0.01
839.589	-0.01
839.887	-0.01
840.184	-0.01
840.482	-0.01
840.78	-0
841.077	-0.02
841.375	-0.01
841.672	-0
841.969	-0.01
842.267	-0.01
842.564	-0.01
842.861	-0.01
843.158	-0.01
843.455	-0.03
843.752	-0.02
844.049	-0.02
844.346	-0.02
844.643	-0.03
844.94	-0.02
845.236	-0.02
845.533	-0.02
845.83	-0.02
846.126	-0.03
846.423	-0.03
846.719	-0.03
847.015	-0.02
847.312	-0.03
847.608	-0.04
847.904	-0.04
848.2	-0.05
848.496	-0.04
848.792	-0.03
849.088	-0.02
849.384	-0.04
849.68	-0.04
849.975	-0.03
850.271	-0.05
850.567	-0.05
850.862	-0.05
851.158	-0.04
851.453	-0.04
851.748	-0.06
852.044	-0.05
852.339	-0.05
852.634	-0.06
852.929	-0.05
853.224	-0.06
853.519	-0.06
853.814	-0.05
854.109	-0.06
854.404	-0.06
854.699	-0.06
854.994	-0.05
855.288	-0.06
855.583	-0.06
855.877	-0.07
856.172	-0.06
856.466	-0.07
856.76	-0.07
857.055	-0.07
857.349	-0.08
857.643	-0.09
857.937	-0.09
858.231	-0.09
858.525	-0.09
858.819	-0.09
859.113	-0.1
859.407	-0.11
859.701	-0.11
859.994	-0.11
860.288	-0.09
860.581	-0.1
860.875	-0.11
861.168	-0.1
861.462	-0.11
861.755	-0.11
862.048	-0.11
862.341	-0.1
862.634	-0.11
862.928	-0.11
863.221	-0.11
863.513	-0.12
863.806	-0.12
864.099	-0.12
864.392	-0.12
864.685	-0.11
864.977	-0.11
865.27	-0.12
865.562	-0.12
865.855	-0.11
866.147	-0.12
866.44	-0.11
866.732	-0.11
867.024	-0.12
867.316	-0.12
867.608	-0.13
867.9	-0.12
868.192	-0.13
868.484	-0.12
868.776	-0.12
869.068	-0.13
869.359	-0.13
869.651	-0.13
869.943	-0.14
870.234	-0.14
870.526	-0.14
870.817	-0.15
871.108	-0.13
871.4	-0.14
871.691	-0.14
871.982	-0.15
872.273	-0.16
872.564	-0.15
872.855	-0.15
873.146	-0.16
873.437	-0.15
873.728	-0.18
874.019	-0.16
874.309	-0.17
874.6	-0.17
874.89	-0.17
875.181	-0.17
875.471	-0.16
875.762	-0.16
876.052	-0.16
876.342	-0.16
876.632	-0.16
876.922	-0.16
877.213	-0.17
877.503	-0.18
877.792	-0.17
878.082	-0.17
878.372	-0.16
878.662	-0.19
878.952	-0.17
879.241	-0.16
879.531	-0.16
879.82	-0.16
880.11	-0.16
880.399	-0.17
880.688	-0.15
880.978	-0.15
881.267	-0.15
