Data from 12-12-AQDScycling_Absorbance__941__00941.txt Node

Date: Tue Dec 12 14:51:59 EST 2023
User: kyuminlee
Spectrometer: FLMS00943
Trigger mode: 0
Integration Time (sec): 1.000000E-1
Scans to average: 1
Electric dark correction enabled: true
Nonlinearity correction enabled: false
Boxcar width: 0
XAxis mode: Wavelengths
Number of Pixels in Spectrum: 2048
>>>>>Begin Spectral Data<<<<<
179.651	-0
180.037	-0
180.424	-0
180.81	0.45
181.197	0.2
181.583	-0.43
181.97	-0
182.356	-1.34
182.743	-0.78
183.129	0.53
183.515	-0
183.901	-2.66
184.288	0.45
184.674	-0
185.06	-0.21
185.446	-0
185.832	-0.59
186.218	0.12
186.604	-0
186.99	-0
187.376	-0
187.762	-0.15
188.148	0.6
188.534	-0.43
188.92	0.13
189.305	0.15
189.691	0.06
190.077	0.14
190.463	0.03
190.848	0.06
191.234	0.1
191.619	0.11
192.005	0.16
192.391	0.13
192.776	0.05
193.161	0.07
193.547	0.05
193.932	0.24
194.318	0.14
194.703	0.25
195.088	0.18
195.473	0.07
195.859	0.1
196.244	0.14
196.629	0.1
197.014	0.06
197.399	0.19
197.784	0.03
198.169	0.23
198.554	0.13
198.939	0.1
199.324	0.13
199.709	0.02
200.094	0.01
200.478	0.04
200.863	0.18
201.248	0.15
201.633	0.11
202.017	0.13
202.402	0.18
202.787	0.13
203.171	0.14
203.556	0.18
203.94	0.25
204.325	0.17
204.709	0.3
205.093	0.06
205.478	0.14
205.862	0.14
206.246	0.17
206.631	0.09
207.015	0.12
207.399	0.17
207.783	0.14
208.167	0.19
208.551	0.25
208.935	0.13
209.319	0.19
209.703	0.17
210.087	0.26
210.471	0.12
210.855	0.07
211.239	0.22
211.623	0.23
212.007	0.16
212.39	0.22
212.774	0.13
213.158	0.1
213.541	0.11
213.925	0.19
214.309	0.25
214.692	0.25
215.076	0.23
215.459	0.12
215.842	0.09
216.226	0.25
216.609	0.34
216.993	0.19
217.376	0.68
217.759	0.17
218.142	0.34
218.525	0.44
218.909	0.37
219.292	0.31
219.675	0.36
220.058	0.37
220.441	0.52
220.824	0.56
221.207	0.53
221.59	0.5
221.973	0.58
222.355	0.58
222.738	0.86
223.121	0.54
223.504	0.56
223.886	0.67
224.269	0.69
224.652	0.58
225.034	0.83
225.417	0.61
225.799	0.72
226.182	1.1
226.564	0.79
226.947	0.74
227.329	0.74
227.711	1.1
228.094	0.89
228.476	0.92
228.858	0.81
229.24	0.79
229.623	0.95
230.005	0.83
230.387	0.85
230.769	0.81
231.151	0.94
231.533	1.01
231.915	0.89
232.297	1.12
232.679	0.88
233.061	1.03
233.442	1
233.824	0.92
234.206	1.06
234.588	1.09
234.969	1.13
235.351	0.99
235.733	1.13
236.114	1.11
236.496	1
236.877	1.22
237.259	1
237.64	0.91
238.022	0.97
238.403	1.03
238.784	1.04
239.165	1.03
239.547	1.16
239.928	1.12
240.309	0.95
240.69	1.12
241.071	1.3
241.452	1.19
241.834	1.02
242.215	1.03
242.595	1.11
242.976	1.23
243.357	1.05
243.738	0.94
244.119	1.4
244.5	1.15
244.881	1.17
245.261	1.16
245.642	1.17
246.023	1.17
246.403	1.31
246.784	1.22
247.164	1.24
247.545	1.29
247.925	1.31
248.306	1.23
248.686	1.3
249.067	1.22
249.447	1.23
249.827	1.52
250.207	1.4
250.588	1.22
250.968	1.33
251.348	1.28
251.728	1.56
252.108	1.28
252.488	1.55
252.868	1.26
253.248	1.26
253.628	1.44
254.008	1.44
254.388	1.25
254.768	1.27
255.147	1.32
255.527	1.43
255.907	1.41
256.287	1.28
256.666	1.38
257.046	1.45
257.425	1.49
257.805	1.36
258.184	1.3
258.564	1.34
258.943	1.33
259.323	1.51
259.702	1.36
260.081	1.5
260.461	1.44
260.84	1.49
261.219	2.04
261.598	1.39
261.977	1.34
262.356	1.37
262.736	1.42
263.115	1.51
263.494	1.3
263.873	1.46
264.251	1.46
264.63	1.6
265.009	1.36
265.388	1.5
265.767	1.35
266.145	1.49
266.524	1.45
266.903	1.43
267.281	1.39
267.66	1.45
268.039	1.61
268.417	1.32
268.796	1.56
269.174	1.43
269.552	1.25
269.931	1.39
270.309	1.36
270.687	1.5
271.066	1.55
271.444	1.37
271.822	1.56
272.2	1.38
272.578	1.27
272.956	1.48
273.334	1.33
273.712	1.38
274.09	1.45
274.468	1.26
274.846	1.29
275.224	1.32
275.602	1.48
275.98	1.57
276.357	1.61
276.735	1.4
277.113	1.28
277.49	1.28
277.868	1.32
278.246	1.45
278.623	1.36
279.001	1.27
279.378	1.39
279.756	1.4
280.133	1.38
280.51	1.52
280.888	1.46
281.265	1.36
281.642	1.51
282.019	1.49
282.396	1.61
282.773	1.4
283.151	1.57
283.528	1.51
283.905	1.52
284.282	1.52
284.659	1.53
285.035	1.39
285.412	1.42
285.789	1.65
286.166	1.46
286.543	1.54
286.919	1.46
287.296	1.43
287.673	1.81
288.049	1.53
288.426	1.45
288.802	1.49
289.179	1.53
289.555	1.46
289.932	1.38
290.308	1.31
290.684	1.42
291.061	1.39
291.437	1.57
291.813	1.44
292.189	1.3
292.565	1.27
292.942	1.23
293.318	1.33
293.694	1.43
294.07	1.37
294.446	1.39
294.822	1.6
295.197	1.41
295.573	1.45
295.949	1.41
296.325	1.49
296.701	1.51
297.076	1.5
297.452	1.53
297.828	1.45
298.203	1.62
298.579	1.36
298.954	1.47
299.33	1.31
299.705	1.47
300.081	1.6
300.456	1.38
300.831	1.48
301.206	1.48
301.582	1.56
301.957	1.52
302.332	1.59
302.707	1.47
303.082	1.42
303.457	1.49
303.832	1.47
304.207	1.46
304.582	1.38
304.957	1.54
305.332	1.64
305.707	1.62
306.082	1.6
306.456	1.62
306.831	1.48
307.206	1.43
307.58	1.62
307.955	1.58
308.33	1.49
308.704	1.52
309.079	1.46
309.453	1.76
309.828	1.65
310.202	1.44
310.576	1.49
310.951	1.57
311.325	1.6
311.699	1.6
312.073	1.43
312.447	1.42
312.821	1.39
313.196	1.6
313.57	1.38
313.944	1.41
314.317	1.37
314.691	1.53
315.065	1.57
315.439	1.56
315.813	1.58
316.187	1.44
316.56	1.68
316.934	1.52
317.308	1.42
317.681	1.62
318.055	1.47
318.428	1.56
318.802	1.55
319.175	1.47
319.549	1.52
319.922	1.44
320.295	1.53
320.669	1.79
321.042	1.51
321.415	1.7
321.788	1.54
322.162	1.5
322.535	1.66
322.908	1.58
323.281	1.43
323.654	1.79
324.027	1.38
324.4	1.45
324.773	1.67
325.145	1.67
325.518	1.45
325.891	1.48
326.264	1.74
326.636	1.41
327.009	1.45
327.382	1.51
327.754	1.79
328.127	1.47
328.499	1.45
328.872	1.52
329.244	1.44
329.616	1.47
329.989	1.51
330.361	1.46
330.733	1.42
331.106	1.44
331.478	1.49
331.85	1.52
332.222	1.42
332.594	1.45
332.966	1.48
333.338	1.68
333.71	1.59
334.082	1.72
334.454	1.44
334.826	1.51
335.197	1.52
335.569	1.48
335.941	1.43
336.312	1.49
336.684	1.59
337.056	1.52
337.427	1.6
337.799	1.63
338.17	1.66
338.542	1.49
338.913	1.56
339.284	1.54
339.656	1.63
340.027	1.55
340.398	1.65
340.769	1.56
341.141	1.64
341.512	1.56
341.883	1.53
342.254	1.38
342.625	1.62
342.996	1.55
343.367	1.56
343.738	1.56
344.108	1.49
344.479	1.64
344.85	1.49
345.221	1.48
345.591	1.37
345.962	1.53
346.333	1.47
346.703	1.24
347.074	1.42
347.444	1.32
347.815	1.4
348.185	1.37
348.556	1.4
348.926	1.34
349.296	1.37
349.666	1.44
350.037	1.28
350.407	1.27
350.777	1.35
351.147	1.42
351.517	1.42
351.887	1.33
352.257	1.36
352.627	1.28
352.997	1.28
353.367	1.43
353.737	1.35
354.106	1.41
354.476	1.27
354.846	1.38
355.216	1.44
355.585	1.33
355.955	1.29
356.324	1.35
356.694	1.22
357.063	1.23
357.433	1.24
357.802	1.23
358.171	1.3
358.541	1.23
358.91	1.24
359.279	1.25
359.648	1.17
360.017	1.17
360.387	1.18
360.756	1.12
361.125	1.1
361.494	1.11
361.863	1.05
362.231	1.03
362.6	1.05
362.969	1.05
363.338	0.97
363.707	1.06
364.075	0.98
364.444	0.91
364.813	0.91
365.181	0.9
365.55	0.96
365.918	0.92
366.287	0.9
366.655	0.87
367.024	0.86
367.392	0.86
367.76	0.82
368.128	0.8
368.497	0.81
368.865	0.8
369.233	0.79
369.601	0.77
369.969	0.79
370.337	0.75
370.705	0.75
371.073	0.73
371.441	0.72
371.809	0.71
372.177	0.7
372.544	0.7
372.912	0.69
373.28	0.72
373.647	0.67
374.015	0.68
374.383	0.67
374.75	0.69
375.118	0.67
375.485	0.64
375.853	0.66
376.22	0.62
376.587	0.62
376.955	0.63
377.322	0.63
377.689	0.59
378.056	0.59
378.423	0.59
378.79	0.6
379.157	0.61
379.524	0.61
379.891	0.61
380.258	0.6
380.625	0.59
380.992	0.6
381.359	0.59
381.726	0.63
382.092	0.59
382.459	0.58
382.826	0.6
383.192	0.59
383.559	0.56
383.925	0.57
384.292	0.58
384.658	0.59
385.025	0.57
385.391	0.63
385.757	0.6
386.123	0.61
386.49	0.6
386.856	0.6
387.222	0.6
387.588	0.58
387.954	0.6
388.32	0.62
388.686	0.6
389.052	0.58
389.418	0.59
389.784	0.63
390.15	0.6
390.515	0.6
390.881	0.61
391.247	0.59
391.613	0.62
391.978	0.59
392.344	0.61
392.709	0.57
393.075	0.61
393.44	0.57
393.806	0.57
394.171	0.57
394.536	0.59
394.902	0.58
395.267	0.58
395.632	0.56
395.997	0.55
396.362	0.55
396.727	0.59
397.092	0.56
397.457	0.56
397.822	0.57
398.187	0.54
398.552	0.55
398.917	0.54
399.282	0.54
399.646	0.51
400.011	0.56
400.376	0.53
400.74	0.53
401.105	0.52
401.47	0.55
401.834	0.53
402.199	0.53
402.563	0.48
402.927	0.49
403.292	0.51
403.656	0.52
404.02	0.51
404.384	0.53
404.749	0.48
405.113	0.5
405.477	0.47
405.841	0.48
406.205	0.48
406.569	0.49
406.933	0.47
407.296	0.47
407.66	0.48
408.024	0.46
408.388	0.49
408.752	0.46
409.115	0.46
409.479	0.46
409.842	0.44
410.206	0.43
410.569	0.45
410.933	0.43
411.296	0.44
411.66	0.45
412.023	0.41
412.386	0.44
412.749	0.43
413.113	0.42
413.476	0.4
413.839	0.41
414.202	0.41
414.565	0.39
414.928	0.4
415.291	0.4
415.654	0.41
416.017	0.41
416.38	0.38
416.742	0.39
417.105	0.39
417.468	0.39
417.83	0.38
418.193	0.41
418.556	0.39
418.918	0.39
419.281	0.4
419.643	0.39
420.005	0.39
420.368	0.39
420.73	0.38
421.092	0.37
421.455	0.37
421.817	0.37
422.179	0.37
422.541	0.39
422.903	0.39
423.265	0.37
423.627	0.36
423.989	0.36
424.351	0.36
424.713	0.36
425.075	0.35
425.436	0.35
425.798	0.34
426.16	0.33
426.521	0.34
426.883	0.36
427.245	0.34
427.606	0.32
427.967	0.34
428.329	0.34
428.69	0.36
429.052	0.36
429.413	0.36
429.774	0.35
430.135	0.35
430.497	0.33
430.858	0.33
431.219	0.32
431.58	0.33
431.941	0.33
432.302	0.33
432.663	0.33
433.024	0.33
433.384	0.34
433.745	0.31
434.106	0.32
434.467	0.34
434.827	0.33
435.188	0.33
435.548	0.33
435.909	0.32
436.269	0.33
436.63	0.31
436.99	0.31
437.351	0.32
437.711	0.32
438.071	0.32
438.431	0.31
438.792	0.32
439.152	0.31
439.512	0.31
439.872	0.3
440.232	0.32
440.592	0.32
440.952	0.3
441.312	0.3
441.671	0.3
442.031	0.3
442.391	0.3
442.751	0.29
443.11	0.29
443.47	0.29
443.83	0.28
444.189	0.28
444.549	0.28
444.908	0.29
445.267	0.28
445.627	0.27
445.986	0.27
446.345	0.27
446.705	0.27
447.064	0.28
447.423	0.28
447.782	0.26
448.141	0.27
448.5	0.26
448.859	0.27
449.218	0.27
449.577	0.26
449.936	0.28
450.295	0.27
450.653	0.26
451.012	0.27
451.371	0.27
451.729	0.28
452.088	0.27
452.447	0.27
452.805	0.26
453.163	0.27
453.522	0.26
453.88	0.25
454.239	0.25
454.597	0.25
454.955	0.26
455.313	0.23
455.671	0.25
456.029	0.24
456.388	0.23
456.746	0.24
457.104	0.23
457.461	0.23
457.819	0.23
458.177	0.22
458.535	0.22
458.893	0.22
459.25	0.22
459.608	0.22
459.966	0.22
460.323	0.21
460.681	0.2
461.038	0.21
461.396	0.21
461.753	0.21
462.111	0.21
462.468	0.19
462.825	0.2
463.182	0.2
463.54	0.19
463.897	0.2
464.254	0.2
464.611	0.2
464.968	0.19
465.325	0.19
465.682	0.18
466.039	0.19
466.395	0.18
466.752	0.18
467.109	0.18
467.466	0.18
467.822	0.18
468.179	0.18
468.535	0.18
468.892	0.18
469.248	0.16
469.605	0.17
469.961	0.16
470.318	0.18
470.674	0.18
471.03	0.16
471.386	0.17
471.743	0.17
472.099	0.16
472.455	0.16
472.811	0.16
473.167	0.16
473.523	0.15
473.879	0.15
474.235	0.15
474.59	0.15
474.946	0.15
475.302	0.15
475.657	0.14
476.013	0.15
476.369	0.14
476.724	0.15
477.08	0.14
477.435	0.14
477.791	0.14
478.146	0.14
478.501	0.14
478.857	0.14
479.212	0.14
479.567	0.14
479.922	0.13
480.277	0.13
480.632	0.13
480.987	0.13
481.342	0.12
481.697	0.12
482.052	0.12
482.407	0.12
482.762	0.12
483.116	0.12
483.471	0.11
483.826	0.11
484.18	0.11
484.535	0.11
484.89	0.11
485.244	0.11
485.598	0.12
485.953	0.11
486.307	0.11
486.661	0.11
487.016	0.1
487.37	0.11
487.724	0.1
488.078	0.1
488.432	0.11
488.786	0.1
489.14	0.1
489.494	0.09
489.848	0.1
490.202	0.1
490.556	0.1
490.91	0.1
491.263	0.1
491.617	0.1
491.971	0.1
492.324	0.09
492.678	0.1
493.031	0.1
493.385	0.1
493.738	0.09
494.091	0.09
494.445	0.09
494.798	0.09
495.151	0.09
495.504	0.09
495.857	0.09
496.21	0.09
496.564	0.09
496.916	0.1
497.269	0.09
497.622	0.1
497.975	0.09
498.328	0.09
498.681	0.09
499.033	0.09
499.386	0.08
499.739	0.08
500.091	0.08
500.444	0.08
500.796	0.08
501.149	0.08
501.501	0.08
501.854	0.08
502.206	0.08
502.558	0.08
502.91	0.08
503.263	0.08
503.615	0.08
503.967	0.07
504.319	0.08
504.671	0.08
505.023	0.08
505.375	0.08
505.726	0.08
506.078	0.08
506.43	0.08
506.782	0.07
507.133	0.08
507.485	0.08
507.837	0.09
508.188	0.08
508.54	0.08
508.891	0.09
509.243	0.08
509.594	0.08
509.945	0.07
510.296	0.07
510.648	0.08
510.999	0.07
511.35	0.08
511.701	0.08
512.052	0.08
512.403	0.08
512.754	0.08
513.105	0.08
513.456	0.07
513.807	0.06
514.157	0.08
514.508	0.08
514.859	0.07
515.209	0.08
515.56	0.08
515.91	0.07
516.261	0.08
516.611	0.08
516.962	0.08
517.312	0.08
517.662	0.08
518.013	0.07
518.363	0.08
518.713	0.08
519.063	0.08
519.413	0.08
519.763	0.08
520.113	0.08
520.463	0.09
520.813	0.08
521.163	0.08
521.512	0.07
521.862	0.08
522.212	0.08
522.562	0.08
522.911	0.08
523.261	0.07
523.61	0.08
523.96	0.08
524.309	0.08
524.658	0.09
525.008	0.08
525.357	0.08
525.706	0.08
526.056	0.08
526.405	0.08
526.754	0.08
527.103	0.07
527.452	0.08
527.801	0.08
528.15	0.08
528.499	0.08
528.847	0.08
529.196	0.09
529.545	0.09
529.893	0.09
530.242	0.09
530.591	0.09
530.939	0.09
531.288	0.08
531.636	0.09
531.985	0.09
532.333	0.09
532.681	0.09
533.029	0.08
533.378	0.08
533.726	0.08
534.074	0.09
534.422	0.08
534.77	0.09
535.118	0.08
535.466	0.09
535.814	0.08
536.162	0.09
536.509	0.09
536.857	0.09
537.205	0.09
537.552	0.08
537.9	0.09
538.248	0.08
538.595	0.09
538.943	0.09
539.29	0.08
539.637	0.08
539.985	0.08
540.332	0.08
540.679	0.09
541.026	0.08
541.373	0.09
541.721	0.08
542.068	0.08
542.415	0.09
542.762	0.08
543.108	0.07
543.455	0.08
543.802	0.07
544.149	0.08
544.496	0.09
544.842	0.08
545.189	0.08
545.535	0.08
545.882	0.08
546.228	0.07
546.575	0.07
546.921	0.07
547.267	0.07
547.614	0.07
547.96	0.07
548.306	0.07
548.652	0.07
548.998	0.08
549.344	0.07
549.69	0.08
550.036	0.07
550.382	0.08
550.728	0.07
551.074	0.09
551.42	0.08
551.765	0.08
552.111	0.09
552.457	0.09
552.802	0.08
553.148	0.08
553.493	0.07
553.839	0.08
554.184	0.08
554.529	0.07
554.875	0.08
555.22	0.09
555.565	0.08
555.91	0.09
556.255	0.09
556.6	0.09
556.945	0.08
557.29	0.08
557.635	0.09
557.98	0.08
558.325	0.08
558.67	0.09
559.014	0.09
559.359	0.08
559.704	0.08
560.048	0.07
560.393	0.08
560.737	0.07
561.082	0.08
561.426	0.07
561.77	0.08
562.115	0.08
562.459	0.08
562.803	0.08
563.147	0.08
563.491	0.08
563.835	0.09
564.179	0.08
564.523	0.08
564.867	0.07
565.211	0.07
565.555	0.08
565.899	0.08
566.242	0.08
566.586	0.07
566.93	0.08
567.273	0.08
567.617	0.09
567.96	0.09
568.304	0.08
568.647	0.08
568.99	0.09
569.334	0.09
569.677	0.09
570.02	0.09
570.363	0.09
570.706	0.09
571.049	0.09
571.392	0.09
571.735	0.08
572.078	0.09
572.421	0.09
572.764	0.08
573.106	0.08
573.449	0.08
573.792	0.08
574.134	0.08
574.477	0.09
574.819	0.09
575.162	0.08
575.504	0.08
575.847	0.08
576.189	0.08
576.531	0.08
576.873	0.08
577.215	0.08
577.558	0.09
577.9	0.08
578.242	0.08
578.584	0.08
578.926	0.08
579.267	0.08
579.609	0.08
579.951	0.07
580.293	0.07
580.634	0.08
580.976	0.08
581.318	0.08
581.659	0.08
582.001	0.08
582.342	0.08
582.683	0.08
583.025	0.08
583.366	0.08
583.707	0.08
584.049	0.08
584.39	0.08
584.731	0.08
585.072	0.08
585.413	0.09
585.754	0.08
586.095	0.08
586.435	0.09
586.776	0.09
587.117	0.07
587.458	0.08
587.798	0.07
588.139	0.08
588.48	0.08
588.82	0.08
589.161	0.08
589.501	0.07
589.841	0.08
590.182	0.07
590.522	0.07
590.862	0.08
591.202	0.07
591.542	0.07
591.882	0.07
592.222	0.08
592.562	0.08
592.902	0.08
593.242	0.08
593.582	0.09
593.922	0.07
594.261	0.08
594.601	0.07
594.941	0.08
595.28	0.08
595.62	0.08
595.959	0.07
596.299	0.07
596.638	0.07
596.977	0.07
597.317	0.08
597.656	0.08
597.995	0.07
598.334	0.09
598.673	0.08
599.012	0.08
599.351	0.09
599.69	0.08
600.029	0.09
600.368	0.09
600.707	0.09
601.046	0.09
601.384	0.09
601.723	0.09
602.061	0.08
602.4	0.08
602.738	0.08
603.077	0.09
603.415	0.07
603.754	0.07
604.092	0.08
604.43	0.07
604.768	0.08
605.107	0.08
605.445	0.08
605.783	0.08
606.121	0.08
606.459	0.08
606.796	0.08
607.134	0.07
607.472	0.08
607.81	0.08
608.148	0.08
608.485	0.08
608.823	0.08
609.16	0.07
609.498	0.08
609.835	0.08
610.173	0.08
610.51	0.08
610.847	0.09
611.185	0.09
611.522	0.08
611.859	0.08
612.196	0.08
612.533	0.09
612.87	0.08
613.207	0.09
613.544	0.09
613.881	0.09
614.217	0.09
614.554	0.09
614.891	0.09
615.228	0.09
615.564	0.09
615.901	0.09
616.237	0.09
616.574	0.08
616.91	0.1
617.246	0.09
617.583	0.09
617.919	0.09
618.255	0.1
618.591	0.08
618.927	0.09
619.263	0.1
619.599	0.09
619.935	0.09
620.271	0.1
620.607	0.09
620.943	0.09
621.279	0.09
621.614	0.1
621.95	0.09
622.286	0.09
622.621	0.09
622.957	0.09
623.292	0.08
623.627	0.09
623.963	0.08
624.298	0.08
624.633	0.08
624.968	0.08
625.304	0.08
625.639	0.08
625.974	0.08
626.309	0.08
626.644	0.09
626.979	0.09
627.313	0.09
627.648	0.08
627.983	0.09
628.318	0.08
628.652	0.08
628.987	0.08
629.321	0.09
629.656	0.08
629.99	0.07
630.325	0.08
630.659	0.08
630.993	0.08
631.327	0.08
631.662	0.07
631.996	0.07
632.33	0.07
632.664	0.08
632.998	0.07
633.332	0.07
633.666	0.07
633.999	0.07
634.333	0.07
634.667	0.07
635.001	0.07
635.334	0.07
635.668	0.06
636.001	0.07
636.335	0.07
636.668	0.07
637.001	0.06
637.335	0.07
637.668	0.06
638.001	0.06
638.334	0.06
638.668	0.06
639.001	0.06
639.334	0.07
639.667	0.06
639.999	0.06
640.332	0.07
640.665	0.07
640.998	0.07
641.331	0.07
641.663	0.06
641.996	0.07
642.328	0.07
642.661	0.07
642.993	0.07
643.326	0.08
643.658	0.07
643.99	0.07
644.323	0.07
644.655	0.08
644.987	0.07
645.319	0.08
645.651	0.08
645.983	0.08
646.315	0.08
646.647	0.08
646.979	0.09
647.31	0.08
647.642	0.08
647.974	0.08
648.305	0.09
648.637	0.08
648.968	0.08
649.3	0.08
649.631	0.08
649.963	0.07
650.294	0.08
650.625	0.08
650.957	0.08
651.288	0.08
651.619	0.08
651.95	0.08
652.281	0.08
652.612	0.07
652.943	0.08
653.274	0.08
653.604	0.07
653.935	0.07
654.266	0.08
654.596	0.08
654.927	0.08
655.258	0.08
655.588	0.08
655.918	0.08
656.249	0.06
656.579	0.07
656.909	0.08
657.24	0.07
657.57	0.08
657.9	0.08
658.23	0.07
658.56	0.08
658.89	0.08
659.22	0.07
659.55	0.07
659.88	0.08
660.209	0.08
660.539	0.09
660.869	0.07
661.198	0.08
661.528	0.08
661.857	0.08
662.187	0.08
662.516	0.08
662.846	0.07
663.175	0.08
663.504	0.08
663.833	0.07
664.163	0.07
664.492	0.07
664.821	0.07
665.15	0.07
665.479	0.08
665.807	0.07
666.136	0.07
666.465	0.06
666.794	0.07
667.122	0.07
667.451	0.07
667.78	0.08
668.108	0.08
668.437	0.07
668.765	0.07
669.093	0.08
669.422	0.08
669.75	0.08
670.078	0.08
670.406	0.08
670.734	0.09
671.062	0.08
671.39	0.08
671.718	0.08
672.046	0.08
672.374	0.08
672.702	0.07
673.029	0.07
673.357	0.08
673.685	0.09
674.012	0.08
674.34	0.08
674.667	0.08
674.995	0.08
675.322	0.08
675.649	0.07
675.977	0.08
676.304	0.08
676.631	0.08
676.958	0.08
677.285	0.07
677.612	0.06
677.939	0.07
678.266	0.08
678.593	0.07
678.92	0.08
679.246	0.07
679.573	0.07
679.9	0.07
680.226	0.08
680.553	0.08
680.879	0.07
681.206	0.08
681.532	0.08
681.858	0.07
682.184	0.08
682.511	0.07
682.837	0.07
683.163	0.08
683.489	0.08
683.815	0.07
684.141	0.08
684.467	0.08
684.793	0.07
685.118	0.07
685.444	0.08
685.77	0.08
686.095	0.08
686.421	0.08
686.746	0.07
687.072	0.07
687.397	0.07
687.723	0.08
688.048	0.08
688.373	0.07
688.698	0.07
689.023	0.07
689.349	0.07
689.674	0.07
689.999	0.06
690.323	0.06
690.648	0.07
690.973	0.06
691.298	0.07
691.623	0.06
691.947	0.06
692.272	0.06
692.596	0.07
692.921	0.07
693.245	0.06
693.57	0.07
693.894	0.07
694.218	0.07
694.543	0.07
694.867	0.07
695.191	0.07
695.515	0.07
695.839	0.06
696.163	0.07
696.487	0.08
696.811	0.07
697.135	0.07
697.458	0.08
697.782	0.07
698.106	0.07
698.429	0.07
698.753	0.07
699.076	0.06
699.4	0.07
699.723	0.07
700.046	0.06
700.37	0.07
700.693	0.07
701.016	0.07
701.339	0.07
701.662	0.08
701.985	0.07
702.308	0.07
702.631	0.07
702.954	0.07
703.277	0.07
703.599	0.07
703.922	0.05
704.245	0.06
704.567	0.06
704.89	0.07
705.212	0.06
705.535	0.06
705.857	0.06
706.179	0.05
706.502	0.06
706.824	0.06
707.146	0.06
707.468	0.06
707.79	0.06
708.112	0.06
708.434	0.06
708.756	0.06
709.078	0.06
709.399	0.06
709.721	0.06
710.043	0.06
710.364	0.06
710.686	0.06
711.007	0.06
711.329	0.07
711.65	0.06
711.972	0.06
712.293	0.07
712.614	0.07
712.935	0.07
713.256	0.06
713.577	0.07
713.898	0.06
714.219	0.06
714.54	0.07
714.861	0.06
715.182	0.06
715.503	0.06
715.823	0.07
716.144	0.06
716.464	0.06
716.785	0.05
717.105	0.06
717.426	0.07
717.746	0.06
718.066	0.06
718.387	0.06
718.707	0.05
719.027	0.06
719.347	0.05
719.667	0.06
719.987	0.06
720.307	0.05
720.627	0.06
720.947	0.05
721.266	0.05
721.586	0.04
721.906	0.05
722.225	0.05
722.545	0.05
722.864	0.05
723.184	0.06
723.503	0.05
723.823	0.06
724.142	0.05
724.461	0.05
724.78	0.05
725.099	0.05
725.418	0.05
725.737	0.05
726.056	0.06
726.375	0.05
726.694	0.06
727.013	0.06
727.331	0.05
727.65	0.06
727.969	0.06
728.287	0.06
728.606	0.06
728.924	0.05
729.242	0.05
729.561	0.05
729.879	0.05
730.197	0.06
730.515	0.05
730.834	0.05
731.152	0.05
731.47	0.06
731.788	0.05
732.105	0.06
732.423	0.05
732.741	0.06
733.059	0.06
733.376	0.06
733.694	0.05
734.012	0.05
734.329	0.07
734.647	0.06
734.964	0.07
735.281	0.06
735.599	0.07
735.916	0.07
736.233	0.06
736.55	0.06
736.867	0.06
737.184	0.07
737.501	0.06
737.818	0.06
738.135	0.07
738.452	0.06
738.768	0.06
739.085	0.06
739.402	0.06
739.718	0.06
740.035	0.06
740.351	0.06
740.668	0.07
740.984	0.06
741.3	0.06
741.617	0.06
741.933	0.05
742.249	0.06
742.565	0.05
742.881	0.06
743.197	0.06
743.513	0.05
743.829	0.05
744.144	0.05
744.46	0.05
744.776	0.06
745.091	0.05
745.407	0.05
745.722	0.06
746.038	0.05
746.353	0.05
746.669	0.06
746.984	0.05
747.299	0.04
747.614	0.06
747.93	0.06
748.245	0.05
748.56	0.05
748.875	0.05
749.189	0.05
749.504	0.05
749.819	0.05
750.134	0.05
750.448	0.05
750.763	0.05
751.078	0.05
751.392	0.05
751.707	0.05
752.021	0.06
752.335	0.06
752.65	0.05
752.964	0.05
753.278	0.05
753.592	0.05
753.906	0.05
754.22	0.05
754.534	0.05
754.848	0.05
755.162	0.05
755.476	0.05
755.789	0.05
756.103	0.04
756.417	0.05
756.73	0.05
757.044	0.05
757.357	0.05
757.671	0.05
757.984	0.05
758.297	0.05
758.61	0.05
758.924	0.05
759.237	0.06
759.55	0.05
759.863	0.05
760.176	0.05
760.488	0.05
760.801	0.05
761.114	0.04
761.427	0.04
761.739	0.05
762.052	0.04
762.365	0.05
762.677	0.05
762.99	0.05
763.302	0.05
763.614	0.05
763.926	0.05
764.239	0.05
764.551	0.04
764.863	0.05
765.175	0.06
765.487	0.05
765.799	0.05
766.111	0.05
766.423	0.05
766.734	0.05
767.046	0.05
767.358	0.05
767.669	0.05
767.981	0.04
768.292	0.05
768.604	0.05
768.915	0.04
769.226	0.04
769.537	0.03
769.849	0.05
770.16	0.04
770.471	0.04
770.782	0.04
771.093	0.04
771.404	0.03
771.715	0.04
772.025	0.03
772.336	0.04
772.647	0.03
772.957	0.04
773.268	0.05
773.578	0.04
773.889	0.05
774.199	0.05
774.51	0.04
774.82	0.05
775.13	0.04
775.44	0.05
775.75	0.05
776.06	0.05
776.37	0.05
776.68	0.06
776.99	0.06
777.3	0.05
777.61	0.06
777.92	0.05
778.229	0.06
778.539	0.05
778.848	0.06
779.158	0.06
779.467	0.06
779.777	0.06
780.086	0.06
780.395	0.05
780.704	0.05
781.013	0.05
781.323	0.04
781.632	0.05
781.941	0.06
782.249	0.05
782.558	0.05
782.867	0.05
783.176	0.04
783.485	0.05
783.793	0.05
784.102	0.05
784.41	0.05
784.719	0.05
785.027	0.05
785.335	0.06
785.644	0.05
785.952	0.05
786.26	0.05
786.568	0.04
786.876	0.04
787.184	0.05
787.492	0.05
787.8	0.05
788.108	0.05
788.416	0.04
788.723	0.05
789.031	0.04
789.338	0.05
789.646	0.05
789.953	0.05
790.261	0.06
790.568	0.06
790.876	0.05
791.183	0.06
791.49	0.05
791.797	0.05
792.104	0.04
792.411	0.05
792.718	0.04
793.025	0.05
793.332	0.05
793.639	0.06
793.945	0.06
794.252	0.06
794.559	0.05
794.865	0.05
795.172	0.05
795.478	0.05
795.784	0.06
796.091	0.06
796.397	0.06
796.703	0.05
797.009	0.06
797.315	0.05
797.622	0.06
797.927	0.05
798.233	0.06
798.539	0.06
798.845	0.06
799.151	0.06
799.456	0.05
799.762	0.05
800.068	0.04
800.373	0.07
800.679	0.05
800.984	0.05
801.289	0.06
801.595	0.06
801.9	0.06
802.205	0.05
802.51	0.06
802.815	0.05
803.12	0.05
803.425	0.06
803.73	0.05
804.035	0.05
804.339	0.05
804.644	0.05
804.949	0.05
805.253	0.05
805.558	0.05
805.862	0.05
806.167	0.05
806.471	0.04
806.775	0.06
807.08	0.05
807.384	0.05
807.688	0.05
807.992	0.06
808.296	0.05
808.6	0.05
808.904	0.06
809.207	0.05
809.511	0.06
809.815	0.06
810.119	0.06
810.422	0.06
810.726	0.07
811.029	0.06
811.332	0.06
811.636	0.06
811.939	0.05
812.242	0.07
812.546	0.06
812.849	0.06
813.152	0.06
813.455	0.06
813.758	0.06
814.06	0.06
814.363	0.06
814.666	0.06
814.969	0.06
815.271	0.06
815.574	0.05
815.877	0.05
816.179	0.05
816.481	0.05
816.784	0.05
817.086	0.05
817.388	0.04
817.69	0.04
817.993	0.05
818.295	0.04
818.597	0.04
818.899	0.04
819.2	0.04
819.502	0.04
819.804	0.05
820.106	0.04
820.407	0.04
820.709	0.05
821.01	0.04
821.312	0.04
821.613	0.04
821.915	0.03
822.216	0.04
822.517	0.03
822.818	0.04
823.119	0.04
823.42	0.04
823.721	0.03
824.022	0.03
824.323	0.03
824.624	0.04
824.925	0.04
825.226	0.05
825.526	0.04
825.827	0.03
826.127	0.04
826.428	0.04
826.728	0.04
827.028	0.03
827.329	0.03
827.629	0.03
827.929	0.04
828.229	0.04
828.529	0.03
828.829	0.03
829.129	0.03
829.429	0.04
829.729	0.03
830.029	0.03
830.328	0.04
830.628	0.03
830.927	0.02
831.227	0.03
831.526	0.03
831.826	0.03
832.125	0.03
832.424	0.03
832.724	0.02
833.023	0.02
833.322	0.03
833.621	0.03
833.92	0.02
834.219	0.02
834.518	0.03
834.816	0.01
835.115	0.02
835.414	0.02
835.712	0.02
836.011	0.02
836.309	0.01
836.608	0.01
836.906	0.01
837.205	0
837.503	0
837.801	0
838.099	-0.01
838.397	-0.01
838.695	-0
838.993	-0
839.291	-0.01
839.589	-0
839.887	-0.01
840.184	-0.01
840.482	-0.01
840.78	-0.01
841.077	-0.02
841.375	-0.01
841.672	-0.01
841.969	-0.02
842.267	-0.01
842.564	-0.02
842.861	-0.01
843.158	-0.02
843.455	-0.03
843.752	-0.01
844.049	-0.02
844.346	-0.03
844.643	-0.03
844.94	-0.02
845.236	-0.02
845.533	-0.02
845.83	-0.02
846.126	-0.03
846.423	-0.02
846.719	-0.03
847.015	-0.03
847.312	-0.03
847.608	-0.04
847.904	-0.04
848.2	-0.05
848.496	-0.05
848.792	-0.04
849.088	-0.03
849.384	-0.04
849.68	-0.05
849.975	-0.04
850.271	-0.05
850.567	-0.05
850.862	-0.05
851.158	-0.06
851.453	-0.05
851.748	-0.07
852.044	-0.06
852.339	-0.06
852.634	-0.07
852.929	-0.06
853.224	-0.07
853.519	-0.06
853.814	-0.06
854.109	-0.07
854.404	-0.06
854.699	-0.08
854.994	-0.06
855.288	-0.06
855.583	-0.06
855.877	-0.07
856.172	-0.06
856.466	-0.07
856.76	-0.06
857.055	-0.07
857.349	-0.08
857.643	-0.07
857.937	-0.09
858.231	-0.08
858.525	-0.08
858.819	-0.08
859.113	-0.09
859.407	-0.09
859.701	-0.1
859.994	-0.1
860.288	-0.08
860.581	-0.1
860.875	-0.11
861.168	-0.11
861.462	-0.1
861.755	-0.1
862.048	-0.1
862.341	-0.11
862.634	-0.11
862.928	-0.11
863.221	-0.12
863.513	-0.11
863.806	-0.11
864.099	-0.12
864.392	-0.11
864.685	-0.11
864.977	-0.11
865.27	-0.12
865.562	-0.11
865.855	-0.11
866.147	-0.12
866.44	-0.11
866.732	-0.12
867.024	-0.12
867.316	-0.13
867.608	-0.12
867.9	-0.12
868.192	-0.12
868.484	-0.13
868.776	-0.13
869.068	-0.13
869.359	-0.13
869.651	-0.14
869.943	-0.15
870.234	-0.14
870.526	-0.14
870.817	-0.14
871.108	-0.13
871.4	-0.14
871.691	-0.15
871.982	-0.15
872.273	-0.16
872.564	-0.15
872.855	-0.15
873.146	-0.15
873.437	-0.16
873.728	-0.16
874.019	-0.15
874.309	-0.17
874.6	-0.15
874.89	-0.17
875.181	-0.16
875.471	-0.15
875.762	-0.15
876.052	-0.16
876.342	-0.14
876.632	-0.16
876.922	-0.16
877.213	-0.16
877.503	-0.18
877.792	-0.16
878.082	-0.16
878.372	-0.17
878.662	-0.17
878.952	-0.18
879.241	-0.16
879.531	-0.17
879.82	-0.16
880.11	-0.16
880.399	-0.17
880.688	-0.15
880.978	-0.15
881.267	-0.15
