Data from 12-12-AQDScycling_Absorbance__713__00713.txt Node

Date: Tue Dec 12 13:54:59 EST 2023
User: kyuminlee
Spectrometer: FLMS00943
Trigger mode: 0
Integration Time (sec): 1.000000E-1
Scans to average: 1
Electric dark correction enabled: true
Nonlinearity correction enabled: false
Boxcar width: 0
XAxis mode: Wavelengths
Number of Pixels in Spectrum: 2048
>>>>>Begin Spectral Data<<<<<
179.651	0.42
180.037	0.42
180.424	0.42
180.81	-0.19
181.197	0.59
181.583	0.91
181.97	-0.06
182.356	-0
182.743	-1.24
183.129	0.47
183.515	0.43
183.901	-2.31
184.288	0.26
184.674	-0
185.06	-0.85
185.446	1.44
185.832	-0
186.218	0.07
186.604	-0
186.99	-0
187.376	-0
187.762	-0
188.148	0.28
188.534	-0.39
188.92	0.08
189.305	0.08
189.691	0.16
190.077	0.11
190.463	0.3
190.848	0.24
191.234	0
191.619	-0
192.005	0.16
192.391	0.13
192.776	0.08
193.161	0.07
193.547	0.23
193.932	0
194.318	0.03
194.703	0.25
195.088	0.05
195.473	0.08
195.859	0.14
196.244	0.22
196.629	0.13
197.014	0.18
197.399	0.17
197.784	0.12
198.169	0.03
198.554	0.19
198.939	0.02
199.324	0.13
199.709	0.02
200.094	0.06
200.478	-0.01
200.863	0.14
201.248	0.1
201.633	0.1
202.017	0.13
202.402	0.64
202.787	0.11
203.171	0.06
203.556	0.12
203.94	0.12
204.325	0.17
204.709	0.19
205.093	0
205.478	0.14
205.862	0.13
206.246	0.19
206.631	0.2
207.015	0.15
207.399	0.22
207.783	0.08
208.167	0.18
208.551	0.24
208.935	0.25
209.319	0.2
209.703	0.05
210.087	0.22
210.471	0.09
210.855	0.12
211.239	0.22
211.623	0.19
212.007	0.23
212.39	0.26
212.774	0.24
213.158	0.2
213.541	0.25
213.925	0.21
214.309	0.37
214.692	0.3
215.076	0.15
215.459	0.12
215.842	0.2
216.226	0.21
216.609	0.32
216.993	0.26
217.376	0.4
217.759	0.26
218.142	0.22
218.525	0.49
218.909	0.37
219.292	0.31
219.675	0.51
220.058	0.42
220.441	0.53
220.824	0.48
221.207	0.55
221.59	0.42
221.973	0.55
222.355	0.53
222.738	0.62
223.121	0.58
223.504	0.56
223.886	0.65
224.269	0.64
224.652	0.62
225.034	0.87
225.417	0.66
225.799	0.79
226.182	0.77
226.564	0.92
226.947	0.79
227.329	0.92
227.711	0.95
228.094	0.95
228.476	0.92
228.858	0.77
229.24	0.85
229.623	0.94
230.005	0.84
230.387	1.01
230.769	0.81
231.151	0.91
231.533	0.87
231.915	0.9
232.297	0.96
232.679	0.98
233.061	0.9
233.442	0.96
233.824	1.01
234.206	1.03
234.588	1.25
234.969	1.03
235.351	1.21
235.733	1.03
236.114	1.04
236.496	1
236.877	1.15
237.259	0.95
237.64	1.07
238.022	1.02
238.403	1.04
238.784	0.99
239.165	0.96
239.547	1.06
239.928	1.26
240.309	1.22
240.69	1.12
241.071	1.06
241.452	1.05
241.834	1
242.215	1
242.595	1.01
242.976	1.16
243.357	1.04
243.738	1.15
244.119	1.23
244.5	1.08
244.881	1.23
245.261	1.14
245.642	1.06
246.023	1.17
246.403	1.13
246.784	1.28
247.164	1.19
247.545	1.28
247.925	1.3
248.306	1.32
248.686	1.31
249.067	1.23
249.447	1.41
249.827	1.85
250.207	1.43
250.588	1.29
250.968	1.46
251.348	1.42
251.728	1.43
252.108	1.24
252.488	1.5
252.868	1.38
253.248	1.3
253.628	1.36
254.008	1.47
254.388	1.23
254.768	1.34
255.147	1.25
255.527	1.34
255.907	1.44
256.287	1.33
256.666	1.32
257.046	1.53
257.425	1.37
257.805	1.38
258.184	1.29
258.564	1.37
258.943	1.33
259.323	1.45
259.702	1.53
260.081	1.3
260.461	1.46
260.84	1.34
261.219	1.6
261.598	1.42
261.977	1.52
262.356	1.46
262.736	1.48
263.115	1.57
263.494	1.42
263.873	1.58
264.251	1.37
264.63	1.51
265.009	1.52
265.388	1.46
265.767	1.28
266.145	1.31
266.524	1.47
266.903	1.36
267.281	1.35
267.66	1.36
268.039	1.43
268.417	1.34
268.796	1.44
269.174	1.39
269.552	1.24
269.931	1.32
270.309	1.3
270.687	1.61
271.066	1.56
271.444	1.31
271.822	1.4
272.2	1.53
272.578	1.33
272.956	1.46
273.334	1.31
273.712	1.48
274.09	1.64
274.468	1.47
274.846	1.3
275.224	1.41
275.602	1.49
275.98	1.54
276.357	1.32
276.735	1.54
277.113	1.49
277.49	1.33
277.868	1.24
278.246	1.48
278.623	1.28
279.001	1.33
279.378	1.38
279.756	1.46
280.133	1.51
280.51	1.42
280.888	1.42
281.265	1.35
281.642	1.51
282.019	1.3
282.396	1.5
282.773	1.39
283.151	1.53
283.528	1.48
283.905	1.4
284.282	1.59
284.659	1.53
285.035	1.22
285.412	1.36
285.789	1.4
286.166	1.37
286.543	1.44
286.919	1.4
287.296	1.45
287.673	1.69
288.049	1.46
288.426	1.5
288.802	1.41
289.179	1.44
289.555	1.59
289.932	1.42
290.308	1.32
290.684	1.37
291.061	1.35
291.437	1.6
291.813	1.34
292.189	1.35
292.565	1.3
292.942	1.37
293.318	1.27
293.694	1.35
294.07	1.31
294.446	1.39
294.822	1.57
295.197	1.44
295.573	1.39
295.949	1.55
296.325	1.59
296.701	1.51
297.076	1.55
297.452	1.44
297.828	1.44
298.203	1.45
298.579	1.46
298.954	1.42
299.33	1.47
299.705	1.54
300.081	1.5
300.456	1.41
300.831	1.51
301.206	1.43
301.582	1.57
301.957	1.51
302.332	1.68
302.707	1.38
303.082	1.4
303.457	1.44
303.832	1.46
304.207	1.46
304.582	1.5
304.957	1.5
305.332	1.69
305.707	1.58
306.082	1.61
306.456	1.52
306.831	1.5
307.206	1.57
307.58	1.56
307.955	1.47
308.33	1.45
308.704	1.58
309.079	1.58
309.453	1.72
309.828	1.48
310.202	1.5
310.576	1.5
310.951	1.49
311.325	1.48
311.699	1.48
312.073	1.48
312.447	1.5
312.821	1.48
313.196	1.54
313.57	1.46
313.944	1.47
314.317	1.36
314.691	1.56
315.065	1.5
315.439	1.57
315.813	1.48
316.187	1.39
316.56	1.69
316.934	1.61
317.308	1.41
317.681	1.56
318.055	1.47
318.428	1.58
318.802	1.61
319.175	1.57
319.549	1.53
319.922	1.53
320.295	1.37
320.669	1.69
321.042	1.54
321.415	1.7
321.788	1.48
322.162	1.52
322.535	1.54
322.908	1.52
323.281	1.51
323.654	1.73
324.027	1.5
324.4	1.68
324.773	1.56
325.145	1.46
325.518	1.4
325.891	1.45
326.264	1.5
326.636	1.56
327.009	1.4
327.382	1.49
327.754	1.6
328.127	1.53
328.499	1.5
328.872	1.51
329.244	1.47
329.616	1.45
329.989	1.38
330.361	1.47
330.733	1.39
331.106	1.43
331.478	1.63
331.85	1.47
332.222	1.46
332.594	1.48
332.966	1.6
333.338	1.56
333.71	1.48
334.082	1.51
334.454	1.54
334.826	1.51
335.197	1.59
335.569	1.4
335.941	1.42
336.312	1.5
336.684	1.44
337.056	1.5
337.427	1.5
337.799	1.52
338.17	1.48
338.542	1.49
338.913	1.54
339.284	1.61
339.656	1.54
340.027	1.54
340.398	1.58
340.769	1.5
341.141	1.73
341.512	1.55
341.883	1.52
342.254	1.56
342.625	1.59
342.996	1.55
343.367	1.53
343.738	1.59
344.108	1.59
344.479	1.53
344.85	1.41
345.221	1.52
345.591	1.43
345.962	1.48
346.333	1.36
346.703	1.37
347.074	1.36
347.444	1.29
347.815	1.53
348.185	1.43
348.556	1.44
348.926	1.27
349.296	1.33
349.666	1.32
350.037	1.32
350.407	1.28
350.777	1.29
351.147	1.33
351.517	1.38
351.887	1.38
352.257	1.44
352.627	1.24
352.997	1.31
353.367	1.43
353.737	1.35
354.106	1.31
354.476	1.18
354.846	1.42
355.216	1.29
355.585	1.36
355.955	1.33
356.324	1.31
356.694	1.28
357.063	1.24
357.433	1.19
357.802	1.16
358.171	1.26
358.541	1.18
358.91	1.17
359.279	1.14
359.648	1.13
360.017	1.09
360.387	1.12
360.756	1.05
361.125	1.07
361.494	1.08
361.863	1
362.231	0.98
362.6	0.97
362.969	0.96
363.338	0.92
363.707	0.92
364.075	0.91
364.444	0.88
364.813	0.86
365.181	0.88
365.55	0.82
365.918	0.81
366.287	0.78
366.655	0.8
367.024	0.76
367.392	0.76
367.76	0.71
368.128	0.71
368.497	0.7
368.865	0.7
369.233	0.67
369.601	0.63
369.969	0.62
370.337	0.62
370.705	0.61
371.073	0.61
371.441	0.59
371.809	0.56
372.177	0.58
372.544	0.54
372.912	0.55
373.28	0.54
373.647	0.55
374.015	0.53
374.383	0.49
374.75	0.53
375.118	0.49
375.485	0.47
375.853	0.49
376.22	0.47
376.587	0.46
376.955	0.46
377.322	0.45
377.689	0.45
378.056	0.45
378.423	0.43
378.79	0.44
379.157	0.44
379.524	0.41
379.891	0.42
380.258	0.41
380.625	0.41
380.992	0.39
381.359	0.38
381.726	0.42
382.092	0.39
382.459	0.4
382.826	0.37
383.192	0.37
383.559	0.38
383.925	0.37
384.292	0.38
384.658	0.37
385.025	0.37
385.391	0.37
385.757	0.37
386.123	0.38
386.49	0.38
386.856	0.38
387.222	0.36
387.588	0.36
387.954	0.35
388.32	0.36
388.686	0.34
389.052	0.33
389.418	0.36
389.784	0.35
390.15	0.35
390.515	0.33
390.881	0.36
391.247	0.34
391.613	0.36
391.978	0.34
392.344	0.35
392.709	0.33
393.075	0.34
393.44	0.33
393.806	0.32
394.171	0.33
394.536	0.32
394.902	0.34
395.267	0.33
395.632	0.31
395.997	0.32
396.362	0.32
396.727	0.33
397.092	0.33
397.457	0.32
397.822	0.3
398.187	0.32
398.552	0.31
398.917	0.29
399.282	0.31
399.646	0.29
400.011	0.31
400.376	0.31
400.74	0.31
401.105	0.3
401.47	0.32
401.834	0.29
402.199	0.29
402.563	0.27
402.927	0.28
403.292	0.3
403.656	0.28
404.02	0.3
404.384	0.29
404.749	0.29
405.113	0.28
405.477	0.27
405.841	0.26
406.205	0.27
406.569	0.25
406.933	0.26
407.296	0.27
407.66	0.26
408.024	0.28
408.388	0.27
408.752	0.26
409.115	0.26
409.479	0.25
409.842	0.26
410.206	0.24
410.569	0.25
410.933	0.27
411.296	0.24
411.66	0.26
412.023	0.24
412.386	0.25
412.749	0.24
413.113	0.24
413.476	0.22
413.839	0.23
414.202	0.2
414.565	0.2
414.928	0.23
415.291	0.22
415.654	0.23
416.017	0.23
416.38	0.22
416.742	0.23
417.105	0.22
417.468	0.22
417.83	0.21
418.193	0.24
418.556	0.22
418.918	0.22
419.281	0.22
419.643	0.22
420.005	0.22
420.368	0.23
420.73	0.21
421.092	0.21
421.455	0.2
421.817	0.2
422.179	0.19
422.541	0.21
422.903	0.19
423.265	0.2
423.627	0.2
423.989	0.2
424.351	0.19
424.713	0.2
425.075	0.19
425.436	0.2
425.798	0.18
426.16	0.19
426.521	0.19
426.883	0.2
427.245	0.18
427.606	0.17
427.967	0.19
428.329	0.19
428.69	0.21
429.052	0.19
429.413	0.2
429.774	0.17
430.135	0.17
430.497	0.17
430.858	0.17
431.219	0.17
431.58	0.17
431.941	0.16
432.302	0.18
432.663	0.17
433.024	0.19
433.384	0.18
433.745	0.15
434.106	0.17
434.467	0.17
434.827	0.19
435.188	0.18
435.548	0.17
435.909	0.17
436.269	0.19
436.63	0.14
436.99	0.17
437.351	0.18
437.711	0.17
438.071	0.17
438.431	0.16
438.792	0.17
439.152	0.16
439.512	0.16
439.872	0.17
440.232	0.18
440.592	0.17
440.952	0.16
441.312	0.16
441.671	0.16
442.031	0.15
442.391	0.15
442.751	0.17
443.11	0.15
443.47	0.15
443.83	0.15
444.189	0.15
444.549	0.16
444.908	0.16
445.267	0.14
445.627	0.15
445.986	0.13
446.345	0.14
446.705	0.14
447.064	0.14
447.423	0.15
447.782	0.14
448.141	0.14
448.5	0.13
448.859	0.15
449.218	0.14
449.577	0.14
449.936	0.16
450.295	0.15
450.653	0.14
451.012	0.15
451.371	0.15
451.729	0.15
452.088	0.14
452.447	0.15
452.805	0.15
453.163	0.15
453.522	0.14
453.88	0.14
454.239	0.14
454.597	0.14
454.955	0.14
455.313	0.13
455.671	0.14
456.029	0.13
456.388	0.12
456.746	0.13
457.104	0.12
457.461	0.12
457.819	0.13
458.177	0.12
458.535	0.12
458.893	0.12
459.25	0.12
459.608	0.12
459.966	0.11
460.323	0.11
460.681	0.1
461.038	0.11
461.396	0.11
461.753	0.11
462.111	0.11
462.468	0.1
462.825	0.11
463.182	0.11
463.54	0.1
463.897	0.11
464.254	0.11
464.611	0.11
464.968	0.1
465.325	0.1
465.682	0.1
466.039	0.11
466.395	0.1
466.752	0.1
467.109	0.1
467.466	0.11
467.822	0.1
468.179	0.1
468.535	0.1
468.892	0.09
469.248	0.09
469.605	0.08
469.961	0.1
470.318	0.1
470.674	0.1
471.03	0.1
471.386	0.1
471.743	0.09
472.099	0.09
472.455	0.09
472.811	0.08
473.167	0.09
473.523	0.09
473.879	0.09
474.235	0.08
474.59	0.09
474.946	0.09
475.302	0.09
475.657	0.08
476.013	0.09
476.369	0.08
476.724	0.08
477.08	0.09
477.435	0.08
477.791	0.08
478.146	0.09
478.501	0.09
478.857	0.08
479.212	0.08
479.567	0.08
479.922	0.07
480.277	0.07
480.632	0.08
480.987	0.07
481.342	0.08
481.697	0.07
482.052	0.07
482.407	0.07
482.762	0.07
483.116	0.07
483.471	0.06
483.826	0.06
484.18	0.06
484.535	0.07
484.89	0.07
485.244	0.07
485.598	0.07
485.953	0.07
486.307	0.07
486.661	0.07
487.016	0.07
487.37	0.07
487.724	0.07
488.078	0.07
488.432	0.07
488.786	0.07
489.14	0.07
489.494	0.06
489.848	0.06
490.202	0.06
490.556	0.06
490.91	0.06
491.263	0.06
491.617	0.06
491.971	0.06
492.324	0.06
492.678	0.06
493.031	0.07
493.385	0.06
493.738	0.06
494.091	0.06
494.445	0.06
494.798	0.06
495.151	0.06
495.504	0.06
495.857	0.06
496.21	0.07
496.564	0.06
496.916	0.06
497.269	0.06
497.622	0.07
497.975	0.05
498.328	0.06
498.681	0.06
499.033	0.05
499.386	0.05
499.739	0.05
500.091	0.05
500.444	0.05
500.796	0.05
501.149	0.05
501.501	0.05
501.854	0.05
502.206	0.05
502.558	0.06
502.91	0.06
503.263	0.05
503.615	0.05
503.967	0.05
504.319	0.06
504.671	0.05
505.023	0.05
505.375	0.05
505.726	0.05
506.078	0.05
506.43	0.05
506.782	0.06
507.133	0.05
507.485	0.05
507.837	0.06
508.188	0.06
508.54	0.05
508.891	0.05
509.243	0.05
509.594	0.05
509.945	0.05
510.296	0.05
510.648	0.05
510.999	0.05
511.35	0.05
511.701	0.05
512.052	0.06
512.403	0.06
512.754	0.06
513.105	0.05
513.456	0.05
513.807	0.05
514.157	0.05
514.508	0.05
514.859	0.05
515.209	0.05
515.56	0.06
515.91	0.05
516.261	0.05
516.611	0.05
516.962	0.05
517.312	0.06
517.662	0.05
518.013	0.05
518.363	0.06
518.713	0.06
519.063	0.06
519.413	0.06
519.763	0.05
520.113	0.05
520.463	0.06
520.813	0.06
521.163	0.06
521.512	0.06
521.862	0.06
522.212	0.06
522.562	0.06
522.911	0.06
523.261	0.05
523.61	0.05
523.96	0.05
524.309	0.06
524.658	0.06
525.008	0.05
525.357	0.05
525.706	0.06
526.056	0.05
526.405	0.05
526.754	0.05
527.103	0.05
527.452	0.05
527.801	0.05
528.15	0.05
528.499	0.06
528.847	0.06
529.196	0.06
529.545	0.06
529.893	0.06
530.242	0.06
530.591	0.07
530.939	0.06
531.288	0.06
531.636	0.07
531.985	0.06
532.333	0.06
532.681	0.05
533.029	0.05
533.378	0.06
533.726	0.06
534.074	0.07
534.422	0.05
534.77	0.06
535.118	0.06
535.466	0.06
535.814	0.05
536.162	0.06
536.509	0.06
536.857	0.06
537.205	0.06
537.552	0.06
537.9	0.07
538.248	0.06
538.595	0.06
538.943	0.06
539.29	0.06
539.637	0.05
539.985	0.06
540.332	0.06
540.679	0.06
541.026	0.05
541.373	0.06
541.721	0.05
542.068	0.05
542.415	0.06
542.762	0.05
543.108	0.05
543.455	0.05
543.802	0.05
544.149	0.05
544.496	0.05
544.842	0.05
545.189	0.04
545.535	0.04
545.882	0.04
546.228	0.05
546.575	0.04
546.921	0.04
547.267	0.04
547.614	0.04
547.96	0.04
548.306	0.04
548.652	0.04
548.998	0.05
549.344	0.04
549.69	0.04
550.036	0.04
550.382	0.05
550.728	0.05
551.074	0.05
551.42	0.05
551.765	0.05
552.111	0.06
552.457	0.05
552.802	0.05
553.148	0.05
553.493	0.05
553.839	0.05
554.184	0.06
554.529	0.05
554.875	0.05
555.22	0.05
555.565	0.05
555.91	0.05
556.255	0.05
556.6	0.06
556.945	0.04
557.29	0.06
557.635	0.05
557.98	0.05
558.325	0.05
558.67	0.05
559.014	0.05
559.359	0.05
559.704	0.05
560.048	0.04
560.393	0.04
560.737	0.04
561.082	0.05
561.426	0.04
561.77	0.05
562.115	0.04
562.459	0.04
562.803	0.04
563.147	0.05
563.491	0.05
563.835	0.05
564.179	0.05
564.523	0.05
564.867	0.04
565.211	0.05
565.555	0.05
565.899	0.05
566.242	0.05
566.586	0.04
566.93	0.05
567.273	0.05
567.617	0.05
567.96	0.05
568.304	0.05
568.647	0.05
568.99	0.05
569.334	0.05
569.677	0.05
570.02	0.05
570.363	0.05
570.706	0.05
571.049	0.05
571.392	0.06
571.735	0.05
572.078	0.06
572.421	0.06
572.764	0.05
573.106	0.05
573.449	0.05
573.792	0.05
574.134	0.05
574.477	0.05
574.819	0.05
575.162	0.04
575.504	0.05
575.847	0.05
576.189	0.05
576.531	0.05
576.873	0.05
577.215	0.05
577.558	0.05
577.9	0.04
578.242	0.04
578.584	0.05
578.926	0.05
579.267	0.05
579.609	0.05
579.951	0.05
580.293	0.05
580.634	0.05
580.976	0.06
581.318	0.05
581.659	0.05
582.001	0.06
582.342	0.05
582.683	0.05
583.025	0.04
583.366	0.04
583.707	0.04
584.049	0.04
584.39	0.04
584.731	0.03
585.072	0.04
585.413	0.05
585.754	0.04
586.095	0.05
586.435	0.04
586.776	0.05
587.117	0.05
587.458	0.04
587.798	0.04
588.139	0.05
588.48	0.04
588.82	0.04
589.161	0.04
589.501	0.04
589.841	0.05
590.182	0.04
590.522	0.04
590.862	0.05
591.202	0.05
591.542	0.05
591.882	0.05
592.222	0.05
592.562	0.04
592.902	0.04
593.242	0.05
593.582	0.05
593.922	0.04
594.261	0.04
594.601	0.04
594.941	0.04
595.28	0.04
595.62	0.05
595.959	0.04
596.299	0.04
596.638	0.04
596.977	0.04
597.317	0.05
597.656	0.05
597.995	0.05
598.334	0.06
598.673	0.05
599.012	0.05
599.351	0.06
599.69	0.05
600.029	0.06
600.368	0.05
600.707	0.05
601.046	0.05
601.384	0.06
601.723	0.06
602.061	0.05
602.4	0.05
602.738	0.05
603.077	0.05
603.415	0.05
603.754	0.05
604.092	0.05
604.43	0.05
604.768	0.06
605.107	0.05
605.445	0.04
605.783	0.04
606.121	0.05
606.459	0.04
606.796	0.05
607.134	0.04
607.472	0.05
607.81	0.05
608.148	0.05
608.485	0.05
608.823	0.05
609.16	0.04
609.498	0.05
609.835	0.04
610.173	0.04
610.51	0.05
610.847	0.05
611.185	0.05
611.522	0.05
611.859	0.05
612.196	0.05
612.533	0.05
612.87	0.06
613.207	0.05
613.544	0.05
613.881	0.06
614.217	0.05
614.554	0.06
614.891	0.06
615.228	0.06
615.564	0.06
615.901	0.06
616.237	0.06
616.574	0.06
616.91	0.06
617.246	0.06
617.583	0.06
617.919	0.06
618.255	0.06
618.591	0.06
618.927	0.05
619.263	0.06
619.599	0.06
619.935	0.06
620.271	0.06
620.607	0.06
620.943	0.06
621.279	0.06
621.614	0.06
621.95	0.06
622.286	0.05
622.621	0.05
622.957	0.05
623.292	0.06
623.627	0.05
623.963	0.05
624.298	0.06
624.633	0.05
624.968	0.05
625.304	0.05
625.639	0.06
625.974	0.05
626.309	0.05
626.644	0.05
626.979	0.06
627.313	0.05
627.648	0.05
627.983	0.06
628.318	0.05
628.652	0.05
628.987	0.05
629.321	0.05
629.656	0.04
629.99	0.04
630.325	0.05
630.659	0.05
630.993	0.04
631.327	0.04
631.662	0.04
631.996	0.04
632.33	0.04
632.664	0.05
632.998	0.04
633.332	0.04
633.666	0.05
633.999	0.04
634.333	0.04
634.667	0.05
635.001	0.04
635.334	0.04
635.668	0.04
636.001	0.04
636.335	0.05
636.668	0.04
637.001	0.03
637.335	0.04
637.668	0.05
638.001	0.04
638.334	0.05
638.668	0.04
639.001	0.04
639.334	0.04
639.667	0.04
639.999	0.04
640.332	0.05
640.665	0.04
640.998	0.05
641.331	0.04
641.663	0.04
641.996	0.05
642.328	0.05
642.661	0.04
642.993	0.04
643.326	0.05
643.658	0.05
643.99	0.04
644.323	0.04
644.655	0.05
644.987	0.05
645.319	0.05
645.651	0.05
645.983	0.05
646.315	0.05
646.647	0.05
646.979	0.05
647.31	0.05
647.642	0.05
647.974	0.05
648.305	0.06
648.637	0.05
648.968	0.05
649.3	0.05
649.631	0.05
649.963	0.04
650.294	0.05
650.625	0.04
650.957	0.05
651.288	0.05
651.619	0.05
651.95	0.05
652.281	0.05
652.612	0.05
652.943	0.06
653.274	0.06
653.604	0.05
653.935	0.05
654.266	0.05
654.596	0.05
654.927	0.05
655.258	0.05
655.588	0.06
655.918	0.05
656.249	0.03
656.579	0.04
656.909	0.04
657.24	0.04
657.57	0.05
657.9	0.05
658.23	0.05
658.56	0.05
658.89	0.06
659.22	0.05
659.55	0.06
659.88	0.06
660.209	0.05
660.539	0.06
660.869	0.06
661.198	0.05
661.528	0.05
661.857	0.04
662.187	0.05
662.516	0.05
662.846	0.05
663.175	0.04
663.504	0.05
663.833	0.04
664.163	0.05
664.492	0.04
664.821	0.05
665.15	0.05
665.479	0.05
665.807	0.05
666.136	0.05
666.465	0.05
666.794	0.05
667.122	0.05
667.451	0.06
667.78	0.06
668.108	0.05
668.437	0.06
668.765	0.06
669.093	0.06
669.422	0.06
669.75	0.05
670.078	0.05
670.406	0.06
670.734	0.05
671.062	0.05
671.39	0.05
671.718	0.05
672.046	0.06
672.374	0.05
672.702	0.05
673.029	0.05
673.357	0.05
673.685	0.06
674.012	0.05
674.34	0.05
674.667	0.05
674.995	0.05
675.322	0.06
675.649	0.04
675.977	0.05
676.304	0.05
676.631	0.05
676.958	0.05
677.285	0.04
677.612	0.05
677.939	0.05
678.266	0.05
678.593	0.05
678.92	0.05
679.246	0.04
679.573	0.05
679.9	0.05
680.226	0.04
680.553	0.05
680.879	0.05
681.206	0.05
681.532	0.05
681.858	0.05
682.184	0.05
682.511	0.05
682.837	0.05
683.163	0.06
683.489	0.05
683.815	0.05
684.141	0.06
684.467	0.05
684.793	0.05
685.118	0.05
685.444	0.05
685.77	0.05
686.095	0.06
686.421	0.05
686.746	0.06
687.072	0.05
687.397	0.04
687.723	0.05
688.048	0.05
688.373	0.05
688.698	0.05
689.023	0.05
689.349	0.05
689.674	0.05
689.999	0.05
690.323	0.04
690.648	0.04
690.973	0.04
691.298	0.05
691.623	0.05
691.947	0.05
692.272	0.05
692.596	0.04
692.921	0.05
693.245	0.05
693.57	0.05
693.894	0.05
694.218	0.05
694.543	0.05
694.867	0.06
695.191	0.05
695.515	0.06
695.839	0.05
696.163	0.06
696.487	0.05
696.811	0.05
697.135	0.06
697.458	0.05
697.782	0.05
698.106	0.05
698.429	0.05
698.753	0.05
699.076	0.05
699.4	0.05
699.723	0.05
700.046	0.04
700.37	0.05
700.693	0.06
701.016	0.05
701.339	0.05
701.662	0.05
701.985	0.05
702.308	0.05
702.631	0.05
702.954	0.05
703.277	0.05
703.599	0.05
703.922	0.05
704.245	0.05
704.567	0.05
704.89	0.06
705.212	0.05
705.535	0.04
705.857	0.05
706.179	0.04
706.502	0.04
706.824	0.04
707.146	0.04
707.468	0.05
707.79	0.04
708.112	0.05
708.434	0.05
708.756	0.05
709.078	0.05
709.399	0.05
709.721	0.05
710.043	0.05
710.364	0.05
710.686	0.05
711.007	0.05
711.329	0.06
711.65	0.05
711.972	0.06
712.293	0.06
712.614	0.06
712.935	0.05
713.256	0.05
713.577	0.06
713.898	0.05
714.219	0.05
714.54	0.04
714.861	0.04
715.182	0.04
715.503	0.05
715.823	0.04
716.144	0.05
716.464	0.04
716.785	0.04
717.105	0.04
717.426	0.05
717.746	0.04
718.066	0.04
718.387	0.04
718.707	0.04
719.027	0.05
719.347	0.04
719.667	0.04
719.987	0.04
720.307	0.04
720.627	0.04
720.947	0.04
721.266	0.04
721.586	0.03
721.906	0.04
722.225	0.04
722.545	0.04
722.864	0.05
723.184	0.05
723.503	0.04
723.823	0.05
724.142	0.03
724.461	0.04
724.78	0.05
725.099	0.05
725.418	0.04
725.737	0.04
726.056	0.05
726.375	0.05
726.694	0.05
727.013	0.04
727.331	0.04
727.65	0.04
727.969	0.04
728.287	0.05
728.606	0.04
728.924	0.04
729.242	0.04
729.561	0.03
729.879	0.04
730.197	0.05
730.515	0.03
730.834	0.04
731.152	0.04
731.47	0.04
731.788	0.04
732.105	0.04
732.423	0.04
732.741	0.05
733.059	0.04
733.376	0.05
733.694	0.04
734.012	0.04
734.329	0.05
734.647	0.05
734.964	0.05
735.281	0.06
735.599	0.05
735.916	0.06
736.233	0.05
736.55	0.05
736.867	0.05
737.184	0.05
737.501	0.05
737.818	0.05
738.135	0.05
738.452	0.05
738.768	0.05
739.085	0.05
739.402	0.03
739.718	0.05
740.035	0.05
740.351	0.06
740.668	0.05
740.984	0.05
741.3	0.05
741.617	0.05
741.933	0.05
742.249	0.05
742.565	0.05
742.881	0.06
743.197	0.05
743.513	0.05
743.829	0.04
744.144	0.04
744.46	0.05
744.776	0.05
745.091	0.05
745.407	0.04
745.722	0.04
746.038	0.04
746.353	0.03
746.669	0.04
746.984	0.03
747.299	0.04
747.614	0.05
747.93	0.04
748.245	0.04
748.56	0.04
748.875	0.04
749.189	0.03
749.504	0.04
749.819	0.04
750.134	0.04
750.448	0.04
750.763	0.04
751.078	0.03
751.392	0.04
751.707	0.04
752.021	0.04
752.335	0.05
752.65	0.05
752.964	0.04
753.278	0.05
753.592	0.04
753.906	0.03
754.22	0.05
754.534	0.05
754.848	0.04
755.162	0.05
755.476	0.05
755.789	0.05
756.103	0.04
756.417	0.05
756.73	0.04
757.044	0.04
757.357	0.05
757.671	0.05
757.984	0.05
758.297	0.04
758.61	0.05
758.924	0.05
759.237	0.04
759.55	0.05
759.863	0.05
760.176	0.04
760.488	0.05
760.801	0.05
761.114	0.05
761.427	0.04
761.739	0.05
762.052	0.04
762.365	0.05
762.677	0.04
762.99	0.04
763.302	0.04
763.614	0.04
763.926	0.04
764.239	0.04
764.551	0.04
764.863	0.05
765.175	0.05
765.487	0.05
765.799	0.03
766.111	0.04
766.423	0.04
766.734	0.05
767.046	0.04
767.358	0.05
767.669	0.04
767.981	0.04
768.292	0.04
768.604	0.04
768.915	0.04
769.226	0.04
769.537	0.03
769.849	0.05
770.16	0.04
770.471	0.03
770.782	0.04
771.093	0.04
771.404	0.03
771.715	0.03
772.025	0.04
772.336	0.04
772.647	0.04
772.957	0.04
773.268	0.04
773.578	0.04
773.889	0.05
774.199	0.05
774.51	0.04
774.82	0.04
775.13	0.04
775.44	0.05
775.75	0.05
776.06	0.05
776.37	0.04
776.68	0.05
776.99	0.04
777.3	0.05
777.61	0.05
777.92	0.05
778.229	0.05
778.539	0.04
778.848	0.05
779.158	0.04
779.467	0.05
779.777	0.04
780.086	0.05
780.395	0.03
780.704	0.04
781.013	0.04
781.323	0.04
781.632	0.05
781.941	0.04
782.249	0.04
782.558	0.03
782.867	0.04
783.176	0.03
783.485	0.04
783.793	0.04
784.102	0.03
784.41	0.04
784.719	0.03
785.027	0.04
785.335	0.04
785.644	0.04
785.952	0.03
786.26	0.04
786.568	0.03
786.876	0.03
787.184	0.04
787.492	0.05
787.8	0.04
788.108	0.04
788.416	0.04
788.723	0.04
789.031	0.03
789.338	0.04
789.646	0.04
789.953	0.05
790.261	0.05
790.568	0.04
790.876	0.04
791.183	0.05
791.49	0.04
791.797	0.04
792.104	0.04
792.411	0.05
792.718	0.04
793.025	0.05
793.332	0.04
793.639	0.05
793.945	0.06
794.252	0.05
794.559	0.04
794.865	0.05
795.172	0.04
795.478	0.04
795.784	0.05
796.091	0.05
796.397	0.05
796.703	0.06
797.009	0.06
797.315	0.05
797.622	0.06
797.927	0.06
798.233	0.05
798.539	0.06
798.845	0.06
799.151	0.06
799.456	0.05
799.762	0.05
800.068	0.05
800.373	0.06
800.679	0.05
800.984	0.05
801.289	0.05
801.595	0.05
801.9	0.06
802.205	0.06
802.51	0.06
802.815	0.05
803.12	0.06
803.425	0.06
803.73	0.05
804.035	0.05
804.339	0.05
804.644	0.05
804.949	0.05
805.253	0.05
805.558	0.04
805.862	0.04
806.167	0.05
806.471	0.04
806.775	0.05
807.08	0.05
807.384	0.04
807.688	0.04
807.992	0.04
808.296	0.05
808.6	0.05
808.904	0.05
809.207	0.05
809.511	0.05
809.815	0.06
810.119	0.05
810.422	0.06
810.726	0.07
811.029	0.06
811.332	0.05
811.636	0.06
811.939	0.06
812.242	0.06
812.546	0.06
812.849	0.05
813.152	0.06
813.455	0.06
813.758	0.06
814.06	0.06
814.363	0.06
814.666	0.06
814.969	0.06
815.271	0.06
815.574	0.06
815.877	0.05
816.179	0.06
816.481	0.05
816.784	0.06
817.086	0.05
817.388	0.04
817.69	0.05
817.993	0.04
818.295	0.04
818.597	0.05
818.899	0.04
819.2	0.03
819.502	0.04
819.804	0.04
820.106	0.04
820.407	0.04
820.709	0.04
821.01	0.04
821.312	0.04
821.613	0.04
821.915	0.03
822.216	0.04
822.517	0.03
822.818	0.04
823.119	0.03
823.42	0.04
823.721	0.03
824.022	0.03
824.323	0.03
824.624	0.03
824.925	0.04
825.226	0.05
825.526	0.03
825.827	0.03
826.127	0.05
826.428	0.04
826.728	0.03
827.028	0.03
827.329	0.03
827.629	0.03
827.929	0.03
828.229	0.04
828.529	0.04
828.829	0.03
829.129	0.03
829.429	0.04
829.729	0.03
830.029	0.02
830.328	0.03
830.628	0.03
830.927	0.02
831.227	0.02
831.526	0.03
831.826	0.03
832.125	0.03
832.424	0.03
832.724	0.03
833.023	0.03
833.322	0.03
833.621	0.03
833.92	0.02
834.219	0.02
834.518	0.03
834.816	0.01
835.115	0.02
835.414	0.02
835.712	0.02
836.011	0.01
836.309	0.01
836.608	0.01
836.906	0.01
837.205	0.01
837.503	0.01
837.801	0.01
838.099	-0.01
838.397	-0.01
838.695	-0.01
838.993	-0
839.291	-0.01
839.589	-0.01
839.887	-0.01
840.184	-0.01
840.482	-0.01
840.78	-0.01
841.077	-0.01
841.375	-0.02
841.672	-0.01
841.969	-0.02
842.267	-0.01
842.564	-0.02
842.861	-0.01
843.158	-0.01
843.455	-0.03
843.752	-0.03
844.049	-0.02
844.346	-0.02
844.643	-0.03
844.94	-0.03
845.236	-0.01
845.533	-0.02
845.83	-0.02
846.126	-0.03
846.423	-0.03
846.719	-0.04
847.015	-0.02
847.312	-0.03
847.608	-0.04
847.904	-0.04
848.2	-0.04
848.496	-0.04
848.792	-0.03
849.088	-0.02
849.384	-0.04
849.68	-0.04
849.975	-0.04
850.271	-0.04
850.567	-0.04
850.862	-0.05
851.158	-0.05
851.453	-0.04
851.748	-0.05
852.044	-0.05
852.339	-0.05
852.634	-0.07
852.929	-0.04
853.224	-0.06
853.519	-0.05
853.814	-0.04
854.109	-0.06
854.404	-0.06
854.699	-0.06
854.994	-0.05
855.288	-0.05
855.583	-0.05
855.877	-0.07
856.172	-0.06
856.466	-0.06
856.76	-0.06
857.055	-0.06
857.349	-0.08
857.643	-0.08
857.937	-0.08
858.231	-0.08
858.525	-0.1
858.819	-0.09
859.113	-0.1
859.407	-0.09
859.701	-0.11
859.994	-0.1
860.288	-0.09
860.581	-0.1
860.875	-0.1
861.168	-0.1
861.462	-0.1
861.755	-0.09
862.048	-0.11
862.341	-0.11
862.634	-0.12
862.928	-0.11
863.221	-0.11
863.513	-0.11
863.806	-0.12
864.099	-0.11
864.392	-0.12
864.685	-0.11
864.977	-0.11
865.27	-0.12
865.562	-0.11
865.855	-0.12
866.147	-0.12
866.44	-0.11
866.732	-0.12
867.024	-0.12
867.316	-0.13
867.608	-0.12
867.9	-0.13
868.192	-0.12
868.484	-0.12
868.776	-0.13
869.068	-0.13
869.359	-0.13
869.651	-0.13
869.943	-0.14
870.234	-0.15
870.526	-0.14
870.817	-0.15
871.108	-0.13
871.4	-0.14
871.691	-0.14
871.982	-0.16
872.273	-0.16
872.564	-0.16
872.855	-0.15
873.146	-0.15
873.437	-0.15
873.728	-0.17
874.019	-0.14
874.309	-0.17
874.6	-0.16
874.89	-0.16
875.181	-0.16
875.471	-0.16
875.762	-0.17
876.052	-0.15
876.342	-0.15
876.632	-0.18
876.922	-0.17
877.213	-0.17
877.503	-0.19
877.792	-0.17
878.082	-0.17
878.372	-0.17
878.662	-0.18
878.952	-0.17
879.241	-0.17
879.531	-0.16
879.82	-0.17
880.11	-0.17
880.399	-0.17
880.688	-0.15
880.978	-0.15
881.267	-0.15
