Data from 12-12-AQDScycling_Absorbance__138__00138.txt Node

Date: Tue Dec 12 11:31:36 EST 2023
User: kyuminlee
Spectrometer: FLMS00943
Trigger mode: 0
Integration Time (sec): 1.000000E-1
Scans to average: 1
Electric dark correction enabled: true
Nonlinearity correction enabled: false
Boxcar width: 0
XAxis mode: Wavelengths
Number of Pixels in Spectrum: 2048
>>>>>Begin Spectral Data<<<<<
179.651	-0
180.037	-0
180.424	-0
180.81	-0.34
181.197	0.46
181.583	-0.29
181.97	-0.33
182.356	-0
182.743	-0
183.129	0.01
183.515	0.92
183.901	-2.45
184.288	0.65
184.674	-0
185.06	-0
185.446	-0
185.832	-0
186.218	0.01
186.604	-0
186.99	-0.38
187.376	0.06
187.762	-0.31
188.148	1.18
188.534	-0.19
188.92	0.06
189.305	0.09
189.691	0.28
190.077	0.28
190.463	0.2
190.848	0.09
191.234	0.09
191.619	0.12
192.005	0.04
192.391	0.19
192.776	0.15
193.161	0.12
193.547	0.1
193.932	0.03
194.318	0.01
194.703	0.16
195.088	0.19
195.473	0.2
195.859	0.14
196.244	0.24
196.629	0.19
197.014	0.13
197.399	0.14
197.784	0.26
198.169	0.17
198.554	0.22
198.939	0.2
199.324	0.18
199.709	0.12
200.094	0.13
200.478	0.42
200.863	0.26
201.248	0.15
201.633	0.3
202.017	0.21
202.402	0.28
202.787	0.13
203.171	0.18
203.556	0.21
203.94	0.12
204.325	0.21
204.709	0.1
205.093	0.17
205.478	0.12
205.862	0.13
206.246	0.4
206.631	0.33
207.015	0.22
207.399	0.09
207.783	0.15
208.167	0.25
208.551	0.27
208.935	0.13
209.319	0.14
209.703	0.24
210.087	0.21
210.471	0.25
210.855	0.19
211.239	0.18
211.623	0.33
212.007	0.44
212.39	0.31
212.774	0.1
213.158	0.16
213.541	0.29
213.925	0.21
214.309	0.55
214.692	0.39
215.076	0.26
215.459	0.17
215.842	0.2
216.226	0.35
216.609	0.25
216.993	0.2
217.376	0.7
217.759	0.23
218.142	0.34
218.525	0.4
218.909	0.37
219.292	0.29
219.675	0.52
220.058	0.46
220.441	0.53
220.824	0.49
221.207	0.43
221.59	0.52
221.973	0.45
222.355	0.55
222.738	0.68
223.121	0.51
223.504	0.65
223.886	0.62
224.269	0.58
224.652	0.59
225.034	0.86
225.417	0.69
225.799	0.74
226.182	0.85
226.564	0.82
226.947	0.7
227.329	0.8
227.711	0.94
228.094	0.94
228.476	1.1
228.858	0.87
229.24	0.9
229.623	1
230.005	0.79
230.387	0.96
230.769	0.85
231.151	0.96
231.533	1.02
231.915	0.9
232.297	1.04
232.679	0.96
233.061	0.99
233.442	1.08
233.824	1.05
234.206	1.18
234.588	1.17
234.969	1.11
235.351	1.13
235.733	1.08
236.114	1.13
236.496	1.14
236.877	1.03
237.259	1.17
237.64	1.24
238.022	1.04
238.403	0.99
238.784	1.15
239.165	0.99
239.547	1.07
239.928	1.39
240.309	1.09
240.69	1.11
241.071	1.1
241.452	1.11
241.834	1.13
242.215	1.11
242.595	1.1
242.976	1.17
243.357	1.19
243.738	1.08
244.119	1.33
244.5	1.18
244.881	1.32
245.261	1.29
245.642	1.18
246.023	1.3
246.403	1.24
246.784	1.3
247.164	1.32
247.545	1.31
247.925	1.3
248.306	1.13
248.686	1.45
249.067	1.34
249.447	1.3
249.827	1.46
250.207	1.58
250.588	1.42
250.968	1.54
251.348	1.37
251.728	1.43
252.108	1.35
252.488	1.43
252.868	1.37
253.248	1.33
253.628	1.44
254.008	1.49
254.388	1.33
254.768	1.26
255.147	1.47
255.527	1.48
255.907	1.36
256.287	1.34
256.666	1.41
257.046	1.41
257.425	1.39
257.805	1.36
258.184	1.34
258.564	1.36
258.943	1.43
259.323	1.45
259.702	1.56
260.081	1.43
260.461	1.61
260.84	1.39
261.219	1.83
261.598	1.46
261.977	1.42
262.356	1.59
262.736	1.49
263.115	1.58
263.494	1.41
263.873	1.45
264.251	1.53
264.63	1.66
265.009	1.54
265.388	1.45
265.767	1.42
266.145	1.46
266.524	1.47
266.903	1.55
267.281	1.35
267.66	1.37
268.039	1.32
268.417	1.55
268.796	1.33
269.174	1.52
269.552	1.32
269.931	1.39
270.309	1.34
270.687	1.73
271.066	1.49
271.444	1.37
271.822	1.58
272.2	1.52
272.578	1.41
272.956	1.64
273.334	1.39
273.712	1.51
274.09	1.45
274.468	1.29
274.846	1.35
275.224	1.36
275.602	1.6
275.98	1.51
276.357	1.37
276.735	1.47
277.113	1.45
277.49	1.34
277.868	1.42
278.246	1.44
278.623	1.28
279.001	1.31
279.378	1.45
279.756	1.58
280.133	1.5
280.51	1.41
280.888	1.49
281.265	1.36
281.642	1.52
282.019	1.58
282.396	1.84
282.773	1.35
283.151	1.6
283.528	1.49
283.905	1.52
284.282	1.5
284.659	1.48
285.035	1.38
285.412	1.34
285.789	1.44
286.166	1.45
286.543	1.38
286.919	1.51
287.296	1.44
287.673	1.57
288.049	1.62
288.426	1.66
288.802	1.46
289.179	1.46
289.555	1.6
289.932	1.5
290.308	1.49
290.684	1.46
291.061	1.35
291.437	1.68
291.813	1.39
292.189	1.16
292.565	1.29
292.942	1.58
293.318	1.44
293.694	1.55
294.07	1.37
294.446	1.51
294.822	1.44
295.197	1.34
295.573	1.35
295.949	1.39
296.325	1.41
296.701	1.51
297.076	1.45
297.452	1.5
297.828	1.44
298.203	1.49
298.579	1.3
298.954	1.28
299.33	1.3
299.705	1.31
300.081	1.34
300.456	1.3
300.831	1.36
301.206	1.25
301.582	1.26
301.957	1.22
302.332	1.29
302.707	1.17
303.082	1.16
303.457	1.19
303.832	1.16
304.207	1.1
304.582	1.08
304.957	1.07
305.332	1.09
305.707	1.04
306.082	1.08
306.456	1.07
306.831	0.98
307.206	1
307.58	0.99
307.955	0.97
308.33	0.93
308.704	0.94
309.079	0.89
309.453	0.91
309.828	0.87
310.202	0.85
310.576	0.85
310.951	0.88
311.325	0.84
311.699	0.84
312.073	0.81
312.447	0.83
312.821	0.78
313.196	0.77
313.57	0.75
313.944	0.76
314.317	0.73
314.691	0.77
315.065	0.78
315.439	0.73
315.813	0.73
316.187	0.72
316.56	0.74
316.934	0.71
317.308	0.71
317.681	0.68
318.055	0.67
318.428	0.68
318.802	0.69
319.175	0.69
319.549	0.65
319.922	0.65
320.295	0.63
320.669	0.69
321.042	0.67
321.415	0.67
321.788	0.68
322.162	0.65
322.535	0.66
322.908	0.66
323.281	0.64
323.654	0.66
324.027	0.64
324.4	0.65
324.773	0.65
325.145	0.67
325.518	0.61
325.891	0.64
326.264	0.67
326.636	0.64
327.009	0.67
327.382	0.65
327.754	0.67
328.127	0.65
328.499	0.69
328.872	0.67
329.244	0.68
329.616	0.66
329.989	0.67
330.361	0.68
330.733	0.68
331.106	0.68
331.478	0.7
331.85	0.72
332.222	0.7
332.594	0.74
332.966	0.73
333.338	0.75
333.71	0.75
334.082	0.79
334.454	0.75
334.826	0.76
335.197	0.77
335.569	0.75
335.941	0.77
336.312	0.79
336.684	0.82
337.056	0.84
337.427	0.87
337.799	0.86
338.17	0.82
338.542	0.83
338.913	0.84
339.284	0.82
339.656	0.85
340.027	0.87
340.398	0.91
340.769	0.89
341.141	0.93
341.512	0.89
341.883	0.91
342.254	0.93
342.625	0.93
342.996	0.92
343.367	1
343.738	0.97
344.108	0.96
344.479	1.08
344.85	0.96
345.221	1.01
345.591	1.04
345.962	1.07
346.333	1.11
346.703	0.97
347.074	1.05
347.444	1.12
347.815	1.1
348.185	1.13
348.556	1.08
348.926	1.12
349.296	1.19
349.666	1.07
350.037	1.12
350.407	1.11
350.777	1.11
351.147	1.14
351.517	1.17
351.887	1.17
352.257	1.3
352.627	1.23
352.997	1.21
353.367	1.41
353.737	1.37
354.106	1.4
354.476	1.35
354.846	1.34
355.216	1.31
355.585	1.34
355.955	1.34
356.324	1.4
356.694	1.5
357.063	1.43
357.433	1.3
357.802	1.44
358.171	1.45
358.541	1.47
358.91	1.49
359.279	1.62
359.648	1.43
360.017	1.54
360.387	1.6
360.756	1.44
361.125	1.51
361.494	1.65
361.863	1.49
362.231	1.57
362.6	1.55
362.969	1.57
363.338	1.41
363.707	1.72
364.075	1.71
364.444	1.46
364.813	1.47
365.181	1.63
365.55	1.63
365.918	1.65
366.287	1.58
366.655	1.55
367.024	1.74
367.392	1.59
367.76	1.47
368.128	1.5
368.497	1.5
368.865	1.57
369.233	1.66
369.601	1.54
369.969	1.49
370.337	1.73
370.705	1.53
371.073	1.51
371.441	1.57
371.809	1.47
372.177	1.6
372.544	1.66
372.912	1.62
373.28	1.54
373.647	1.7
374.015	1.86
374.383	1.99
374.75	1.81
375.118	1.62
375.485	1.68
375.853	1.58
376.22	1.59
376.587	1.68
376.955	1.75
377.322	1.52
377.689	1.64
378.056	1.44
378.423	1.45
378.79	1.52
379.157	1.63
379.524	1.72
379.891	1.47
380.258	1.62
380.625	1.58
380.992	1.57
381.359	1.46
381.726	1.77
382.092	1.57
382.459	1.52
382.826	1.54
383.192	1.64
383.559	1.41
383.925	1.47
384.292	1.53
384.658	1.85
385.025	1.61
385.391	1.86
385.757	1.8
386.123	1.57
386.49	1.7
386.856	1.69
387.222	1.72
387.588	1.55
387.954	1.81
388.32	1.91
388.686	1.68
389.052	1.57
389.418	1.63
389.784	1.51
390.15	1.63
390.515	1.38
390.881	1.61
391.247	1.48
391.613	1.68
391.978	1.45
392.344	1.75
392.709	1.68
393.075	1.65
393.44	1.61
393.806	1.7
394.171	1.41
394.536	1.56
394.902	1.6
395.267	1.5
395.632	1.43
395.997	1.44
396.362	1.46
396.727	1.55
397.092	1.63
397.457	1.59
397.822	1.56
398.187	1.7
398.552	1.53
398.917	1.66
399.282	1.5
399.646	1.47
400.011	1.68
400.376	1.52
400.74	1.45
401.105	1.53
401.47	1.66
401.834	1.68
402.199	1.53
402.563	1.71
402.927	1.45
403.292	1.73
403.656	1.61
404.02	1.78
404.384	1.91
404.749	1.53
405.113	1.58
405.477	1.72
405.841	1.67
406.205	1.5
406.569	1.53
406.933	1.49
407.296	1.61
407.66	1.6
408.024	1.65
408.388	1.65
408.752	1.6
409.115	1.74
409.479	1.56
409.842	1.6
410.206	1.5
410.569	1.59
410.933	1.68
411.296	1.47
411.66	1.71
412.023	1.37
412.386	1.5
412.749	1.49
413.113	1.51
413.476	1.51
413.839	1.59
414.202	1.61
414.565	1.44
414.928	1.49
415.291	1.44
415.654	1.51
416.017	1.63
416.38	1.57
416.742	1.53
417.105	1.53
417.468	1.42
417.83	1.56
418.193	1.57
418.556	1.57
418.918	1.45
419.281	1.58
419.643	1.66
420.005	1.47
420.368	1.6
420.73	1.49
421.092	1.56
421.455	1.64
421.817	1.44
422.179	1.47
422.541	1.53
422.903	1.71
423.265	1.52
423.627	1.53
423.989	1.52
424.351	1.5
424.713	1.52
425.075	1.45
425.436	1.45
425.798	1.47
426.16	1.5
426.521	1.51
426.883	1.51
427.245	1.5
427.606	1.4
427.967	1.45
428.329	1.48
428.69	1.65
429.052	1.5
429.413	1.68
429.774	1.54
430.135	1.52
430.497	1.64
430.858	1.54
431.219	1.65
431.58	1.53
431.941	1.48
432.302	1.5
432.663	1.6
433.024	1.67
433.384	1.5
433.745	1.45
434.106	1.63
434.467	1.59
434.827	1.52
435.188	1.51
435.548	1.58
435.909	1.5
436.269	1.57
436.63	1.46
436.99	1.61
437.351	1.43
437.711	1.59
438.071	1.51
438.431	1.47
438.792	1.53
439.152	1.49
439.512	1.49
439.872	1.49
440.232	1.54
440.592	1.5
440.952	1.45
441.312	1.45
441.671	1.43
442.031	1.51
442.391	1.41
442.751	1.47
443.11	1.37
443.47	1.4
443.83	1.38
444.189	1.46
444.549	1.38
444.908	1.37
445.267	1.45
445.627	1.37
445.986	1.43
446.345	1.3
446.705	1.42
447.064	1.42
447.423	1.36
447.782	1.43
448.141	1.33
448.5	1.34
448.859	1.37
449.218	1.36
449.577	1.33
449.936	1.34
450.295	1.36
450.653	1.33
451.012	1.28
451.371	1.33
451.729	1.3
452.088	1.31
452.447	1.3
452.805	1.29
453.163	1.3
453.522	1.28
453.88	1.26
454.239	1.31
454.597	1.21
454.955	1.19
455.313	1.2
455.671	1.21
456.029	1.22
456.388	1.17
456.746	1.16
457.104	1.14
457.461	1.11
457.819	1.11
458.177	1.1
458.535	1.1
458.893	1.08
459.25	1.07
459.608	1.04
459.966	1.03
460.323	1.04
460.681	0.99
461.038	0.99
461.396	0.97
461.753	0.97
462.111	0.97
462.468	0.92
462.825	0.9
463.182	0.92
463.54	0.89
463.897	0.9
464.254	0.88
464.611	0.87
464.968	0.84
465.325	0.83
465.682	0.81
466.039	0.81
466.395	0.8
466.752	0.78
467.109	0.78
467.466	0.77
467.822	0.76
468.179	0.73
468.535	0.74
468.892	0.71
469.248	0.71
469.605	0.69
469.961	0.68
470.318	0.69
470.674	0.67
471.03	0.65
471.386	0.65
471.743	0.64
472.099	0.6
472.455	0.6
472.811	0.58
473.167	0.58
473.523	0.56
473.879	0.55
474.235	0.55
474.59	0.53
474.946	0.52
475.302	0.52
475.657	0.51
476.013	0.51
476.369	0.49
476.724	0.49
477.08	0.49
477.435	0.45
477.791	0.46
478.146	0.46
478.501	0.44
478.857	0.44
479.212	0.43
479.567	0.41
479.922	0.41
480.277	0.4
480.632	0.38
480.987	0.38
481.342	0.38
481.697	0.36
482.052	0.36
482.407	0.35
482.762	0.34
483.116	0.33
483.471	0.33
483.826	0.32
484.18	0.31
484.535	0.3
484.89	0.29
485.244	0.29
485.598	0.29
485.953	0.28
486.307	0.27
486.661	0.27
487.016	0.26
487.37	0.26
487.724	0.26
488.078	0.25
488.432	0.25
488.786	0.24
489.14	0.23
489.494	0.23
489.848	0.22
490.202	0.21
490.556	0.21
490.91	0.21
491.263	0.21
491.617	0.21
491.971	0.21
492.324	0.19
492.678	0.19
493.031	0.19
493.385	0.18
493.738	0.18
494.091	0.17
494.445	0.17
494.798	0.17
495.151	0.16
495.504	0.16
495.857	0.16
496.21	0.16
496.564	0.15
496.916	0.16
497.269	0.15
497.622	0.15
497.975	0.15
498.328	0.15
498.681	0.14
499.033	0.13
499.386	0.13
499.739	0.12
500.091	0.12
500.444	0.12
500.796	0.13
501.149	0.11
501.501	0.12
501.854	0.12
502.206	0.11
502.558	0.11
502.91	0.11
503.263	0.11
503.615	0.11
503.967	0.11
504.319	0.11
504.671	0.1
505.023	0.1
505.375	0.09
505.726	0.09
506.078	0.1
506.43	0.09
506.782	0.09
507.133	0.08
507.485	0.09
507.837	0.09
508.188	0.09
508.54	0.09
508.891	0.09
509.243	0.08
509.594	0.09
509.945	0.08
510.296	0.08
510.648	0.08
510.999	0.07
511.35	0.07
511.701	0.08
512.052	0.08
512.403	0.07
512.754	0.07
513.105	0.07
513.456	0.06
513.807	0.06
514.157	0.07
514.508	0.06
514.859	0.06
515.209	0.06
515.56	0.06
515.91	0.05
516.261	0.07
516.611	0.06
516.962	0.06
517.312	0.06
517.662	0.06
518.013	0.06
518.363	0.06
518.713	0.06
519.063	0.05
519.413	0.06
519.763	0.05
520.113	0.06
520.463	0.06
520.813	0.06
521.163	0.06
521.512	0.05
521.862	0.06
522.212	0.06
522.562	0.05
522.911	0.06
523.261	0.05
523.61	0.05
523.96	0.05
524.309	0.06
524.658	0.05
525.008	0.05
525.357	0.05
525.706	0.06
526.056	0.05
526.405	0.05
526.754	0.05
527.103	0.05
527.452	0.05
527.801	0.05
528.15	0.05
528.499	0.05
528.847	0.05
529.196	0.06
529.545	0.06
529.893	0.06
530.242	0.06
530.591	0.06
530.939	0.06
531.288	0.06
531.636	0.06
531.985	0.06
532.333	0.05
532.681	0.06
533.029	0.05
533.378	0.05
533.726	0.06
534.074	0.06
534.422	0.05
534.77	0.05
535.118	0.05
535.466	0.05
535.814	0.05
536.162	0.05
536.509	0.05
536.857	0.05
537.205	0.05
537.552	0.06
537.9	0.06
538.248	0.05
538.595	0.05
538.943	0.06
539.29	0.05
539.637	0.05
539.985	0.04
540.332	0.04
540.679	0.04
541.026	0.04
541.373	0.04
541.721	0.04
542.068	0.04
542.415	0.04
542.762	0.04
543.108	0.04
543.455	0.03
543.802	0.04
544.149	0.04
544.496	0.04
544.842	0.03
545.189	0.03
545.535	0.04
545.882	0.04
546.228	0.04
546.575	0.03
546.921	0.04
547.267	0.04
547.614	0.04
547.96	0.04
548.306	0.04
548.652	0.04
548.998	0.04
549.344	0.03
549.69	0.04
550.036	0.04
550.382	0.04
550.728	0.03
551.074	0.04
551.42	0.05
551.765	0.04
552.111	0.05
552.457	0.05
552.802	0.05
553.148	0.04
553.493	0.04
553.839	0.05
554.184	0.05
554.529	0.04
554.875	0.04
555.22	0.04
555.565	0.04
555.91	0.04
556.255	0.05
556.6	0.05
556.945	0.04
557.29	0.04
557.635	0.05
557.98	0.04
558.325	0.04
558.67	0.04
559.014	0.04
559.359	0.04
559.704	0.04
560.048	0.03
560.393	0.04
560.737	0.03
561.082	0.04
561.426	0.03
561.77	0.04
562.115	0.03
562.459	0.03
562.803	0.04
563.147	0.03
563.491	0.03
563.835	0.04
564.179	0.03
564.523	0.03
564.867	0.04
565.211	0.03
565.555	0.04
565.899	0.04
566.242	0.05
566.586	0.03
566.93	0.04
567.273	0.04
567.617	0.04
567.96	0.04
568.304	0.04
568.647	0.04
568.99	0.05
569.334	0.04
569.677	0.04
570.02	0.05
570.363	0.04
570.706	0.04
571.049	0.04
571.392	0.04
571.735	0.04
572.078	0.04
572.421	0.05
572.764	0.04
573.106	0.04
573.449	0.04
573.792	0.04
574.134	0.04
574.477	0.04
574.819	0.04
575.162	0.04
575.504	0.04
575.847	0.04
576.189	0.05
576.531	0.04
576.873	0.04
577.215	0.04
577.558	0.04
577.9	0.04
578.242	0.04
578.584	0.04
578.926	0.04
579.267	0.03
579.609	0.03
579.951	0.03
580.293	0.03
580.634	0.04
580.976	0.04
581.318	0.04
581.659	0.03
582.001	0.04
582.342	0.03
582.683	0.04
583.025	0.03
583.366	0.03
583.707	0.03
584.049	0.03
584.39	0.04
584.731	0.03
585.072	0.03
585.413	0.04
585.754	0.04
586.095	0.04
586.435	0.04
586.776	0.04
587.117	0.03
587.458	0.03
587.798	0.04
588.139	0.03
588.48	0.04
588.82	0.03
589.161	0.03
589.501	0.03
589.841	0.03
590.182	0.03
590.522	0.03
590.862	0.04
591.202	0.03
591.542	0.03
591.882	0.03
592.222	0.04
592.562	0.04
592.902	0.03
593.242	0.03
593.582	0.04
593.922	0.03
594.261	0.03
594.601	0.03
594.941	0.04
595.28	0.04
595.62	0.03
595.959	0.04
596.299	0.03
596.638	0.03
596.977	0.03
597.317	0.03
597.656	0.03
597.995	0.03
598.334	0.04
598.673	0.03
599.012	0.03
599.351	0.03
599.69	0.03
600.029	0.03
600.368	0.03
600.707	0.03
601.046	0.03
601.384	0.04
601.723	0.04
602.061	0.03
602.4	0.04
602.738	0.03
603.077	0.03
603.415	0.03
603.754	0.03
604.092	0.03
604.43	0.04
604.768	0.04
605.107	0.04
605.445	0.03
605.783	0.03
606.121	0.03
606.459	0.03
606.796	0.03
607.134	0.03
607.472	0.03
607.81	0.03
608.148	0.03
608.485	0.04
608.823	0.03
609.16	0.03
609.498	0.04
609.835	0.03
610.173	0.03
610.51	0.04
610.847	0.03
611.185	0.04
611.522	0.04
611.859	0.04
612.196	0.04
612.533	0.05
612.87	0.04
613.207	0.04
613.544	0.04
613.881	0.05
614.217	0.05
614.554	0.04
614.891	0.04
615.228	0.05
615.564	0.05
615.901	0.05
616.237	0.04
616.574	0.04
616.91	0.05
617.246	0.05
617.583	0.05
617.919	0.05
618.255	0.05
618.591	0.05
618.927	0.05
619.263	0.05
619.599	0.05
619.935	0.05
620.271	0.05
620.607	0.05
620.943	0.04
621.279	0.05
621.614	0.04
621.95	0.05
622.286	0.05
622.621	0.04
622.957	0.04
623.292	0.04
623.627	0.04
623.963	0.04
624.298	0.04
624.633	0.04
624.968	0.03
625.304	0.04
625.639	0.03
625.974	0.03
626.309	0.03
626.644	0.04
626.979	0.04
627.313	0.04
627.648	0.03
627.983	0.04
628.318	0.03
628.652	0.03
628.987	0.04
629.321	0.04
629.656	0.03
629.99	0.03
630.325	0.04
630.659	0.04
630.993	0.04
631.327	0.04
631.662	0.03
631.996	0.03
632.33	0.03
632.664	0.04
632.998	0.03
633.332	0.03
633.666	0.04
633.999	0.03
634.333	0.03
634.667	0.03
635.001	0.02
635.334	0.03
635.668	0.03
636.001	0.03
636.335	0.03
636.668	0.03
637.001	0.02
637.335	0.03
637.668	0.03
638.001	0.03
638.334	0.03
638.668	0.03
639.001	0.03
639.334	0.02
639.667	0.03
639.999	0.03
640.332	0.03
640.665	0.02
640.998	0.03
641.331	0.03
641.663	0.03
641.996	0.03
642.328	0.03
642.661	0.03
642.993	0.03
643.326	0.04
643.658	0.03
643.99	0.03
644.323	0.03
644.655	0.03
644.987	0.04
645.319	0.04
645.651	0.04
645.983	0.03
646.315	0.03
646.647	0.04
646.979	0.04
647.31	0.04
647.642	0.04
647.974	0.04
648.305	0.04
648.637	0.04
648.968	0.04
649.3	0.04
649.631	0.05
649.963	0.03
650.294	0.04
650.625	0.04
650.957	0.04
651.288	0.04
651.619	0.04
651.95	0.05
652.281	0.04
652.612	0.04
652.943	0.04
653.274	0.05
653.604	0.04
653.935	0.04
654.266	0.04
654.596	0.04
654.927	0.03
655.258	0.04
655.588	0.04
655.918	0.04
656.249	0.02
656.579	0.04
656.909	0.04
657.24	0.04
657.57	0.05
657.9	0.04
658.23	0.04
658.56	0.05
658.89	0.05
659.22	0.04
659.55	0.04
659.88	0.05
660.209	0.05
660.539	0.06
660.869	0.05
661.198	0.05
661.528	0.04
661.857	0.04
662.187	0.04
662.516	0.04
662.846	0.04
663.175	0.04
663.504	0.04
663.833	0.04
664.163	0.04
664.492	0.04
664.821	0.04
665.15	0.04
665.479	0.04
665.807	0.04
666.136	0.04
666.465	0.04
666.794	0.04
667.122	0.04
667.451	0.04
667.78	0.04
668.108	0.04
668.437	0.04
668.765	0.04
669.093	0.04
669.422	0.04
669.75	0.04
670.078	0.04
670.406	0.04
670.734	0.04
671.062	0.04
671.39	0.04
671.718	0.04
672.046	0.04
672.374	0.04
672.702	0.04
673.029	0.04
673.357	0.05
673.685	0.05
674.012	0.04
674.34	0.04
674.667	0.04
674.995	0.04
675.322	0.04
675.649	0.04
675.977	0.04
676.304	0.04
676.631	0.04
676.958	0.04
677.285	0.03
677.612	0.03
677.939	0.04
678.266	0.04
678.593	0.03
678.92	0.04
679.246	0.03
679.573	0.04
679.9	0.03
680.226	0.03
680.553	0.03
680.879	0.03
681.206	0.04
681.532	0.03
681.858	0.03
682.184	0.03
682.511	0.04
682.837	0.03
683.163	0.04
683.489	0.03
683.815	0.03
684.141	0.04
684.467	0.04
684.793	0.03
685.118	0.03
685.444	0.04
685.77	0.04
686.095	0.04
686.421	0.04
686.746	0.04
687.072	0.04
687.397	0.03
687.723	0.04
688.048	0.04
688.373	0.04
688.698	0.04
689.023	0.04
689.349	0.04
689.674	0.04
689.999	0.03
690.323	0.03
690.648	0.02
690.973	0.02
691.298	0.02
691.623	0.02
691.947	0.02
692.272	0.02
692.596	0.03
692.921	0.03
693.245	0.03
693.57	0.03
693.894	0.03
694.218	0.03
694.543	0.03
694.867	0.03
695.191	0.02
695.515	0.03
695.839	0.02
696.163	0.02
696.487	0.03
696.811	0.02
697.135	0.03
697.458	0.03
697.782	0.03
698.106	0.03
698.429	0.03
698.753	0.03
699.076	0.03
699.4	0.02
699.723	0.03
700.046	0.02
700.37	0.04
700.693	0.04
701.016	0.03
701.339	0.03
701.662	0.04
701.985	0.04
702.308	0.03
702.631	0.04
702.954	0.03
703.277	0.03
703.599	0.03
703.922	0.03
704.245	0.03
704.567	0.03
704.89	0.04
705.212	0.04
705.535	0.03
705.857	0.03
706.179	0.03
706.502	0.02
706.824	0.02
707.146	0.02
707.468	0.03
707.79	0.03
708.112	0.03
708.434	0.03
708.756	0.03
709.078	0.03
709.399	0.03
709.721	0.03
710.043	0.03
710.364	0.03
710.686	0.03
711.007	0.03
711.329	0.04
711.65	0.03
711.972	0.03
712.293	0.03
712.614	0.03
712.935	0.04
713.256	0.03
713.577	0.04
713.898	0.03
714.219	0.03
714.54	0.03
714.861	0.02
715.182	0.03
715.503	0.03
715.823	0.03
716.144	0.02
716.464	0.02
716.785	0.02
717.105	0.03
717.426	0.03
717.746	0.02
718.066	0.03
718.387	0.03
718.707	0.01
719.027	0.03
719.347	0.02
719.667	0.03
719.987	0.02
720.307	0.02
720.627	0.02
720.947	0.02
721.266	0.02
721.586	0.01
721.906	0.02
722.225	0.01
722.545	0.01
722.864	0.01
723.184	0.02
723.503	0.02
723.823	0.02
724.142	0.01
724.461	0.01
724.78	0.02
725.099	0.02
725.418	0.02
725.737	0.01
726.056	0.02
726.375	0.02
726.694	0.02
727.013	0.02
727.331	0.02
727.65	0.02
727.969	0.02
728.287	0.02
728.606	0.02
728.924	0.01
729.242	0.02
729.561	0.02
729.879	0.02
730.197	0.02
730.515	0.02
730.834	0.02
731.152	0.02
731.47	0.02
731.788	0.02
732.105	0.01
732.423	0.02
732.741	0.01
733.059	0.02
733.376	0.02
733.694	0.01
734.012	0.01
734.329	0.03
734.647	0.01
734.964	0.02
735.281	0.02
735.599	0.02
735.916	0.02
736.233	0.02
736.55	0.03
736.867	0.03
737.184	0.02
737.501	0.03
737.818	0.03
738.135	0.02
738.452	0.03
738.768	0.03
739.085	0.03
739.402	0.02
739.718	0.02
740.035	0.03
740.351	0.03
740.668	0.04
740.984	0.03
741.3	0.02
741.617	0.03
741.933	0.03
742.249	0.03
742.565	0.03
742.881	0.04
743.197	0.03
743.513	0.02
743.829	0.02
744.144	0.03
744.46	0.03
744.776	0.03
745.091	0.03
745.407	0.03
745.722	0.02
746.038	0.02
746.353	0.01
746.669	0.03
746.984	0.02
747.299	0.02
747.614	0.03
747.93	0.03
748.245	0.02
748.56	0.02
748.875	0.02
749.189	0.02
749.504	0.03
749.819	0.02
750.134	0.02
750.448	0.03
750.763	0.02
751.078	0.02
751.392	0.02
751.707	0.03
752.021	0.04
752.335	0.04
752.65	0.04
752.964	0.02
753.278	0.03
753.592	0.03
753.906	0.02
754.22	0.03
754.534	0.03
754.848	0.03
755.162	0.03
755.476	0.03
755.789	0.03
756.103	0.03
756.417	0.04
756.73	0.04
757.044	0.03
757.357	0.04
757.671	0.03
757.984	0.03
758.297	0.04
758.61	0.04
758.924	0.03
759.237	0.03
759.55	0.03
759.863	0.03
760.176	0.03
760.488	0.03
760.801	0.03
761.114	0.03
761.427	0.03
761.739	0.03
762.052	0.02
762.365	0.03
762.677	0.03
762.99	0.02
763.302	0.02
763.614	0.03
763.926	0.03
764.239	0.03
764.551	0.03
764.863	0.03
765.175	0.03
765.487	0.03
765.799	0.02
766.111	0.02
766.423	0.02
766.734	0.02
767.046	0.02
767.358	0.02
767.669	0.02
767.981	0.03
768.292	0.02
768.604	0.03
768.915	0.02
769.226	0.03
769.537	0.01
769.849	0.02
770.16	0.02
770.471	0.02
770.782	0.02
771.093	0.02
771.404	0.01
771.715	0.02
772.025	0.03
772.336	0.02
772.647	0.01
772.957	0.01
773.268	0.02
773.578	0.01
773.889	0.02
774.199	0.03
774.51	0.02
774.82	0.02
775.13	0.03
775.44	0.01
775.75	0.02
776.06	0.03
776.37	0.02
776.68	0.02
776.99	0.03
777.3	0.02
777.61	0.03
777.92	0.03
778.229	0.02
778.539	0.02
778.848	0.02
779.158	0.03
779.467	0.03
779.777	0.02
780.086	0.03
780.395	0.02
780.704	0.03
781.013	0.02
781.323	0.02
781.632	0.03
781.941	0.03
782.249	0.03
782.558	0.02
782.867	0.02
783.176	0.01
783.485	0.02
783.793	0.03
784.102	0.03
784.41	0.02
784.719	0.01
785.027	0.02
785.335	0.02
785.644	0.03
785.952	0.02
786.26	0.02
786.568	0.01
786.876	0.01
787.184	0.02
787.492	0.02
787.8	0.02
788.108	0.03
788.416	0.02
788.723	0.02
789.031	0.02
789.338	0.02
789.646	0.01
789.953	0.02
790.261	0.03
790.568	0.03
790.876	0.02
791.183	0.03
791.49	0.02
791.797	0.02
792.104	0.01
792.411	0.03
792.718	0.01
793.025	0.02
793.332	0.02
793.639	0.03
793.945	0.03
794.252	0.03
794.559	0.03
794.865	0.03
795.172	0.03
795.478	0.03
795.784	0.03
796.091	0.03
796.397	0.04
796.703	0.03
797.009	0.04
797.315	0.03
797.622	0.02
797.927	0.03
798.233	0.03
798.539	0.04
798.845	0.04
799.151	0.03
799.456	0.03
799.762	0.03
800.068	0.02
800.373	0.03
800.679	0.02
800.984	0.02
801.289	0.02
801.595	0.02
801.9	0.03
802.205	0.02
802.51	0.02
802.815	0.02
803.12	0.02
803.425	0.03
803.73	0.03
804.035	0.03
804.339	0.02
804.644	0.02
804.949	0.03
805.253	0.02
805.558	0.02
805.862	0.02
806.167	0.03
806.471	0.02
806.775	0.03
807.08	0.03
807.384	0.02
807.688	0.03
807.992	0.03
808.296	0.02
808.6	0.03
808.904	0.04
809.207	0.03
809.511	0.03
809.815	0.03
810.119	0.03
810.422	0.04
810.726	0.04
811.029	0.04
811.332	0.04
811.636	0.05
811.939	0.04
812.242	0.03
812.546	0.04
812.849	0.04
813.152	0.04
813.455	0.04
813.758	0.04
814.06	0.04
814.363	0.04
814.666	0.04
814.969	0.04
815.271	0.03
815.574	0.03
815.877	0.03
816.179	0.03
816.481	0.03
816.784	0.03
817.086	0.02
817.388	0.02
817.69	0.01
817.993	0.02
818.295	0.01
818.597	0.02
818.899	0.02
819.2	0.01
819.502	0.02
819.804	0.02
820.106	0.02
820.407	0.02
820.709	0.02
821.01	0.02
821.312	0.02
821.613	0.02
821.915	0.02
822.216	0.02
822.517	0.02
822.818	0.02
823.119	0.02
823.42	0.03
823.721	0.01
824.022	0.01
824.323	0.02
824.624	0.02
824.925	0.02
825.226	0.03
825.526	0.02
825.827	0.03
826.127	0.02
826.428	0.03
826.728	0.02
827.028	0.02
827.329	0.02
827.629	0.02
827.929	0.02
828.229	0.02
828.529	0.03
828.829	0.02
829.129	0.02
829.429	0.02
829.729	0.02
830.029	0.02
830.328	0.02
830.628	0.01
830.927	0.01
831.227	0.01
831.526	0.01
831.826	0.01
832.125	0.02
832.424	0
832.724	0.01
833.023	0.01
833.322	0.02
833.621	0.02
833.92	0.01
834.219	0.02
834.518	0.02
834.816	0.01
835.115	0.01
835.414	0.01
835.712	0
836.011	0
836.309	0
836.608	0.01
836.906	0
837.205	-0
837.503	0
837.801	-0
838.099	-0.01
838.397	-0
838.695	-0.02
838.993	-0.01
839.291	-0.02
839.589	-0.02
839.887	-0.02
840.184	-0.02
840.482	-0.03
840.78	-0.02
841.077	-0.04
841.375	-0.04
841.672	-0.04
841.969	-0.04
842.267	-0.04
842.564	-0.04
842.861	-0.04
843.158	-0.05
843.455	-0.06
843.752	-0.04
844.049	-0.05
844.346	-0.04
844.643	-0.05
844.94	-0.06
845.236	-0.04
845.533	-0.05
845.83	-0.05
846.126	-0.05
846.423	-0.05
846.719	-0.06
847.015	-0.06
847.312	-0.06
847.608	-0.06
847.904	-0.07
848.2	-0.06
848.496	-0.07
848.792	-0.06
849.088	-0.05
849.384	-0.07
849.68	-0.07
849.975	-0.07
850.271	-0.07
850.567	-0.08
850.862	-0.07
851.158	-0.07
851.453	-0.07
851.748	-0.08
852.044	-0.07
852.339	-0.07
852.634	-0.08
852.929	-0.07
853.224	-0.08
853.519	-0.09
853.814	-0.08
854.109	-0.09
854.404	-0.08
854.699	-0.1
854.994	-0.09
855.288	-0.08
855.583	-0.09
855.877	-0.1
856.172	-0.09
856.466	-0.1
856.76	-0.09
857.055	-0.1
857.349	-0.1
857.643	-0.1
857.937	-0.11
858.231	-0.11
858.525	-0.11
858.819	-0.11
859.113	-0.12
859.407	-0.12
859.701	-0.13
859.994	-0.13
860.288	-0.11
860.581	-0.12
860.875	-0.12
861.168	-0.13
861.462	-0.13
861.755	-0.12
862.048	-0.14
862.341	-0.12
862.634	-0.13
862.928	-0.13
863.221	-0.14
863.513	-0.14
863.806	-0.14
864.099	-0.14
864.392	-0.13
864.685	-0.12
864.977	-0.13
865.27	-0.14
865.562	-0.13
865.855	-0.13
866.147	-0.14
866.44	-0.12
866.732	-0.14
867.024	-0.14
867.316	-0.15
867.608	-0.15
867.9	-0.15
868.192	-0.15
868.484	-0.14
868.776	-0.15
869.068	-0.15
869.359	-0.14
869.651	-0.15
869.943	-0.17
870.234	-0.15
870.526	-0.15
870.817	-0.14
871.108	-0.15
871.4	-0.15
871.691	-0.16
871.982	-0.16
872.273	-0.17
872.564	-0.17
872.855	-0.16
873.146	-0.17
873.437	-0.18
873.728	-0.16
874.019	-0.18
874.309	-0.17
874.6	-0.17
874.89	-0.17
875.181	-0.17
875.471	-0.16
875.762	-0.17
876.052	-0.17
876.342	-0.16
876.632	-0.17
876.922	-0.17
877.213	-0.17
877.503	-0.18
877.792	-0.18
878.082	-0.19
878.372	-0.16
878.662	-0.19
878.952	-0.18
879.241	-0.17
879.531	-0.17
879.82	-0.17
880.11	-0.19
880.399	-0.19
880.688	-0.16
880.978	-0.16
881.267	-0.16
