Data from 12-12-AQDScycling_Absorbance__457__00457.txt Node

Date: Tue Dec 12 12:50:59 EST 2023
User: kyuminlee
Spectrometer: FLMS00943
Trigger mode: 0
Integration Time (sec): 1.000000E-1
Scans to average: 1
Electric dark correction enabled: true
Nonlinearity correction enabled: false
Boxcar width: 0
XAxis mode: Wavelengths
Number of Pixels in Spectrum: 2048
>>>>>Begin Spectral Data<<<<<
179.651	0.15
180.037	0.15
180.424	0.15
180.81	-0
181.197	0.26
181.583	-0
181.97	-0.43
182.356	-0
182.743	-1.36
183.129	0.21
183.515	0.37
183.901	-2.52
184.288	0.47
184.674	-0
185.06	-0.34
185.446	-0
185.832	-0
186.218	0.19
186.604	-0.32
186.99	-0.2
187.376	-0
187.762	-0
188.148	0.41
188.534	-0.38
188.92	0.11
189.305	0.01
189.691	0.19
190.077	0.16
190.463	0.08
190.848	0.07
191.234	0.01
191.619	0.05
192.005	0.07
192.391	0.1
192.776	0.03
193.161	0.07
193.547	0.09
193.932	-0.02
194.318	-0.01
194.703	0.15
195.088	0.08
195.473	0.07
195.859	0.05
196.244	0.19
196.629	0.06
197.014	0.12
197.399	0.16
197.784	-0.02
198.169	0.05
198.554	0.15
198.939	0.11
199.324	0.09
199.709	0.03
200.094	0.01
200.478	0.11
200.863	0.23
201.248	-0
201.633	0.08
202.017	0.13
202.402	0.15
202.787	0.11
203.171	0.19
203.556	0.1
203.94	0.14
204.325	0.2
204.709	0.25
205.093	0.04
205.478	0.05
205.862	0.03
206.246	0.12
206.631	0.18
207.015	-0.06
207.399	0.1
207.783	0.15
208.167	0.11
208.551	0.15
208.935	0.1
209.319	0.21
209.703	0.14
210.087	0.22
210.471	0.09
210.855	0.02
211.239	0.13
211.623	0.18
212.007	0.11
212.39	0.19
212.774	0.03
213.158	0.06
213.541	0.27
213.925	0.22
214.309	0.27
214.692	0.25
215.076	0.17
215.459	0.1
215.842	0.15
216.226	0.21
216.609	0.14
216.993	0.2
217.376	0.45
217.759	0.16
218.142	0.32
218.525	0.29
218.909	0.35
219.292	0.31
219.675	0.4
220.058	0.38
220.441	0.45
220.824	0.43
221.207	0.52
221.59	0.44
221.973	0.44
222.355	0.51
222.738	0.67
223.121	0.58
223.504	0.5
223.886	0.67
224.269	0.6
224.652	0.7
225.034	0.72
225.417	0.73
225.799	0.71
226.182	0.86
226.564	0.91
226.947	0.73
227.329	0.73
227.711	0.88
228.094	0.81
228.476	0.88
228.858	0.82
229.24	0.82
229.623	0.75
230.005	0.77
230.387	0.75
230.769	0.84
231.151	0.82
231.533	0.88
231.915	0.85
232.297	0.96
232.679	0.87
233.061	0.92
233.442	1.02
233.824	1.01
234.206	1.14
234.588	1.04
234.969	0.93
235.351	0.92
235.733	0.94
236.114	1.09
236.496	1.04
236.877	1.04
237.259	1.05
237.64	0.94
238.022	0.96
238.403	0.98
238.784	0.91
239.165	0.85
239.547	0.97
239.928	1.11
240.309	1.06
240.69	1.07
241.071	1.01
241.452	1.14
241.834	1.07
242.215	1.01
242.595	1.05
242.976	1.09
243.357	1.03
243.738	0.94
244.119	1.26
244.5	1.15
244.881	1.07
245.261	1.24
245.642	1.13
246.023	1.19
246.403	1.07
246.784	1.2
247.164	1.2
247.545	1.24
247.925	1.32
248.306	1.22
248.686	1.28
249.067	1.14
249.447	1.33
249.827	1.4
250.207	1.42
250.588	1.26
250.968	1.35
251.348	1.3
251.728	1.33
252.108	1.29
252.488	1.25
252.868	1.29
253.248	1.32
253.628	1.36
254.008	1.4
254.388	1.24
254.768	1.26
255.147	1.32
255.527	1.37
255.907	1.3
256.287	1.35
256.666	1.34
257.046	1.46
257.425	1.41
257.805	1.23
258.184	1.28
258.564	1.4
258.943	1.39
259.323	1.42
259.702	1.39
260.081	1.42
260.461	1.46
260.84	1.47
261.219	1.58
261.598	1.49
261.977	1.45
262.356	1.46
262.736	1.43
263.115	1.53
263.494	1.48
263.873	1.51
264.251	1.51
264.63	1.47
265.009	1.4
265.388	1.35
265.767	1.28
266.145	1.42
266.524	1.44
266.903	1.39
267.281	1.26
267.66	1.45
268.039	1.43
268.417	1.39
268.796	1.36
269.174	1.44
269.552	1.27
269.931	1.53
270.309	1.39
270.687	1.48
271.066	1.5
271.444	1.34
271.822	1.45
272.2	1.49
272.578	1.26
272.956	1.56
273.334	1.39
273.712	1.43
274.09	1.35
274.468	1.34
274.846	1.25
275.224	1.23
275.602	1.46
275.98	1.4
276.357	1.39
276.735	1.3
277.113	1.37
277.49	1.29
277.868	1.26
278.246	1.33
278.623	1.21
279.001	1.33
279.378	1.36
279.756	1.42
280.133	1.65
280.51	1.35
280.888	1.31
281.265	1.32
281.642	1.4
282.019	1.57
282.396	1.55
282.773	1.41
283.151	1.43
283.528	1.41
283.905	1.55
284.282	1.54
284.659	1.52
285.035	1.39
285.412	1.33
285.789	1.45
286.166	1.36
286.543	1.39
286.919	1.33
287.296	1.4
287.673	1.95
288.049	1.66
288.426	1.49
288.802	1.39
289.179	1.36
289.555	1.66
289.932	1.32
290.308	1.23
290.684	1.31
291.061	1.35
291.437	1.51
291.813	1.42
292.189	1.25
292.565	1.24
292.942	1.28
293.318	1.3
293.694	1.43
294.07	1.35
294.446	1.31
294.822	1.55
295.197	1.38
295.573	1.39
295.949	1.39
296.325	1.44
296.701	1.47
297.076	1.5
297.452	1.5
297.828	1.47
298.203	1.51
298.579	1.4
298.954	1.45
299.33	1.45
299.705	1.5
300.081	1.54
300.456	1.47
300.831	1.41
301.206	1.41
301.582	1.66
301.957	1.53
302.332	1.61
302.707	1.38
303.082	1.43
303.457	1.44
303.832	1.51
304.207	1.42
304.582	1.38
304.957	1.54
305.332	1.65
305.707	1.56
306.082	1.56
306.456	1.55
306.831	1.42
307.206	1.46
307.58	1.53
307.955	1.54
308.33	1.46
308.704	1.6
309.079	1.48
309.453	1.58
309.828	1.47
310.202	1.47
310.576	1.49
310.951	1.46
311.325	1.63
311.699	1.45
312.073	1.39
312.447	1.37
312.821	1.41
313.196	1.64
313.57	1.36
313.944	1.38
314.317	1.35
314.691	1.56
315.065	1.57
315.439	1.5
315.813	1.57
316.187	1.45
316.56	1.55
316.934	1.53
317.308	1.51
317.681	1.62
318.055	1.54
318.428	1.35
318.802	1.39
319.175	1.46
319.549	1.47
319.922	1.41
320.295	1.38
320.669	1.57
321.042	1.52
321.415	1.86
321.788	1.48
322.162	1.4
322.535	1.59
322.908	1.58
323.281	1.43
323.654	1.56
324.027	1.36
324.4	1.47
324.773	1.54
325.145	1.62
325.518	1.45
325.891	1.43
326.264	1.59
326.636	1.44
327.009	1.4
327.382	1.5
327.754	1.59
328.127	1.44
328.499	1.55
328.872	1.38
329.244	1.45
329.616	1.44
329.989	1.39
330.361	1.53
330.733	1.38
331.106	1.43
331.478	1.51
331.85	1.39
332.222	1.39
332.594	1.52
332.966	1.47
333.338	1.55
333.71	1.55
334.082	1.54
334.454	1.32
334.826	1.58
335.197	1.61
335.569	1.47
335.941	1.34
336.312	1.47
336.684	1.52
337.056	1.41
337.427	1.53
337.799	1.52
338.17	1.48
338.542	1.48
338.913	1.55
339.284	1.62
339.656	1.47
340.027	1.51
340.398	1.47
340.769	1.58
341.141	1.69
341.512	1.58
341.883	1.59
342.254	1.52
342.625	1.48
342.996	1.55
343.367	1.5
343.738	1.46
344.108	1.43
344.479	1.81
344.85	1.43
345.221	1.51
345.591	1.45
345.962	1.41
346.333	1.45
346.703	1.2
347.074	1.3
347.444	1.37
347.815	1.48
348.185	1.38
348.556	1.35
348.926	1.34
349.296	1.39
349.666	1.35
350.037	1.43
350.407	1.32
350.777	1.32
351.147	1.34
351.517	1.3
351.887	1.34
352.257	1.32
352.627	1.22
352.997	1.27
353.367	1.42
353.737	1.39
354.106	1.43
354.476	1.38
354.846	1.33
355.216	1.32
355.585	1.28
355.955	1.29
356.324	1.35
356.694	1.28
357.063	1.26
357.433	1.17
357.802	1.2
358.171	1.23
358.541	1.19
358.91	1.16
359.279	1.22
359.648	1.17
360.017	1.15
360.387	1.16
360.756	1.09
361.125	1.12
361.494	1.09
361.863	1.03
362.231	0.98
362.6	0.98
362.969	1.01
363.338	0.97
363.707	0.94
364.075	0.96
364.444	0.87
364.813	0.88
365.181	0.84
365.55	0.87
365.918	0.88
366.287	0.83
366.655	0.83
367.024	0.82
367.392	0.82
367.76	0.77
368.128	0.8
368.497	0.78
368.865	0.74
369.233	0.75
369.601	0.73
369.969	0.73
370.337	0.71
370.705	0.67
371.073	0.68
371.441	0.67
371.809	0.66
372.177	0.67
372.544	0.66
372.912	0.64
373.28	0.63
373.647	0.64
374.015	0.63
374.383	0.63
374.75	0.62
375.118	0.6
375.485	0.6
375.853	0.58
376.22	0.56
376.587	0.57
376.955	0.59
377.322	0.57
377.689	0.56
378.056	0.54
378.423	0.53
378.79	0.55
379.157	0.57
379.524	0.53
379.891	0.53
380.258	0.54
380.625	0.53
380.992	0.55
381.359	0.53
381.726	0.55
382.092	0.54
382.459	0.53
382.826	0.53
383.192	0.51
383.559	0.53
383.925	0.51
384.292	0.53
384.658	0.54
385.025	0.53
385.391	0.54
385.757	0.55
386.123	0.53
386.49	0.52
386.856	0.55
387.222	0.53
387.588	0.53
387.954	0.54
388.32	0.55
388.686	0.53
389.052	0.52
389.418	0.53
389.784	0.53
390.15	0.54
390.515	0.5
390.881	0.53
391.247	0.53
391.613	0.53
391.978	0.52
392.344	0.51
392.709	0.51
393.075	0.53
393.44	0.51
393.806	0.52
394.171	0.51
394.536	0.51
394.902	0.51
395.267	0.5
395.632	0.5
395.997	0.5
396.362	0.51
396.727	0.5
397.092	0.51
397.457	0.5
397.822	0.47
398.187	0.49
398.552	0.48
398.917	0.47
399.282	0.47
399.646	0.46
400.011	0.48
400.376	0.46
400.74	0.47
401.105	0.46
401.47	0.46
401.834	0.46
402.199	0.45
402.563	0.44
402.927	0.45
403.292	0.45
403.656	0.44
404.02	0.45
404.384	0.46
404.749	0.44
405.113	0.43
405.477	0.44
405.841	0.42
406.205	0.43
406.569	0.42
406.933	0.42
407.296	0.41
407.66	0.42
408.024	0.41
408.388	0.42
408.752	0.39
409.115	0.41
409.479	0.39
409.842	0.39
410.206	0.37
410.569	0.39
410.933	0.39
411.296	0.38
411.66	0.39
412.023	0.37
412.386	0.38
412.749	0.36
413.113	0.36
413.476	0.34
413.839	0.36
414.202	0.35
414.565	0.34
414.928	0.36
415.291	0.34
415.654	0.34
416.017	0.35
416.38	0.34
416.742	0.33
417.105	0.33
417.468	0.34
417.83	0.33
418.193	0.34
418.556	0.34
418.918	0.35
419.281	0.34
419.643	0.34
420.005	0.34
420.368	0.33
420.73	0.33
421.092	0.33
421.455	0.31
421.817	0.31
422.179	0.31
422.541	0.32
422.903	0.32
423.265	0.33
423.627	0.32
423.989	0.31
424.351	0.3
424.713	0.3
425.075	0.29
425.436	0.29
425.798	0.29
426.16	0.31
426.521	0.31
426.883	0.31
427.245	0.3
427.606	0.29
427.967	0.29
428.329	0.3
428.69	0.31
429.052	0.29
429.413	0.3
429.774	0.29
430.135	0.29
430.497	0.28
430.858	0.28
431.219	0.28
431.58	0.29
431.941	0.28
432.302	0.31
432.663	0.3
433.024	0.3
433.384	0.29
433.745	0.26
434.106	0.27
434.467	0.29
434.827	0.31
435.188	0.28
435.548	0.28
435.909	0.28
436.269	0.29
436.63	0.27
436.99	0.27
437.351	0.28
437.711	0.28
438.071	0.27
438.431	0.26
438.792	0.27
439.152	0.27
439.512	0.27
439.872	0.27
440.232	0.29
440.592	0.27
440.952	0.28
441.312	0.27
441.671	0.25
442.031	0.26
442.391	0.26
442.751	0.25
443.11	0.25
443.47	0.24
443.83	0.26
444.189	0.25
444.549	0.25
444.908	0.25
445.267	0.24
445.627	0.24
445.986	0.23
446.345	0.23
446.705	0.23
447.064	0.24
447.423	0.24
447.782	0.24
448.141	0.24
448.5	0.23
448.859	0.24
449.218	0.23
449.577	0.24
449.936	0.24
450.295	0.24
450.653	0.23
451.012	0.24
451.371	0.23
451.729	0.23
452.088	0.23
452.447	0.23
452.805	0.24
453.163	0.23
453.522	0.23
453.88	0.22
454.239	0.22
454.597	0.22
454.955	0.21
455.313	0.21
455.671	0.22
456.029	0.21
456.388	0.2
456.746	0.21
457.104	0.21
457.461	0.2
457.819	0.2
458.177	0.19
458.535	0.19
458.893	0.19
459.25	0.19
459.608	0.19
459.966	0.19
460.323	0.18
460.681	0.17
461.038	0.18
461.396	0.18
461.753	0.17
462.111	0.17
462.468	0.17
462.825	0.17
463.182	0.17
463.54	0.16
463.897	0.17
464.254	0.16
464.611	0.17
464.968	0.17
465.325	0.18
465.682	0.16
466.039	0.16
466.395	0.16
466.752	0.16
467.109	0.16
467.466	0.16
467.822	0.15
468.179	0.15
468.535	0.15
468.892	0.15
469.248	0.15
469.605	0.14
469.961	0.14
470.318	0.16
470.674	0.15
471.03	0.15
471.386	0.14
471.743	0.15
472.099	0.15
472.455	0.15
472.811	0.14
473.167	0.14
473.523	0.13
473.879	0.14
474.235	0.13
474.59	0.13
474.946	0.12
475.302	0.13
475.657	0.12
476.013	0.13
476.369	0.11
476.724	0.12
477.08	0.12
477.435	0.12
477.791	0.12
478.146	0.12
478.501	0.12
478.857	0.12
479.212	0.12
479.567	0.12
479.922	0.12
480.277	0.12
480.632	0.11
480.987	0.11
481.342	0.11
481.697	0.11
482.052	0.11
482.407	0.11
482.762	0.1
483.116	0.1
483.471	0.1
483.826	0.09
484.18	0.1
484.535	0.09
484.89	0.1
485.244	0.1
485.598	0.1
485.953	0.1
486.307	0.1
486.661	0.1
487.016	0.09
487.37	0.09
487.724	0.09
488.078	0.09
488.432	0.09
488.786	0.09
489.14	0.1
489.494	0.09
489.848	0.09
490.202	0.08
490.556	0.09
490.91	0.09
491.263	0.08
491.617	0.09
491.971	0.09
492.324	0.09
492.678	0.09
493.031	0.09
493.385	0.09
493.738	0.08
494.091	0.08
494.445	0.08
494.798	0.09
495.151	0.08
495.504	0.08
495.857	0.08
496.21	0.08
496.564	0.08
496.916	0.08
497.269	0.07
497.622	0.08
497.975	0.07
498.328	0.08
498.681	0.08
499.033	0.08
499.386	0.08
499.739	0.08
500.091	0.07
500.444	0.07
500.796	0.08
501.149	0.07
501.501	0.07
501.854	0.07
502.206	0.07
502.558	0.08
502.91	0.07
503.263	0.07
503.615	0.07
503.967	0.07
504.319	0.07
504.671	0.07
505.023	0.07
505.375	0.07
505.726	0.07
506.078	0.07
506.43	0.06
506.782	0.06
507.133	0.07
507.485	0.07
507.837	0.08
508.188	0.08
508.54	0.07
508.891	0.07
509.243	0.07
509.594	0.07
509.945	0.06
510.296	0.06
510.648	0.07
510.999	0.06
511.35	0.07
511.701	0.07
512.052	0.07
512.403	0.07
512.754	0.06
513.105	0.06
513.456	0.06
513.807	0.06
514.157	0.07
514.508	0.07
514.859	0.07
515.209	0.07
515.56	0.07
515.91	0.06
516.261	0.07
516.611	0.07
516.962	0.07
517.312	0.07
517.662	0.07
518.013	0.07
518.363	0.07
518.713	0.07
519.063	0.07
519.413	0.07
519.763	0.06
520.113	0.07
520.463	0.07
520.813	0.07
521.163	0.07
521.512	0.07
521.862	0.07
522.212	0.07
522.562	0.07
522.911	0.07
523.261	0.06
523.61	0.07
523.96	0.07
524.309	0.07
524.658	0.07
525.008	0.06
525.357	0.07
525.706	0.07
526.056	0.07
526.405	0.07
526.754	0.07
527.103	0.06
527.452	0.07
527.801	0.07
528.15	0.07
528.499	0.07
528.847	0.07
529.196	0.07
529.545	0.07
529.893	0.08
530.242	0.07
530.591	0.08
530.939	0.08
531.288	0.07
531.636	0.08
531.985	0.07
532.333	0.07
532.681	0.07
533.029	0.07
533.378	0.07
533.726	0.07
534.074	0.08
534.422	0.07
534.77	0.08
535.118	0.07
535.466	0.07
535.814	0.07
536.162	0.08
536.509	0.07
536.857	0.07
537.205	0.08
537.552	0.07
537.9	0.07
538.248	0.06
538.595	0.07
538.943	0.07
539.29	0.07
539.637	0.08
539.985	0.08
540.332	0.07
540.679	0.07
541.026	0.06
541.373	0.08
541.721	0.06
542.068	0.07
542.415	0.07
542.762	0.06
543.108	0.06
543.455	0.06
543.802	0.06
544.149	0.06
544.496	0.06
544.842	0.06
545.189	0.06
545.535	0.06
545.882	0.06
546.228	0.06
546.575	0.06
546.921	0.05
547.267	0.05
547.614	0.06
547.96	0.06
548.306	0.06
548.652	0.06
548.998	0.07
549.344	0.06
549.69	0.06
550.036	0.06
550.382	0.06
550.728	0.05
551.074	0.07
551.42	0.06
551.765	0.07
552.111	0.06
552.457	0.06
552.802	0.06
553.148	0.06
553.493	0.06
553.839	0.06
554.184	0.07
554.529	0.05
554.875	0.06
555.22	0.06
555.565	0.07
555.91	0.06
556.255	0.07
556.6	0.07
556.945	0.06
557.29	0.07
557.635	0.07
557.98	0.06
558.325	0.06
558.67	0.07
559.014	0.07
559.359	0.07
559.704	0.07
560.048	0.05
560.393	0.06
560.737	0.06
561.082	0.07
561.426	0.06
561.77	0.06
562.115	0.06
562.459	0.06
562.803	0.06
563.147	0.07
563.491	0.06
563.835	0.06
564.179	0.06
564.523	0.06
564.867	0.05
565.211	0.06
565.555	0.06
565.899	0.07
566.242	0.06
566.586	0.06
566.93	0.06
567.273	0.07
567.617	0.07
567.96	0.07
568.304	0.07
568.647	0.06
568.99	0.07
569.334	0.07
569.677	0.07
570.02	0.07
570.363	0.07
570.706	0.06
571.049	0.06
571.392	0.07
571.735	0.06
572.078	0.07
572.421	0.07
572.764	0.06
573.106	0.07
573.449	0.06
573.792	0.07
574.134	0.06
574.477	0.07
574.819	0.06
575.162	0.06
575.504	0.06
575.847	0.07
576.189	0.07
576.531	0.07
576.873	0.06
577.215	0.07
577.558	0.06
577.9	0.07
578.242	0.07
578.584	0.06
578.926	0.06
579.267	0.06
579.609	0.07
579.951	0.06
580.293	0.06
580.634	0.07
580.976	0.07
581.318	0.06
581.659	0.06
582.001	0.07
582.342	0.06
582.683	0.07
583.025	0.06
583.366	0.06
583.707	0.06
584.049	0.06
584.39	0.06
584.731	0.05
585.072	0.06
585.413	0.07
585.754	0.06
586.095	0.06
586.435	0.06
586.776	0.07
587.117	0.06
587.458	0.06
587.798	0.06
588.139	0.06
588.48	0.06
588.82	0.07
589.161	0.06
589.501	0.06
589.841	0.06
590.182	0.06
590.522	0.06
590.862	0.06
591.202	0.06
591.542	0.06
591.882	0.06
592.222	0.06
592.562	0.06
592.902	0.06
593.242	0.06
593.582	0.06
593.922	0.06
594.261	0.06
594.601	0.06
594.941	0.06
595.28	0.06
595.62	0.06
595.959	0.06
596.299	0.06
596.638	0.06
596.977	0.06
597.317	0.07
597.656	0.07
597.995	0.06
598.334	0.07
598.673	0.06
599.012	0.06
599.351	0.07
599.69	0.06
600.029	0.07
600.368	0.07
600.707	0.07
601.046	0.07
601.384	0.08
601.723	0.07
602.061	0.07
602.4	0.06
602.738	0.07
603.077	0.07
603.415	0.06
603.754	0.06
604.092	0.07
604.43	0.06
604.768	0.06
605.107	0.06
605.445	0.06
605.783	0.06
606.121	0.05
606.459	0.06
606.796	0.06
607.134	0.06
607.472	0.06
607.81	0.07
608.148	0.06
608.485	0.06
608.823	0.06
609.16	0.07
609.498	0.06
609.835	0.06
610.173	0.06
610.51	0.07
610.847	0.06
611.185	0.06
611.522	0.07
611.859	0.07
612.196	0.07
612.533	0.08
612.87	0.07
613.207	0.07
613.544	0.07
613.881	0.07
614.217	0.08
614.554	0.07
614.891	0.07
615.228	0.07
615.564	0.07
615.901	0.08
616.237	0.07
616.574	0.07
616.91	0.07
617.246	0.07
617.583	0.08
617.919	0.07
618.255	0.08
618.591	0.07
618.927	0.07
619.263	0.08
619.599	0.08
619.935	0.08
620.271	0.08
620.607	0.07
620.943	0.07
621.279	0.07
621.614	0.07
621.95	0.08
622.286	0.07
622.621	0.07
622.957	0.07
623.292	0.07
623.627	0.07
623.963	0.07
624.298	0.07
624.633	0.07
624.968	0.07
625.304	0.07
625.639	0.06
625.974	0.06
626.309	0.06
626.644	0.06
626.979	0.07
627.313	0.07
627.648	0.07
627.983	0.07
628.318	0.06
628.652	0.06
628.987	0.06
629.321	0.06
629.656	0.06
629.99	0.05
630.325	0.06
630.659	0.06
630.993	0.05
631.327	0.06
631.662	0.05
631.996	0.05
632.33	0.06
632.664	0.06
632.998	0.06
633.332	0.06
633.666	0.06
633.999	0.06
634.333	0.06
634.667	0.06
635.001	0.05
635.334	0.06
635.668	0.05
636.001	0.06
636.335	0.06
636.668	0.06
637.001	0.06
637.335	0.06
637.668	0.06
638.001	0.05
638.334	0.06
638.668	0.06
639.001	0.05
639.334	0.05
639.667	0.06
639.999	0.05
640.332	0.05
640.665	0.05
640.998	0.05
641.331	0.05
641.663	0.05
641.996	0.06
642.328	0.05
642.661	0.06
642.993	0.06
643.326	0.06
643.658	0.05
643.99	0.05
644.323	0.05
644.655	0.05
644.987	0.05
645.319	0.06
645.651	0.06
645.983	0.05
646.315	0.05
646.647	0.06
646.979	0.06
647.31	0.06
647.642	0.06
647.974	0.06
648.305	0.06
648.637	0.06
648.968	0.06
649.3	0.06
649.631	0.06
649.963	0.06
650.294	0.05
650.625	0.06
650.957	0.06
651.288	0.06
651.619	0.06
651.95	0.06
652.281	0.07
652.612	0.06
652.943	0.06
653.274	0.07
653.604	0.06
653.935	0.06
654.266	0.06
654.596	0.06
654.927	0.06
655.258	0.07
655.588	0.07
655.918	0.06
656.249	0.05
656.579	0.05
656.909	0.06
657.24	0.06
657.57	0.06
657.9	0.06
658.23	0.06
658.56	0.07
658.89	0.07
659.22	0.07
659.55	0.06
659.88	0.06
660.209	0.06
660.539	0.07
660.869	0.07
661.198	0.07
661.528	0.06
661.857	0.06
662.187	0.07
662.516	0.07
662.846	0.06
663.175	0.07
663.504	0.06
663.833	0.06
664.163	0.07
664.492	0.06
664.821	0.06
665.15	0.06
665.479	0.07
665.807	0.06
666.136	0.07
666.465	0.06
666.794	0.07
667.122	0.06
667.451	0.06
667.78	0.07
668.108	0.06
668.437	0.05
668.765	0.06
669.093	0.07
669.422	0.06
669.75	0.07
670.078	0.06
670.406	0.06
670.734	0.06
671.062	0.06
671.39	0.06
671.718	0.06
672.046	0.06
672.374	0.06
672.702	0.06
673.029	0.06
673.357	0.07
673.685	0.07
674.012	0.07
674.34	0.06
674.667	0.07
674.995	0.06
675.322	0.06
675.649	0.05
675.977	0.06
676.304	0.06
676.631	0.07
676.958	0.06
677.285	0.06
677.612	0.06
677.939	0.06
678.266	0.06
678.593	0.06
678.92	0.07
679.246	0.06
679.573	0.06
679.9	0.06
680.226	0.06
680.553	0.06
680.879	0.06
681.206	0.06
681.532	0.06
681.858	0.06
682.184	0.06
682.511	0.06
682.837	0.06
683.163	0.06
683.489	0.06
683.815	0.05
684.141	0.06
684.467	0.06
684.793	0.05
685.118	0.06
685.444	0.06
685.77	0.05
686.095	0.06
686.421	0.06
686.746	0.06
687.072	0.06
687.397	0.06
687.723	0.06
688.048	0.07
688.373	0.06
688.698	0.06
689.023	0.06
689.349	0.07
689.674	0.06
689.999	0.06
690.323	0.06
690.648	0.06
690.973	0.06
691.298	0.06
691.623	0.06
691.947	0.06
692.272	0.06
692.596	0.06
692.921	0.07
693.245	0.06
693.57	0.06
693.894	0.06
694.218	0.06
694.543	0.06
694.867	0.06
695.191	0.05
695.515	0.06
695.839	0.05
696.163	0.06
696.487	0.05
696.811	0.06
697.135	0.06
697.458	0.05
697.782	0.06
698.106	0.06
698.429	0.06
698.753	0.06
699.076	0.06
699.4	0.05
699.723	0.06
700.046	0.05
700.37	0.06
700.693	0.05
701.016	0.06
701.339	0.06
701.662	0.06
701.985	0.06
702.308	0.05
702.631	0.06
702.954	0.07
703.277	0.05
703.599	0.06
703.922	0.05
704.245	0.05
704.567	0.05
704.89	0.06
705.212	0.05
705.535	0.05
705.857	0.05
706.179	0.05
706.502	0.05
706.824	0.04
707.146	0.05
707.468	0.05
707.79	0.05
708.112	0.05
708.434	0.05
708.756	0.05
709.078	0.05
709.399	0.05
709.721	0.05
710.043	0.05
710.364	0.05
710.686	0.06
711.007	0.05
711.329	0.06
711.65	0.05
711.972	0.06
712.293	0.06
712.614	0.06
712.935	0.05
713.256	0.05
713.577	0.06
713.898	0.05
714.219	0.05
714.54	0.05
714.861	0.05
715.182	0.05
715.503	0.05
715.823	0.05
716.144	0.05
716.464	0.04
716.785	0.04
717.105	0.05
717.426	0.05
717.746	0.04
718.066	0.04
718.387	0.04
718.707	0.04
719.027	0.04
719.347	0.03
719.667	0.04
719.987	0.04
720.307	0.04
720.627	0.04
720.947	0.04
721.266	0.04
721.586	0.04
721.906	0.05
722.225	0.04
722.545	0.05
722.864	0.04
723.184	0.04
723.503	0.04
723.823	0.05
724.142	0.05
724.461	0.04
724.78	0.05
725.099	0.04
725.418	0.04
725.737	0.04
726.056	0.04
726.375	0.04
726.694	0.04
727.013	0.04
727.331	0.03
727.65	0.04
727.969	0.04
728.287	0.05
728.606	0.05
728.924	0.04
729.242	0.04
729.561	0.05
729.879	0.04
730.197	0.05
730.515	0.04
730.834	0.04
731.152	0.04
731.47	0.05
731.788	0.04
732.105	0.04
732.423	0.04
732.741	0.05
733.059	0.05
733.376	0.05
733.694	0.04
734.012	0.04
734.329	0.05
734.647	0.04
734.964	0.05
735.281	0.05
735.599	0.04
735.916	0.05
736.233	0.04
736.55	0.04
736.867	0.05
737.184	0.05
737.501	0.05
737.818	0.05
738.135	0.06
738.452	0.04
738.768	0.05
739.085	0.05
739.402	0.04
739.718	0.04
740.035	0.04
740.351	0.05
740.668	0.05
740.984	0.04
741.3	0.05
741.617	0.04
741.933	0.04
742.249	0.05
742.565	0.05
742.881	0.05
743.197	0.05
743.513	0.04
743.829	0.04
744.144	0.05
744.46	0.04
744.776	0.04
745.091	0.04
745.407	0.04
745.722	0.04
746.038	0.04
746.353	0.03
746.669	0.04
746.984	0.03
747.299	0.03
747.614	0.04
747.93	0.05
748.245	0.03
748.56	0.04
748.875	0.03
749.189	0.03
749.504	0.04
749.819	0.05
750.134	0.04
750.448	0.05
750.763	0.04
751.078	0.04
751.392	0.05
751.707	0.05
752.021	0.06
752.335	0.06
752.65	0.05
752.964	0.05
753.278	0.05
753.592	0.05
753.906	0.04
754.22	0.05
754.534	0.05
754.848	0.05
755.162	0.04
755.476	0.05
755.789	0.05
756.103	0.04
756.417	0.05
756.73	0.05
757.044	0.05
757.357	0.04
757.671	0.05
757.984	0.05
758.297	0.05
758.61	0.05
758.924	0.05
759.237	0.05
759.55	0.05
759.863	0.05
760.176	0.05
760.488	0.04
760.801	0.04
761.114	0.05
761.427	0.04
761.739	0.05
762.052	0.04
762.365	0.05
762.677	0.04
762.99	0.04
763.302	0.04
763.614	0.04
763.926	0.05
764.239	0.04
764.551	0.04
764.863	0.04
765.175	0.05
765.487	0.04
765.799	0.03
766.111	0.04
766.423	0.04
766.734	0.03
767.046	0.04
767.358	0.05
767.669	0.04
767.981	0.04
768.292	0.04
768.604	0.04
768.915	0.04
769.226	0.04
769.537	0.03
769.849	0.04
770.16	0.04
770.471	0.03
770.782	0.03
771.093	0.04
771.404	0.03
771.715	0.03
772.025	0.04
772.336	0.03
772.647	0.04
772.957	0.03
773.268	0.03
773.578	0.04
773.889	0.04
774.199	0.05
774.51	0.04
774.82	0.03
775.13	0.04
775.44	0.04
775.75	0.04
776.06	0.04
776.37	0.04
776.68	0.05
776.99	0.05
777.3	0.04
777.61	0.05
777.92	0.04
778.229	0.04
778.539	0.04
778.848	0.04
779.158	0.05
779.467	0.05
779.777	0.04
780.086	0.04
780.395	0.04
780.704	0.05
781.013	0.03
781.323	0.03
781.632	0.04
781.941	0.04
782.249	0.03
782.558	0.03
782.867	0.04
783.176	0.03
783.485	0.03
783.793	0.04
784.102	0.04
784.41	0.04
784.719	0.04
785.027	0.04
785.335	0.03
785.644	0.04
785.952	0.03
786.26	0.04
786.568	0.04
786.876	0.03
787.184	0.03
787.492	0.04
787.8	0.04
788.108	0.04
788.416	0.04
788.723	0.04
789.031	0.03
789.338	0.03
789.646	0.04
789.953	0.04
790.261	0.04
790.568	0.04
790.876	0.04
791.183	0.04
791.49	0.04
791.797	0.05
792.104	0.04
792.411	0.04
792.718	0.03
793.025	0.04
793.332	0.04
793.639	0.04
793.945	0.06
794.252	0.04
794.559	0.04
794.865	0.05
795.172	0.05
795.478	0.04
795.784	0.05
796.091	0.05
796.397	0.05
796.703	0.05
797.009	0.05
797.315	0.05
797.622	0.06
797.927	0.05
798.233	0.05
798.539	0.06
798.845	0.05
799.151	0.05
799.456	0.05
799.762	0.05
800.068	0.05
800.373	0.06
800.679	0.05
800.984	0.05
801.289	0.05
801.595	0.05
801.9	0.05
802.205	0.05
802.51	0.05
802.815	0.04
803.12	0.04
803.425	0.05
803.73	0.04
804.035	0.04
804.339	0.03
804.644	0.04
804.949	0.04
805.253	0.04
805.558	0.05
805.862	0.04
806.167	0.05
806.471	0.04
806.775	0.04
807.08	0.04
807.384	0.04
807.688	0.04
807.992	0.04
808.296	0.04
808.6	0.05
808.904	0.05
809.207	0.05
809.511	0.05
809.815	0.05
810.119	0.05
810.422	0.05
810.726	0.06
811.029	0.06
811.332	0.06
811.636	0.06
811.939	0.05
812.242	0.06
812.546	0.06
812.849	0.06
813.152	0.06
813.455	0.06
813.758	0.06
814.06	0.06
814.363	0.06
814.666	0.06
814.969	0.06
815.271	0.06
815.574	0.05
815.877	0.06
816.179	0.05
816.481	0.05
816.784	0.05
817.086	0.05
817.388	0.04
817.69	0.04
817.993	0.03
818.295	0.04
818.597	0.04
818.899	0.04
819.2	0.04
819.502	0.03
819.804	0.04
820.106	0.04
820.407	0.03
820.709	0.04
821.01	0.03
821.312	0.04
821.613	0.03
821.915	0.03
822.216	0.03
822.517	0.02
822.818	0.03
823.119	0.03
823.42	0.04
823.721	0.02
824.022	0.02
824.323	0.03
824.624	0.03
824.925	0.03
825.226	0.04
825.526	0.03
825.827	0.03
826.127	0.04
826.428	0.03
826.728	0.03
827.028	0.03
827.329	0.03
827.629	0.03
827.929	0.03
828.229	0.03
828.529	0.03
828.829	0.03
829.129	0.03
829.429	0.03
829.729	0.03
830.029	0.03
830.328	0.03
830.628	0.02
830.927	0.02
831.227	0.02
831.526	0.03
831.826	0.02
832.125	0.03
832.424	0.02
832.724	0.02
833.023	0.02
833.322	0.02
833.621	0.02
833.92	0.02
834.219	0.02
834.518	0.01
834.816	0.01
835.115	0.02
835.414	0.02
835.712	0.01
836.011	0.01
836.309	0.01
836.608	0.01
836.906	0
837.205	-0
837.503	-0
837.801	0.01
838.099	-0.01
838.397	-0.02
838.695	-0
838.993	-0.01
839.291	-0.01
839.589	-0
839.887	-0
840.184	-0.01
840.482	-0.02
840.78	-0.01
841.077	-0.01
841.375	-0.02
841.672	-0.01
841.969	-0.01
842.267	-0.01
842.564	-0.02
842.861	-0.01
843.158	-0.01
843.455	-0.03
843.752	-0.03
844.049	-0.02
844.346	-0.02
844.643	-0.03
844.94	-0.03
845.236	-0.02
845.533	-0.02
845.83	-0.04
846.126	-0.04
846.423	-0.03
846.719	-0.05
847.015	-0.04
847.312	-0.04
847.608	-0.04
847.904	-0.05
848.2	-0.05
848.496	-0.05
848.792	-0.04
849.088	-0.03
849.384	-0.05
849.68	-0.06
849.975	-0.04
850.271	-0.05
850.567	-0.05
850.862	-0.05
851.158	-0.06
851.453	-0.06
851.748	-0.07
852.044	-0.06
852.339	-0.06
852.634	-0.08
852.929	-0.06
853.224	-0.07
853.519	-0.06
853.814	-0.06
854.109	-0.07
854.404	-0.06
854.699	-0.07
854.994	-0.06
855.288	-0.07
855.583	-0.07
855.877	-0.08
856.172	-0.07
856.466	-0.08
856.76	-0.08
857.055	-0.08
857.349	-0.09
857.643	-0.09
857.937	-0.09
858.231	-0.1
858.525	-0.1
858.819	-0.1
859.113	-0.11
859.407	-0.11
859.701	-0.11
859.994	-0.12
860.288	-0.09
860.581	-0.11
860.875	-0.11
861.168	-0.11
861.462	-0.11
861.755	-0.1
862.048	-0.11
862.341	-0.1
862.634	-0.11
862.928	-0.1
863.221	-0.11
863.513	-0.11
863.806	-0.11
864.099	-0.11
864.392	-0.11
864.685	-0.12
864.977	-0.12
865.27	-0.12
865.562	-0.12
865.855	-0.11
866.147	-0.13
866.44	-0.11
866.732	-0.12
867.024	-0.13
867.316	-0.13
867.608	-0.14
867.9	-0.13
868.192	-0.14
868.484	-0.13
868.776	-0.14
869.068	-0.15
869.359	-0.14
869.651	-0.14
869.943	-0.16
870.234	-0.15
870.526	-0.15
870.817	-0.15
871.108	-0.13
871.4	-0.15
871.691	-0.15
871.982	-0.16
872.273	-0.16
872.564	-0.16
872.855	-0.15
873.146	-0.17
873.437	-0.16
873.728	-0.17
874.019	-0.17
874.309	-0.17
874.6	-0.16
874.89	-0.17
875.181	-0.17
875.471	-0.17
875.762	-0.16
876.052	-0.16
876.342	-0.15
876.632	-0.16
876.922	-0.17
877.213	-0.17
877.503	-0.18
877.792	-0.17
878.082	-0.17
878.372	-0.15
878.662	-0.18
878.952	-0.18
879.241	-0.17
879.531	-0.17
879.82	-0.17
880.11	-0.16
880.399	-0.17
880.688	-0.17
880.978	-0.17
881.267	-0.17
