Data from 12-12-AQDScycling_Absorbance__560__00560.txt Node

Date: Tue Dec 12 13:16:44 EST 2023
User: kyuminlee
Spectrometer: FLMS00943
Trigger mode: 0
Integration Time (sec): 1.000000E-1
Scans to average: 1
Electric dark correction enabled: true
Nonlinearity correction enabled: false
Boxcar width: 0
XAxis mode: Wavelengths
Number of Pixels in Spectrum: 2048
>>>>>Begin Spectral Data<<<<<
179.651	0.12
180.037	0.12
180.424	0.12
180.81	-0.43
181.197	0.04
181.583	1.21
181.97	-0.42
182.356	0.45
182.743	-1.3
183.129	-0.12
183.515	0.73
183.901	-2.51
184.288	0.58
184.674	0.65
185.06	-0
185.446	0.28
185.832	-0.85
186.218	0.55
186.604	0.42
186.99	-0
187.376	0.15
187.762	0.08
188.148	0.5
188.534	0.15
188.92	0.31
189.305	0.15
189.691	0.22
190.077	0.33
190.463	0.07
190.848	0.09
191.234	0.24
191.619	0.08
192.005	0.12
192.391	0.11
192.776	0.21
193.161	0.17
193.547	0.21
193.932	-0.07
194.318	0.13
194.703	0.37
195.088	0.22
195.473	0.21
195.859	0.09
196.244	0.21
196.629	0.04
197.014	0.14
197.399	0.24
197.784	0.31
198.169	0.25
198.554	0.17
198.939	0.03
199.324	0.13
199.709	0.07
200.094	0.07
200.478	0
200.863	0.15
201.248	0.4
201.633	0.15
202.017	0.06
202.402	0.18
202.787	0.14
203.171	0.07
203.556	0.28
203.94	0.28
204.325	0.29
204.709	0.16
205.093	0.12
205.478	0.18
205.862	0.1
206.246	0.2
206.631	0.13
207.015	0.1
207.399	0.15
207.783	0.21
208.167	0.17
208.551	0.28
208.935	0.34
209.319	0.12
209.703	0.13
210.087	0.31
210.471	0.13
210.855	0.12
211.239	0.26
211.623	0.18
212.007	0.18
212.39	0.49
212.774	0.25
213.158	0.06
213.541	0.34
213.925	0.33
214.309	0.28
214.692	0.35
215.076	0.34
215.459	0.11
215.842	0.2
216.226	0.32
216.609	0.4
216.993	0.23
217.376	0.6
217.759	0.23
218.142	0.29
218.525	0.57
218.909	0.27
219.292	0.3
219.675	0.53
220.058	0.49
220.441	0.43
220.824	0.42
221.207	0.57
221.59	0.55
221.973	0.48
222.355	0.6
222.738	0.66
223.121	0.65
223.504	0.56
223.886	0.96
224.269	0.63
224.652	0.59
225.034	0.81
225.417	0.77
225.799	0.79
226.182	0.79
226.564	0.79
226.947	0.81
227.329	0.8
227.711	1.03
228.094	0.79
228.476	1.22
228.858	0.86
229.24	0.91
229.623	0.94
230.005	0.8
230.387	0.9
230.769	0.8
231.151	1.07
231.533	0.93
231.915	0.97
232.297	1.1
232.679	0.92
233.061	0.99
233.442	0.98
233.824	0.98
234.206	1.23
234.588	1.05
234.969	1.04
235.351	0.95
235.733	0.98
236.114	1.21
236.496	1.24
236.877	1.04
237.259	1.02
237.64	1.08
238.022	0.97
238.403	1
238.784	0.98
239.165	0.96
239.547	1.08
239.928	1.18
240.309	1.05
240.69	0.98
241.071	1.09
241.452	1.27
241.834	1.14
242.215	1.12
242.595	1.2
242.976	1.05
243.357	1.17
243.738	1.09
244.119	1.23
244.5	1.18
244.881	1.32
245.261	1.19
245.642	1.08
246.023	1.34
246.403	1.27
246.784	1.24
247.164	1.23
247.545	1.31
247.925	1.22
248.306	1.19
248.686	1.57
249.067	1.28
249.447	1.4
249.827	1.53
250.207	1.44
250.588	1.25
250.968	1.58
251.348	1.53
251.728	1.48
252.108	1.38
252.488	1.4
252.868	1.3
253.248	1.33
253.628	1.38
254.008	1.33
254.388	1.38
254.768	1.35
255.147	1.33
255.527	1.52
255.907	1.54
256.287	1.37
256.666	1.32
257.046	1.45
257.425	1.62
257.805	1.34
258.184	1.44
258.564	1.32
258.943	1.34
259.323	1.52
259.702	1.52
260.081	1.64
260.461	1.55
260.84	1.6
261.219	1.91
261.598	1.46
261.977	1.5
262.356	1.68
262.736	1.47
263.115	1.59
263.494	1.4
263.873	1.49
264.251	1.61
264.63	1.56
265.009	1.61
265.388	1.39
265.767	1.38
266.145	1.38
266.524	1.39
266.903	1.53
267.281	1.31
267.66	1.51
268.039	1.4
268.417	1.58
268.796	1.35
269.174	1.44
269.552	1.3
269.931	1.4
270.309	1.39
270.687	1.79
271.066	1.71
271.444	1.5
271.822	1.63
272.2	1.48
272.578	1.36
272.956	1.42
273.334	1.52
273.712	1.53
274.09	1.42
274.468	1.57
274.846	1.28
275.224	1.43
275.602	1.37
275.98	1.45
276.357	1.39
276.735	1.5
277.113	1.42
277.49	1.3
277.868	1.24
278.246	1.38
278.623	1.38
279.001	1.44
279.378	1.38
279.756	1.57
280.133	1.71
280.51	1.28
280.888	1.4
281.265	1.35
281.642	1.45
282.019	1.64
282.396	1.7
282.773	1.42
283.151	1.41
283.528	1.64
283.905	1.57
284.282	1.67
284.659	1.57
285.035	1.36
285.412	1.3
285.789	1.46
286.166	1.47
286.543	1.58
286.919	1.41
287.296	1.45
287.673	1.6
288.049	1.57
288.426	1.74
288.802	1.45
289.179	1.55
289.555	1.76
289.932	1.47
290.308	1.4
290.684	1.4
291.061	1.75
291.437	1.64
291.813	1.46
292.189	1.4
292.565	1.24
292.942	1.33
293.318	1.5
293.694	1.49
294.07	1.35
294.446	1.46
294.822	1.52
295.197	1.44
295.573	1.49
295.949	1.37
296.325	1.51
296.701	1.53
297.076	1.38
297.452	1.58
297.828	1.5
298.203	1.5
298.579	1.44
298.954	1.44
299.33	1.37
299.705	1.36
300.081	1.4
300.456	1.36
300.831	1.32
301.206	1.29
301.582	1.31
301.957	1.38
302.332	1.35
302.707	1.29
303.082	1.23
303.457	1.24
303.832	1.17
304.207	1.17
304.582	1.17
304.957	1.17
305.332	1.14
305.707	1.1
306.082	1.13
306.456	1.14
306.831	1.05
307.206	1.1
307.58	1.06
307.955	1.01
308.33	0.99
308.704	0.99
309.079	1.02
309.453	1.02
309.828	0.98
310.202	0.98
310.576	0.94
310.951	0.94
311.325	0.91
311.699	0.93
312.073	0.89
312.447	0.9
312.821	0.9
313.196	0.91
313.57	0.86
313.944	0.85
314.317	0.85
314.691	0.88
315.065	0.88
315.439	0.82
315.813	0.87
316.187	0.85
316.56	0.89
316.934	0.83
317.308	0.85
317.681	0.83
318.055	0.81
318.428	0.83
318.802	0.82
319.175	0.82
319.549	0.8
319.922	0.81
320.295	0.81
320.669	0.82
321.042	0.8
321.415	0.84
321.788	0.8
322.162	0.79
322.535	0.78
322.908	0.77
323.281	0.76
323.654	0.81
324.027	0.78
324.4	0.79
324.773	0.82
325.145	0.79
325.518	0.77
325.891	0.79
326.264	0.84
326.636	0.76
327.009	0.8
327.382	0.81
327.754	0.84
328.127	0.81
328.499	0.8
328.872	0.82
329.244	0.83
329.616	0.79
329.989	0.83
330.361	0.83
330.733	0.83
331.106	0.81
331.478	0.87
331.85	0.8
332.222	0.82
332.594	0.88
332.966	0.87
333.338	0.94
333.71	0.89
334.082	0.9
334.454	0.87
334.826	0.92
335.197	0.9
335.569	0.9
335.941	0.9
336.312	0.94
336.684	0.93
337.056	0.96
337.427	1.01
337.799	0.97
338.17	0.99
338.542	0.95
338.913	1.02
339.284	1.02
339.656	0.98
340.027	0.99
340.398	1
340.769	1.01
341.141	1.06
341.512	1.03
341.883	1
342.254	1.09
342.625	1.03
342.996	1.05
343.367	1.08
343.738	1.1
344.108	1.05
344.479	1.12
344.85	1.09
345.221	1.2
345.591	1.14
345.962	1.13
346.333	1.12
346.703	1.02
347.074	1.11
347.444	1.08
347.815	1.13
348.185	1.11
348.556	1.17
348.926	1.19
349.296	1.16
349.666	1.23
350.037	1.14
350.407	1.17
350.777	1.14
351.147	1.3
351.517	1.23
351.887	1.22
352.257	1.31
352.627	1.2
352.997	1.24
353.367	1.35
353.737	1.35
354.106	1.34
354.476	1.32
354.846	1.36
355.216	1.42
355.585	1.4
355.955	1.34
356.324	1.46
356.694	1.42
357.063	1.37
357.433	1.35
357.802	1.45
358.171	1.45
358.541	1.5
358.91	1.57
359.279	1.67
359.648	1.39
360.017	1.52
360.387	1.55
360.756	1.42
361.125	1.65
361.494	1.56
361.863	1.43
362.231	1.66
362.6	1.57
362.969	1.65
363.338	1.42
363.707	1.53
364.075	1.64
364.444	1.52
364.813	1.49
365.181	1.47
365.55	1.7
365.918	1.73
366.287	1.49
366.655	1.56
367.024	1.7
367.392	1.69
367.76	1.51
368.128	1.58
368.497	1.51
368.865	1.49
369.233	1.42
369.601	1.57
369.969	1.61
370.337	1.73
370.705	1.55
371.073	1.56
371.441	1.53
371.809	1.47
372.177	1.46
372.544	1.66
372.912	1.63
373.28	1.53
373.647	1.53
374.015	1.84
374.383	1.88
374.75	1.74
375.118	1.49
375.485	1.64
375.853	1.76
376.22	1.63
376.587	1.52
376.955	1.81
377.322	1.78
377.689	1.63
378.056	1.53
378.423	1.52
378.79	1.67
379.157	1.59
379.524	1.77
379.891	1.49
380.258	1.65
380.625	1.56
380.992	1.45
381.359	1.71
381.726	1.87
382.092	1.51
382.459	1.48
382.826	1.67
383.192	1.63
383.559	1.71
383.925	1.62
384.292	1.6
384.658	1.67
385.025	1.44
385.391	1.95
385.757	1.58
386.123	1.83
386.49	1.48
386.856	1.61
387.222	1.62
387.588	1.6
387.954	1.77
388.32	1.8
388.686	1.59
389.052	1.59
389.418	1.55
389.784	1.56
390.15	1.62
390.515	1.48
390.881	1.76
391.247	1.54
391.613	1.59
391.978	1.53
392.344	1.66
392.709	1.57
393.075	1.5
393.44	1.56
393.806	1.7
394.171	1.54
394.536	1.67
394.902	1.62
395.267	1.56
395.632	1.52
395.997	1.62
396.362	1.43
396.727	1.62
397.092	1.69
397.457	1.64
397.822	1.54
398.187	1.59
398.552	1.45
398.917	1.57
399.282	1.52
399.646	1.66
400.011	1.53
400.376	1.65
400.74	1.57
401.105	1.5
401.47	1.62
401.834	1.69
402.199	1.55
402.563	1.52
402.927	1.5
403.292	1.77
403.656	1.67
404.02	1.5
404.384	1.82
404.749	1.59
405.113	1.63
405.477	1.62
405.841	1.65
406.205	1.54
406.569	1.58
406.933	1.74
407.296	1.44
407.66	1.6
408.024	1.81
408.388	1.88
408.752	1.66
409.115	1.75
409.479	1.64
409.842	1.54
410.206	1.52
410.569	1.53
410.933	1.57
411.296	1.48
411.66	1.63
412.023	1.47
412.386	1.64
412.749	1.43
413.113	1.54
413.476	1.41
413.839	1.7
414.202	1.5
414.565	1.41
414.928	1.42
415.291	1.47
415.654	1.46
416.017	1.6
416.38	1.47
416.742	1.52
417.105	1.49
417.468	1.67
417.83	1.67
418.193	1.8
418.556	1.52
418.918	1.59
419.281	1.38
419.643	1.61
420.005	1.5
420.368	1.61
420.73	1.48
421.092	1.57
421.455	1.86
421.817	1.44
422.179	1.48
422.541	1.58
422.903	1.75
423.265	1.7
423.627	1.62
423.989	1.52
424.351	1.52
424.713	1.56
425.075	1.46
425.436	1.51
425.798	1.5
426.16	1.67
426.521	1.5
426.883	1.69
427.245	1.56
427.606	1.41
427.967	1.42
428.329	1.34
428.69	1.68
429.052	1.45
429.413	1.56
429.774	1.49
430.135	1.56
430.497	1.54
430.858	1.67
431.219	1.69
431.58	1.52
431.941	1.6
432.302	1.49
432.663	1.64
433.024	1.52
433.384	1.56
433.745	1.5
434.106	1.63
434.467	1.49
434.827	1.64
435.188	1.55
435.548	1.7
435.909	1.46
436.269	1.68
436.63	1.52
436.99	1.54
437.351	1.36
437.711	1.6
438.071	1.43
438.431	1.41
438.792	1.59
439.152	1.44
439.512	1.48
439.872	1.41
440.232	1.55
440.592	1.46
440.952	1.47
441.312	1.43
441.671	1.45
442.031	1.45
442.391	1.4
442.751	1.51
443.11	1.45
443.47	1.43
443.83	1.39
444.189	1.4
444.549	1.35
444.908	1.34
445.267	1.46
445.627	1.33
445.986	1.39
446.345	1.35
446.705	1.41
447.064	1.37
447.423	1.32
447.782	1.38
448.141	1.34
448.5	1.27
448.859	1.31
449.218	1.31
449.577	1.39
449.936	1.3
450.295	1.3
450.653	1.31
451.012	1.3
451.371	1.27
451.729	1.29
452.088	1.27
452.447	1.31
452.805	1.27
453.163	1.27
453.522	1.25
453.88	1.27
454.239	1.22
454.597	1.2
454.955	1.18
455.313	1.21
455.671	1.19
456.029	1.17
456.388	1.13
456.746	1.14
457.104	1.13
457.461	1.1
457.819	1.1
458.177	1.09
458.535	1.08
458.893	1.09
459.25	1.05
459.608	1.05
459.966	1
460.323	1.02
460.681	0.99
461.038	0.97
461.396	0.97
461.753	0.95
462.111	0.94
462.468	0.93
462.825	0.91
463.182	0.89
463.54	0.87
463.897	0.9
464.254	0.88
464.611	0.86
464.968	0.84
465.325	0.84
465.682	0.81
466.039	0.81
466.395	0.79
466.752	0.76
467.109	0.77
467.466	0.76
467.822	0.76
468.179	0.73
468.535	0.72
468.892	0.72
469.248	0.7
469.605	0.68
469.961	0.67
470.318	0.68
470.674	0.66
471.03	0.65
471.386	0.65
471.743	0.63
472.099	0.61
472.455	0.61
472.811	0.59
473.167	0.58
473.523	0.58
473.879	0.56
474.235	0.56
474.59	0.54
474.946	0.53
475.302	0.53
475.657	0.51
476.013	0.51
476.369	0.49
476.724	0.5
477.08	0.49
477.435	0.49
477.791	0.47
478.146	0.46
478.501	0.44
478.857	0.45
479.212	0.45
479.567	0.43
479.922	0.41
480.277	0.41
480.632	0.4
480.987	0.41
481.342	0.39
481.697	0.38
482.052	0.38
482.407	0.36
482.762	0.36
483.116	0.35
483.471	0.34
483.826	0.34
484.18	0.34
484.535	0.33
484.89	0.32
485.244	0.32
485.598	0.31
485.953	0.31
486.307	0.3
486.661	0.3
487.016	0.29
487.37	0.29
487.724	0.28
488.078	0.27
488.432	0.27
488.786	0.26
489.14	0.26
489.494	0.25
489.848	0.24
490.202	0.24
490.556	0.24
490.91	0.24
491.263	0.23
491.617	0.23
491.971	0.22
492.324	0.22
492.678	0.21
493.031	0.22
493.385	0.21
493.738	0.21
494.091	0.21
494.445	0.2
494.798	0.2
495.151	0.19
495.504	0.19
495.857	0.19
496.21	0.18
496.564	0.18
496.916	0.18
497.269	0.17
497.622	0.17
497.975	0.17
498.328	0.16
498.681	0.16
499.033	0.16
499.386	0.16
499.739	0.16
500.091	0.15
500.444	0.16
500.796	0.15
501.149	0.14
501.501	0.15
501.854	0.14
502.206	0.14
502.558	0.14
502.91	0.14
503.263	0.14
503.615	0.14
503.967	0.14
504.319	0.14
504.671	0.13
505.023	0.12
505.375	0.13
505.726	0.13
506.078	0.12
506.43	0.12
506.782	0.12
507.133	0.12
507.485	0.12
507.837	0.13
508.188	0.12
508.54	0.12
508.891	0.12
509.243	0.12
509.594	0.12
509.945	0.12
510.296	0.11
510.648	0.11
510.999	0.11
511.35	0.11
511.701	0.11
512.052	0.12
512.403	0.11
512.754	0.11
513.105	0.1
513.456	0.1
513.807	0.1
514.157	0.11
514.508	0.1
514.859	0.09
515.209	0.1
515.56	0.1
515.91	0.09
516.261	0.1
516.611	0.1
516.962	0.1
517.312	0.1
517.662	0.1
518.013	0.1
518.363	0.1
518.713	0.1
519.063	0.1
519.413	0.1
519.763	0.09
520.113	0.1
520.463	0.1
520.813	0.1
521.163	0.1
521.512	0.1
521.862	0.1
522.212	0.1
522.562	0.1
522.911	0.09
523.261	0.09
523.61	0.1
523.96	0.09
524.309	0.1
524.658	0.1
525.008	0.09
525.357	0.09
525.706	0.1
526.056	0.09
526.405	0.09
526.754	0.09
527.103	0.08
527.452	0.09
527.801	0.1
528.15	0.09
528.499	0.09
528.847	0.09
529.196	0.1
529.545	0.09
529.893	0.1
530.242	0.1
530.591	0.1
530.939	0.1
531.288	0.1
531.636	0.1
531.985	0.09
532.333	0.09
532.681	0.1
533.029	0.09
533.378	0.1
533.726	0.09
534.074	0.11
534.422	0.09
534.77	0.1
535.118	0.09
535.466	0.09
535.814	0.09
536.162	0.1
536.509	0.1
536.857	0.1
537.205	0.1
537.552	0.1
537.9	0.1
538.248	0.09
538.595	0.09
538.943	0.1
539.29	0.09
539.637	0.09
539.985	0.1
540.332	0.1
540.679	0.09
541.026	0.1
541.373	0.1
541.721	0.09
542.068	0.09
542.415	0.09
542.762	0.08
543.108	0.08
543.455	0.08
543.802	0.08
544.149	0.08
544.496	0.09
544.842	0.08
545.189	0.07
545.535	0.08
545.882	0.09
546.228	0.08
546.575	0.07
546.921	0.07
547.267	0.08
547.614	0.08
547.96	0.09
548.306	0.08
548.652	0.08
548.998	0.09
549.344	0.08
549.69	0.08
550.036	0.07
550.382	0.08
550.728	0.08
551.074	0.09
551.42	0.09
551.765	0.09
552.111	0.09
552.457	0.09
552.802	0.08
553.148	0.08
553.493	0.08
553.839	0.08
554.184	0.09
554.529	0.08
554.875	0.08
555.22	0.09
555.565	0.09
555.91	0.08
556.255	0.09
556.6	0.09
556.945	0.08
557.29	0.08
557.635	0.1
557.98	0.08
558.325	0.09
558.67	0.09
559.014	0.08
559.359	0.08
559.704	0.09
560.048	0.08
560.393	0.09
560.737	0.08
561.082	0.08
561.426	0.07
561.77	0.09
562.115	0.08
562.459	0.08
562.803	0.09
563.147	0.08
563.491	0.09
563.835	0.09
564.179	0.08
564.523	0.08
564.867	0.08
565.211	0.08
565.555	0.09
565.899	0.09
566.242	0.08
566.586	0.08
566.93	0.08
567.273	0.09
567.617	0.09
567.96	0.09
568.304	0.09
568.647	0.08
568.99	0.09
569.334	0.1
569.677	0.08
570.02	0.09
570.363	0.09
570.706	0.08
571.049	0.09
571.392	0.09
571.735	0.08
572.078	0.09
572.421	0.1
572.764	0.09
573.106	0.09
573.449	0.08
573.792	0.08
574.134	0.09
574.477	0.08
574.819	0.09
575.162	0.08
575.504	0.09
575.847	0.09
576.189	0.09
576.531	0.08
576.873	0.08
577.215	0.09
577.558	0.09
577.9	0.08
578.242	0.08
578.584	0.08
578.926	0.08
579.267	0.08
579.609	0.08
579.951	0.09
580.293	0.08
580.634	0.09
580.976	0.09
581.318	0.09
581.659	0.08
582.001	0.08
582.342	0.08
582.683	0.09
583.025	0.08
583.366	0.07
583.707	0.08
584.049	0.07
584.39	0.08
584.731	0.07
585.072	0.08
585.413	0.08
585.754	0.08
586.095	0.08
586.435	0.08
586.776	0.08
587.117	0.08
587.458	0.08
587.798	0.08
588.139	0.08
588.48	0.08
588.82	0.08
589.161	0.08
589.501	0.07
589.841	0.08
590.182	0.08
590.522	0.08
590.862	0.08
591.202	0.08
591.542	0.08
591.882	0.08
592.222	0.08
592.562	0.08
592.902	0.08
593.242	0.08
593.582	0.09
593.922	0.08
594.261	0.08
594.601	0.07
594.941	0.08
595.28	0.08
595.62	0.08
595.959	0.08
596.299	0.08
596.638	0.08
596.977	0.08
597.317	0.09
597.656	0.09
597.995	0.09
598.334	0.09
598.673	0.08
599.012	0.08
599.351	0.09
599.69	0.08
600.029	0.09
600.368	0.09
600.707	0.09
601.046	0.08
601.384	0.09
601.723	0.09
602.061	0.08
602.4	0.09
602.738	0.09
603.077	0.09
603.415	0.08
603.754	0.08
604.092	0.09
604.43	0.08
604.768	0.09
605.107	0.08
605.445	0.08
605.783	0.07
606.121	0.08
606.459	0.08
606.796	0.08
607.134	0.08
607.472	0.07
607.81	0.08
608.148	0.08
608.485	0.09
608.823	0.08
609.16	0.08
609.498	0.08
609.835	0.08
610.173	0.08
610.51	0.08
610.847	0.07
611.185	0.08
611.522	0.08
611.859	0.09
612.196	0.09
612.533	0.09
612.87	0.09
613.207	0.09
613.544	0.09
613.881	0.1
614.217	0.09
614.554	0.08
614.891	0.08
615.228	0.09
615.564	0.09
615.901	0.09
616.237	0.09
616.574	0.09
616.91	0.1
617.246	0.09
617.583	0.09
617.919	0.09
618.255	0.09
618.591	0.09
618.927	0.09
619.263	0.1
619.599	0.1
619.935	0.09
620.271	0.09
620.607	0.09
620.943	0.09
621.279	0.1
621.614	0.09
621.95	0.09
622.286	0.09
622.621	0.08
622.957	0.09
623.292	0.09
623.627	0.08
623.963	0.09
624.298	0.09
624.633	0.07
624.968	0.09
625.304	0.08
625.639	0.08
625.974	0.08
626.309	0.08
626.644	0.08
626.979	0.09
627.313	0.09
627.648	0.08
627.983	0.08
628.318	0.08
628.652	0.07
628.987	0.08
629.321	0.08
629.656	0.07
629.99	0.07
630.325	0.08
630.659	0.08
630.993	0.07
631.327	0.08
631.662	0.06
631.996	0.07
632.33	0.07
632.664	0.08
632.998	0.07
633.332	0.07
633.666	0.08
633.999	0.07
634.333	0.07
634.667	0.07
635.001	0.07
635.334	0.07
635.668	0.07
636.001	0.07
636.335	0.08
636.668	0.07
637.001	0.06
637.335	0.07
637.668	0.07
638.001	0.06
638.334	0.07
638.668	0.07
639.001	0.07
639.334	0.07
639.667	0.07
639.999	0.07
640.332	0.07
640.665	0.07
640.998	0.07
641.331	0.08
641.663	0.07
641.996	0.07
642.328	0.07
642.661	0.07
642.993	0.08
643.326	0.07
643.658	0.06
643.99	0.07
644.323	0.07
644.655	0.06
644.987	0.07
645.319	0.07
645.651	0.07
645.983	0.07
646.315	0.06
646.647	0.07
646.979	0.08
647.31	0.08
647.642	0.07
647.974	0.06
648.305	0.07
648.637	0.07
648.968	0.07
649.3	0.07
649.631	0.07
649.963	0.07
650.294	0.07
650.625	0.07
650.957	0.08
651.288	0.07
651.619	0.08
651.95	0.08
652.281	0.08
652.612	0.07
652.943	0.07
653.274	0.08
653.604	0.07
653.935	0.07
654.266	0.07
654.596	0.07
654.927	0.07
655.258	0.08
655.588	0.08
655.918	0.08
656.249	0.06
656.579	0.07
656.909	0.07
657.24	0.07
657.57	0.07
657.9	0.07
658.23	0.08
658.56	0.08
658.89	0.08
659.22	0.07
659.55	0.07
659.88	0.08
660.209	0.08
660.539	0.09
660.869	0.08
661.198	0.07
661.528	0.07
661.857	0.07
662.187	0.08
662.516	0.07
662.846	0.07
663.175	0.07
663.504	0.08
663.833	0.07
664.163	0.07
664.492	0.07
664.821	0.08
665.15	0.07
665.479	0.07
665.807	0.07
666.136	0.07
666.465	0.08
666.794	0.07
667.122	0.07
667.451	0.08
667.78	0.08
668.108	0.07
668.437	0.08
668.765	0.07
669.093	0.08
669.422	0.07
669.75	0.07
670.078	0.07
670.406	0.08
670.734	0.07
671.062	0.07
671.39	0.07
671.718	0.07
672.046	0.07
672.374	0.06
672.702	0.07
673.029	0.06
673.357	0.07
673.685	0.07
674.012	0.07
674.34	0.07
674.667	0.08
674.995	0.07
675.322	0.08
675.649	0.06
675.977	0.08
676.304	0.07
676.631	0.07
676.958	0.07
677.285	0.06
677.612	0.07
677.939	0.06
678.266	0.08
678.593	0.07
678.92	0.07
679.246	0.06
679.573	0.07
679.9	0.07
680.226	0.07
680.553	0.06
680.879	0.07
681.206	0.07
681.532	0.07
681.858	0.06
682.184	0.07
682.511	0.07
682.837	0.07
683.163	0.07
683.489	0.07
683.815	0.06
684.141	0.07
684.467	0.06
684.793	0.07
685.118	0.07
685.444	0.06
685.77	0.06
686.095	0.07
686.421	0.07
686.746	0.07
687.072	0.07
687.397	0.07
687.723	0.07
688.048	0.07
688.373	0.06
688.698	0.07
689.023	0.07
689.349	0.07
689.674	0.07
689.999	0.06
690.323	0.06
690.648	0.06
690.973	0.06
691.298	0.07
691.623	0.06
691.947	0.07
692.272	0.07
692.596	0.07
692.921	0.07
693.245	0.07
693.57	0.07
693.894	0.07
694.218	0.08
694.543	0.06
694.867	0.07
695.191	0.07
695.515	0.07
695.839	0.06
696.163	0.07
696.487	0.06
696.811	0.07
697.135	0.07
697.458	0.07
697.782	0.07
698.106	0.07
698.429	0.07
698.753	0.06
699.076	0.06
699.4	0.06
699.723	0.07
700.046	0.06
700.37	0.07
700.693	0.06
701.016	0.06
701.339	0.06
701.662	0.08
701.985	0.07
702.308	0.06
702.631	0.07
702.954	0.06
703.277	0.07
703.599	0.07
703.922	0.06
704.245	0.06
704.567	0.06
704.89	0.07
705.212	0.07
705.535	0.06
705.857	0.06
706.179	0.05
706.502	0.05
706.824	0.06
707.146	0.05
707.468	0.07
707.79	0.06
708.112	0.06
708.434	0.07
708.756	0.06
709.078	0.06
709.399	0.06
709.721	0.06
710.043	0.06
710.364	0.06
710.686	0.06
711.007	0.07
711.329	0.07
711.65	0.06
711.972	0.07
712.293	0.07
712.614	0.06
712.935	0.07
713.256	0.06
713.577	0.07
713.898	0.06
714.219	0.06
714.54	0.06
714.861	0.06
715.182	0.07
715.503	0.06
715.823	0.05
716.144	0.06
716.464	0.05
716.785	0.06
717.105	0.05
717.426	0.05
717.746	0.05
718.066	0.05
718.387	0.06
718.707	0.05
719.027	0.06
719.347	0.05
719.667	0.05
719.987	0.04
720.307	0.05
720.627	0.05
720.947	0.05
721.266	0.05
721.586	0.05
721.906	0.05
722.225	0.05
722.545	0.05
722.864	0.05
723.184	0.05
723.503	0.06
723.823	0.06
724.142	0.05
724.461	0.05
724.78	0.05
725.099	0.06
725.418	0.05
725.737	0.05
726.056	0.06
726.375	0.05
726.694	0.05
727.013	0.05
727.331	0.04
727.65	0.05
727.969	0.05
728.287	0.05
728.606	0.05
728.924	0.05
729.242	0.05
729.561	0.05
729.879	0.05
730.197	0.06
730.515	0.06
730.834	0.05
731.152	0.05
731.47	0.06
731.788	0.06
732.105	0.05
732.423	0.05
732.741	0.06
733.059	0.05
733.376	0.06
733.694	0.05
734.012	0.05
734.329	0.06
734.647	0.05
734.964	0.06
735.281	0.06
735.599	0.05
735.916	0.07
736.233	0.05
736.55	0.06
736.867	0.05
737.184	0.06
737.501	0.05
737.818	0.06
738.135	0.06
738.452	0.05
738.768	0.06
739.085	0.06
739.402	0.05
739.718	0.05
740.035	0.05
740.351	0.05
740.668	0.05
740.984	0.05
741.3	0.05
741.617	0.06
741.933	0.05
742.249	0.06
742.565	0.05
742.881	0.06
743.197	0.05
743.513	0.05
743.829	0.05
744.144	0.04
744.46	0.05
744.776	0.06
745.091	0.05
745.407	0.05
745.722	0.05
746.038	0.04
746.353	0.04
746.669	0.04
746.984	0.04
747.299	0.05
747.614	0.05
747.93	0.04
748.245	0.04
748.56	0.04
748.875	0.04
749.189	0.04
749.504	0.05
749.819	0.05
750.134	0.05
750.448	0.04
750.763	0.05
751.078	0.04
751.392	0.04
751.707	0.05
752.021	0.06
752.335	0.06
752.65	0.05
752.964	0.05
753.278	0.05
753.592	0.05
753.906	0.04
754.22	0.06
754.534	0.05
754.848	0.05
755.162	0.05
755.476	0.05
755.789	0.06
756.103	0.05
756.417	0.05
756.73	0.05
757.044	0.06
757.357	0.05
757.671	0.05
757.984	0.05
758.297	0.06
758.61	0.05
758.924	0.05
759.237	0.05
759.55	0.05
759.863	0.06
760.176	0.05
760.488	0.05
760.801	0.05
761.114	0.05
761.427	0.05
761.739	0.05
762.052	0.05
762.365	0.05
762.677	0.05
762.99	0.04
763.302	0.04
763.614	0.05
763.926	0.05
764.239	0.04
764.551	0.05
764.863	0.05
765.175	0.05
765.487	0.05
765.799	0.04
766.111	0.04
766.423	0.04
766.734	0.05
767.046	0.05
767.358	0.05
767.669	0.05
767.981	0.06
768.292	0.05
768.604	0.05
768.915	0.05
769.226	0.04
769.537	0.03
769.849	0.06
770.16	0.04
770.471	0.04
770.782	0.04
771.093	0.05
771.404	0.03
771.715	0.04
772.025	0.04
772.336	0.04
772.647	0.04
772.957	0.04
773.268	0.05
773.578	0.04
773.889	0.05
774.199	0.06
774.51	0.05
774.82	0.05
775.13	0.05
775.44	0.05
775.75	0.06
776.06	0.05
776.37	0.04
776.68	0.05
776.99	0.05
777.3	0.05
777.61	0.05
777.92	0.05
778.229	0.04
778.539	0.04
778.848	0.04
779.158	0.05
779.467	0.05
779.777	0.05
780.086	0.05
780.395	0.04
780.704	0.04
781.013	0.04
781.323	0.03
781.632	0.04
781.941	0.05
782.249	0.05
782.558	0.04
782.867	0.05
783.176	0.03
783.485	0.04
783.793	0.05
784.102	0.04
784.41	0.04
784.719	0.04
785.027	0.04
785.335	0.04
785.644	0.04
785.952	0.04
786.26	0.04
786.568	0.04
786.876	0.04
787.184	0.04
787.492	0.04
787.8	0.04
788.108	0.04
788.416	0.04
788.723	0.04
789.031	0.04
789.338	0.04
789.646	0.04
789.953	0.05
790.261	0.04
790.568	0.05
790.876	0.04
791.183	0.04
791.49	0.04
791.797	0.04
792.104	0.04
792.411	0.04
792.718	0.04
793.025	0.05
793.332	0.05
793.639	0.05
793.945	0.05
794.252	0.05
794.559	0.05
794.865	0.06
795.172	0.05
795.478	0.05
795.784	0.05
796.091	0.05
796.397	0.06
796.703	0.06
797.009	0.06
797.315	0.06
797.622	0.06
797.927	0.05
798.233	0.04
798.539	0.06
798.845	0.06
799.151	0.06
799.456	0.06
799.762	0.05
800.068	0.06
800.373	0.06
800.679	0.05
800.984	0.06
801.289	0.06
801.595	0.05
801.9	0.05
802.205	0.05
802.51	0.06
802.815	0.06
803.12	0.06
803.425	0.06
803.73	0.05
804.035	0.05
804.339	0.05
804.644	0.04
804.949	0.05
805.253	0.04
805.558	0.05
805.862	0.05
806.167	0.05
806.471	0.04
806.775	0.05
807.08	0.04
807.384	0.05
807.688	0.05
807.992	0.05
808.296	0.04
808.6	0.05
808.904	0.06
809.207	0.05
809.511	0.05
809.815	0.06
810.119	0.05
810.422	0.06
810.726	0.06
811.029	0.06
811.332	0.06
811.636	0.06
811.939	0.05
812.242	0.06
812.546	0.06
812.849	0.06
813.152	0.07
813.455	0.06
813.758	0.06
814.06	0.06
814.363	0.06
814.666	0.07
814.969	0.07
815.271	0.07
815.574	0.06
815.877	0.06
816.179	0.06
816.481	0.05
816.784	0.06
817.086	0.06
817.388	0.05
817.69	0.04
817.993	0.05
818.295	0.05
818.597	0.05
818.899	0.04
819.2	0.05
819.502	0.04
819.804	0.05
820.106	0.04
820.407	0.04
820.709	0.04
821.01	0.04
821.312	0.04
821.613	0.04
821.915	0.04
822.216	0.04
822.517	0.04
822.818	0.03
823.119	0.04
823.42	0.04
823.721	0.03
824.022	0.03
824.323	0.04
824.624	0.04
824.925	0.03
825.226	0.05
825.526	0.03
825.827	0.03
826.127	0.03
826.428	0.04
826.728	0.03
827.028	0.04
827.329	0.03
827.629	0.04
827.929	0.03
828.229	0.04
828.529	0.04
828.829	0.03
829.129	0.04
829.429	0.03
829.729	0.03
830.029	0.03
830.328	0.04
830.628	0.03
830.927	0.02
831.227	0.03
831.526	0.03
831.826	0.03
832.125	0.03
832.424	0.03
832.724	0.03
833.023	0.04
833.322	0.04
833.621	0.02
833.92	0.02
834.219	0.02
834.518	0.03
834.816	0.02
835.115	0.02
835.414	0.02
835.712	0.02
836.011	0.01
836.309	0.02
836.608	0.01
836.906	0.01
837.205	0
837.503	0
837.801	0
838.099	-0
838.397	-0.01
838.695	-0
838.993	-0
839.291	-0.01
839.589	-0
839.887	-0
840.184	-0.01
840.482	-0.01
840.78	-0.01
841.077	-0.01
841.375	-0
841.672	-0.01
841.969	-0.01
842.267	-0.01
842.564	-0.01
842.861	-0.01
843.158	-0.01
843.455	-0.03
843.752	-0.02
844.049	-0.03
844.346	-0.02
844.643	-0.04
844.94	-0.02
845.236	-0.02
845.533	-0.02
845.83	-0.03
846.126	-0.03
846.423	-0.03
846.719	-0.04
847.015	-0.03
847.312	-0.03
847.608	-0.04
847.904	-0.04
848.2	-0.04
848.496	-0.04
848.792	-0.03
849.088	-0.03
849.384	-0.04
849.68	-0.04
849.975	-0.04
850.271	-0.04
850.567	-0.04
850.862	-0.05
851.158	-0.05
851.453	-0.05
851.748	-0.06
852.044	-0.05
852.339	-0.05
852.634	-0.06
852.929	-0.05
853.224	-0.05
853.519	-0.05
853.814	-0.04
854.109	-0.06
854.404	-0.06
854.699	-0.06
854.994	-0.06
855.288	-0.06
855.583	-0.05
855.877	-0.07
856.172	-0.06
856.466	-0.07
856.76	-0.07
857.055	-0.07
857.349	-0.08
857.643	-0.09
857.937	-0.09
858.231	-0.09
858.525	-0.1
858.819	-0.1
859.113	-0.11
859.407	-0.11
859.701	-0.11
859.994	-0.11
860.288	-0.1
860.581	-0.11
860.875	-0.1
861.168	-0.1
861.462	-0.11
861.755	-0.11
862.048	-0.12
862.341	-0.1
862.634	-0.12
862.928	-0.09
863.221	-0.11
863.513	-0.12
863.806	-0.11
864.099	-0.12
864.392	-0.13
864.685	-0.1
864.977	-0.11
865.27	-0.12
865.562	-0.11
865.855	-0.11
866.147	-0.12
866.44	-0.11
866.732	-0.12
867.024	-0.12
867.316	-0.12
867.608	-0.12
867.9	-0.12
868.192	-0.13
868.484	-0.13
868.776	-0.12
869.068	-0.12
869.359	-0.13
869.651	-0.13
869.943	-0.15
870.234	-0.13
870.526	-0.14
870.817	-0.14
871.108	-0.13
871.4	-0.14
871.691	-0.15
871.982	-0.15
872.273	-0.15
872.564	-0.14
872.855	-0.15
873.146	-0.15
873.437	-0.16
873.728	-0.16
874.019	-0.16
874.309	-0.17
874.6	-0.17
874.89	-0.16
875.181	-0.17
875.471	-0.15
875.762	-0.16
876.052	-0.15
876.342	-0.15
876.632	-0.16
876.922	-0.18
877.213	-0.16
877.503	-0.18
877.792	-0.16
878.082	-0.18
878.372	-0.16
878.662	-0.18
878.952	-0.16
879.241	-0.17
879.531	-0.16
879.82	-0.17
880.11	-0.16
880.399	-0.15
880.688	-0.15
880.978	-0.15
881.267	-0.15
