Data from 12-12-AQDScycling_Absorbance__13__00013.txt Node

Date: Tue Dec 12 10:59:59 EST 2023
User: kyuminlee
Spectrometer: FLMS00943
Trigger mode: 0
Integration Time (sec): 1.000000E-1
Scans to average: 1
Electric dark correction enabled: true
Nonlinearity correction enabled: false
Boxcar width: 0
XAxis mode: Wavelengths
Number of Pixels in Spectrum: 2048
>>>>>Begin Spectral Data<<<<<
179.651	0.12
180.037	0.12
180.424	0.12
180.81	-0
181.197	0.37
181.583	0.05
181.97	-0.67
182.356	-0
182.743	-0
183.129	0.7
183.515	-0
183.901	-2.53
184.288	-0
184.674	-0
185.06	-0.99
185.446	-0.49
185.832	-0.24
186.218	-0.09
186.604	-0
186.99	-0.29
187.376	1.71
187.762	0.21
188.148	-0
188.534	-0.36
188.92	0.02
189.305	0.04
189.691	-0.02
190.077	0.19
190.463	0.13
190.848	-0.06
191.234	0.1
191.619	0.1
192.005	0.01
192.391	0.19
192.776	0.18
193.161	-0.07
193.547	0.09
193.932	0.02
194.318	0.05
194.703	0.21
195.088	0.05
195.473	0.2
195.859	0.13
196.244	0.15
196.629	0.03
197.014	0.14
197.399	0.19
197.784	0.11
198.169	0.3
198.554	0.14
198.939	0.16
199.324	0.1
199.709	0.09
200.094	0.04
200.478	0.07
200.863	0.17
201.248	0.06
201.633	0.18
202.017	0.21
202.402	0.29
202.787	0.08
203.171	0.09
203.556	0.14
203.94	0.21
204.325	0.22
204.709	0.16
205.093	0.03
205.478	0.11
205.862	0.04
206.246	0.15
206.631	0.26
207.015	0.07
207.399	0.1
207.783	0.09
208.167	0.1
208.551	0.22
208.935	0.07
209.319	0.11
209.703	0.1
210.087	0.21
210.471	0.09
210.855	0.12
211.239	0.19
211.623	0.2
212.007	0.17
212.39	0.29
212.774	0.16
213.158	0.02
213.541	0.23
213.925	0.43
214.309	0.37
214.692	0.24
215.076	0.2
215.459	0.17
215.842	0.18
216.226	0.3
216.609	0.22
216.993	0.18
217.376	0.49
217.759	0.3
218.142	0.42
218.525	0.63
218.909	0.36
219.292	0.31
219.675	0.51
220.058	0.47
220.441	0.41
220.824	0.46
221.207	0.54
221.59	0.42
221.973	0.5
222.355	0.63
222.738	0.68
223.121	0.59
223.504	0.48
223.886	0.66
224.269	0.68
224.652	0.65
225.034	0.69
225.417	0.88
225.799	0.7
226.182	0.85
226.564	0.81
226.947	0.85
227.329	0.71
227.711	0.85
228.094	1.03
228.476	0.88
228.858	0.8
229.24	0.8
229.623	0.8
230.005	0.82
230.387	0.75
230.769	0.78
231.151	0.86
231.533	0.93
231.915	0.99
232.297	1
232.679	0.96
233.061	0.99
233.442	1.01
233.824	0.97
234.206	1.08
234.588	1.03
234.969	0.94
235.351	0.93
235.733	0.99
236.114	1.34
236.496	1.01
236.877	1.17
237.259	1.06
237.64	0.94
238.022	1.01
238.403	0.94
238.784	0.92
239.165	1.01
239.547	1.02
239.928	1.05
240.309	1.1
240.69	1.01
241.071	0.95
241.452	1.13
241.834	0.98
242.215	1.01
242.595	1.05
242.976	1.05
243.357	1.27
243.738	1.1
244.119	1.26
244.5	1.01
244.881	1.11
245.261	1.17
245.642	1.11
246.023	1.05
246.403	1.09
246.784	1.15
247.164	1.23
247.545	1.18
247.925	1.2
248.306	1.19
248.686	1.36
249.067	1.28
249.447	1.32
249.827	1.38
250.207	1.35
250.588	1.29
250.968	1.45
251.348	1.34
251.728	1.35
252.108	1.26
252.488	1.24
252.868	1.36
253.248	1.28
253.628	1.33
254.008	1.41
254.388	1.3
254.768	1.28
255.147	1.34
255.527	1.38
255.907	1.31
256.287	1.28
256.666	1.53
257.046	1.39
257.425	1.43
257.805	1.32
258.184	1.31
258.564	1.35
258.943	1.33
259.323	1.4
259.702	1.52
260.081	1.53
260.461	1.55
260.84	1.5
261.219	1.7
261.598	1.51
261.977	1.43
262.356	1.41
262.736	1.56
263.115	1.55
263.494	1.43
263.873	1.58
264.251	1.5
264.63	1.49
265.009	1.35
265.388	1.32
265.767	1.4
266.145	1.29
266.524	1.39
266.903	1.5
267.281	1.34
267.66	1.53
268.039	1.5
268.417	1.3
268.796	1.31
269.174	1.43
269.552	1.32
269.931	1.44
270.309	1.31
270.687	1.54
271.066	1.57
271.444	1.27
271.822	1.41
272.2	1.41
272.578	1.41
272.956	1.41
273.334	1.25
273.712	1.4
274.09	1.39
274.468	1.35
274.846	1.25
275.224	1.43
275.602	1.41
275.98	1.49
276.357	1.38
276.735	1.36
277.113	1.41
277.49	1.29
277.868	1.39
278.246	1.48
278.623	1.32
279.001	1.44
279.378	1.36
279.756	1.49
280.133	1.46
280.51	1.37
280.888	1.39
281.265	1.41
281.642	1.51
282.019	1.56
282.396	1.5
282.773	1.44
283.151	1.42
283.528	1.45
283.905	1.51
284.282	1.46
284.659	1.6
285.035	1.27
285.412	1.23
285.789	1.37
286.166	1.4
286.543	1.37
286.919	1.41
287.296	1.3
287.673	1.52
288.049	1.54
288.426	1.73
288.802	1.43
289.179	1.42
289.555	1.59
289.932	1.38
290.308	1.25
290.684	1.28
291.061	1.33
291.437	1.4
291.813	1.47
292.189	1.31
292.565	1.22
292.942	1.36
293.318	1.32
293.694	1.38
294.07	1.31
294.446	1.37
294.822	1.48
295.197	1.34
295.573	1.36
295.949	1.65
296.325	1.44
296.701	1.46
297.076	1.45
297.452	1.49
297.828	1.42
298.203	1.51
298.579	1.33
298.954	1.53
299.33	1.51
299.705	1.51
300.081	1.46
300.456	1.44
300.831	1.39
301.206	1.42
301.582	1.63
301.957	1.56
302.332	1.63
302.707	1.42
303.082	1.42
303.457	1.48
303.832	1.46
304.207	1.43
304.582	1.46
304.957	1.5
305.332	1.46
305.707	1.46
306.082	1.57
306.456	1.49
306.831	1.42
307.206	1.51
307.58	1.5
307.955	1.53
308.33	1.45
308.704	1.47
309.079	1.45
309.453	1.68
309.828	1.6
310.202	1.48
310.576	1.43
310.951	1.48
311.325	1.43
311.699	1.4
312.073	1.5
312.447	1.56
312.821	1.4
313.196	1.48
313.57	1.51
313.944	1.42
314.317	1.39
314.691	1.49
315.065	1.54
315.439	1.48
315.813	1.51
316.187	1.35
316.56	1.64
316.934	1.6
317.308	1.37
317.681	1.5
318.055	1.44
318.428	1.47
318.802	1.54
319.175	1.45
319.549	1.53
319.922	1.4
320.295	1.43
320.669	1.6
321.042	1.43
321.415	1.63
321.788	1.45
322.162	1.48
322.535	1.56
322.908	1.52
323.281	1.58
323.654	1.9
324.027	1.39
324.4	1.56
324.773	1.42
325.145	1.47
325.518	1.47
325.891	1.49
326.264	1.5
326.636	1.38
327.009	1.41
327.382	1.5
327.754	1.64
328.127	1.4
328.499	1.48
328.872	1.5
329.244	1.59
329.616	1.45
329.989	1.45
330.361	1.43
330.733	1.57
331.106	1.43
331.478	1.44
331.85	1.38
332.222	1.39
332.594	1.44
332.966	1.45
333.338	1.67
333.71	1.53
334.082	1.61
334.454	1.41
334.826	1.48
335.197	1.69
335.569	1.43
335.941	1.4
336.312	1.46
336.684	1.51
337.056	1.49
337.427	1.61
337.799	1.46
338.17	1.41
338.542	1.46
338.913	1.61
339.284	1.58
339.656	1.45
340.027	1.56
340.398	1.46
340.769	1.52
341.141	1.67
341.512	1.48
341.883	1.54
342.254	1.59
342.625	1.67
342.996	1.49
343.367	1.46
343.738	1.6
344.108	1.39
344.479	1.56
344.85	1.34
345.221	1.53
345.591	1.35
345.962	1.41
346.333	1.61
346.703	1.31
347.074	1.47
347.444	1.35
347.815	1.41
348.185	1.53
348.556	1.33
348.926	1.23
349.296	1.38
349.666	1.43
350.037	1.22
350.407	1.24
350.777	1.4
351.147	1.34
351.517	1.37
351.887	1.25
352.257	1.42
352.627	1.22
352.997	1.3
353.367	1.28
353.737	1.37
354.106	1.45
354.476	1.26
354.846	1.34
355.216	1.37
355.585	1.4
355.955	1.29
356.324	1.33
356.694	1.22
357.063	1.27
357.433	1.23
357.802	1.22
358.171	1.22
358.541	1.2
358.91	1.19
359.279	1.18
359.648	1.07
360.017	1.11
360.387	1.08
360.756	1.05
361.125	1.04
361.494	1.04
361.863	0.94
362.231	0.97
362.6	0.97
362.969	0.95
363.338	0.92
363.707	0.93
364.075	0.91
364.444	0.84
364.813	0.86
365.181	0.83
365.55	0.83
365.918	0.83
366.287	0.82
366.655	0.8
367.024	0.74
367.392	0.74
367.76	0.73
368.128	0.7
368.497	0.69
368.865	0.68
369.233	0.67
369.601	0.65
369.969	0.65
370.337	0.62
370.705	0.6
371.073	0.61
371.441	0.59
371.809	0.59
372.177	0.59
372.544	0.58
372.912	0.55
373.28	0.54
373.647	0.55
374.015	0.56
374.383	0.54
374.75	0.53
375.118	0.51
375.485	0.51
375.853	0.51
376.22	0.5
376.587	0.48
376.955	0.49
377.322	0.5
377.689	0.49
378.056	0.46
378.423	0.46
378.79	0.48
379.157	0.47
379.524	0.47
379.891	0.46
380.258	0.47
380.625	0.43
380.992	0.44
381.359	0.44
381.726	0.45
382.092	0.42
382.459	0.44
382.826	0.46
383.192	0.42
383.559	0.42
383.925	0.43
384.292	0.41
384.658	0.43
385.025	0.41
385.391	0.42
385.757	0.41
386.123	0.42
386.49	0.41
386.856	0.43
387.222	0.4
387.588	0.39
387.954	0.42
388.32	0.42
388.686	0.4
389.052	0.4
389.418	0.4
389.784	0.4
390.15	0.4
390.515	0.39
390.881	0.41
391.247	0.4
391.613	0.41
391.978	0.4
392.344	0.41
392.709	0.38
393.075	0.4
393.44	0.39
393.806	0.37
394.171	0.4
394.536	0.4
394.902	0.38
395.267	0.39
395.632	0.38
395.997	0.37
396.362	0.39
396.727	0.4
397.092	0.38
397.457	0.36
397.822	0.38
398.187	0.36
398.552	0.37
398.917	0.35
399.282	0.36
399.646	0.35
400.011	0.36
400.376	0.35
400.74	0.37
401.105	0.35
401.47	0.34
401.834	0.34
402.199	0.34
402.563	0.31
402.927	0.32
403.292	0.35
403.656	0.33
404.02	0.33
404.384	0.32
404.749	0.33
405.113	0.33
405.477	0.32
405.841	0.32
406.205	0.3
406.569	0.31
406.933	0.31
407.296	0.3
407.66	0.31
408.024	0.31
408.388	0.3
408.752	0.28
409.115	0.29
409.479	0.29
409.842	0.28
410.206	0.28
410.569	0.28
410.933	0.29
411.296	0.28
411.66	0.29
412.023	0.27
412.386	0.27
412.749	0.27
413.113	0.26
413.476	0.26
413.839	0.26
414.202	0.25
414.565	0.25
414.928	0.26
415.291	0.25
415.654	0.24
416.017	0.26
416.38	0.24
416.742	0.24
417.105	0.23
417.468	0.24
417.83	0.24
418.193	0.25
418.556	0.24
418.918	0.24
419.281	0.24
419.643	0.23
420.005	0.23
420.368	0.24
420.73	0.23
421.092	0.22
421.455	0.22
421.817	0.22
422.179	0.22
422.541	0.22
422.903	0.22
423.265	0.21
423.627	0.21
423.989	0.2
424.351	0.2
424.713	0.2
425.075	0.19
425.436	0.2
425.798	0.21
426.16	0.21
426.521	0.21
426.883	0.22
427.245	0.19
427.606	0.19
427.967	0.19
428.329	0.2
428.69	0.2
429.052	0.2
429.413	0.19
429.774	0.17
430.135	0.17
430.497	0.18
430.858	0.18
431.219	0.19
431.58	0.19
431.941	0.17
432.302	0.18
432.663	0.18
433.024	0.18
433.384	0.18
433.745	0.18
434.106	0.17
434.467	0.18
434.827	0.19
435.188	0.18
435.548	0.18
435.909	0.18
436.269	0.19
436.63	0.17
436.99	0.18
437.351	0.19
437.711	0.18
438.071	0.17
438.431	0.16
438.792	0.17
439.152	0.16
439.512	0.15
439.872	0.16
440.232	0.17
440.592	0.18
440.952	0.18
441.312	0.16
441.671	0.16
442.031	0.16
442.391	0.16
442.751	0.16
443.11	0.15
443.47	0.15
443.83	0.16
444.189	0.16
444.549	0.16
444.908	0.15
445.267	0.15
445.627	0.15
445.986	0.14
446.345	0.14
446.705	0.14
447.064	0.16
447.423	0.15
447.782	0.14
448.141	0.15
448.5	0.14
448.859	0.15
449.218	0.14
449.577	0.15
449.936	0.16
450.295	0.14
450.653	0.14
451.012	0.15
451.371	0.15
451.729	0.15
452.088	0.15
452.447	0.15
452.805	0.15
453.163	0.15
453.522	0.14
453.88	0.13
454.239	0.14
454.597	0.13
454.955	0.13
455.313	0.12
455.671	0.13
456.029	0.13
456.388	0.13
456.746	0.13
457.104	0.12
457.461	0.12
457.819	0.12
458.177	0.12
458.535	0.12
458.893	0.12
459.25	0.12
459.608	0.11
459.966	0.11
460.323	0.11
460.681	0.1
461.038	0.11
461.396	0.11
461.753	0.11
462.111	0.1
462.468	0.1
462.825	0.1
463.182	0.1
463.54	0.1
463.897	0.1
464.254	0.1
464.611	0.11
464.968	0.1
465.325	0.1
465.682	0.09
466.039	0.1
466.395	0.09
466.752	0.09
467.109	0.09
467.466	0.09
467.822	0.1
468.179	0.09
468.535	0.1
468.892	0.1
469.248	0.09
469.605	0.08
469.961	0.08
470.318	0.1
470.674	0.09
471.03	0.08
471.386	0.09
471.743	0.08
472.099	0.08
472.455	0.08
472.811	0.08
473.167	0.08
473.523	0.08
473.879	0.08
474.235	0.08
474.59	0.08
474.946	0.08
475.302	0.08
475.657	0.08
476.013	0.08
476.369	0.07
476.724	0.07
477.08	0.08
477.435	0.07
477.791	0.08
478.146	0.08
478.501	0.08
478.857	0.08
479.212	0.07
479.567	0.07
479.922	0.06
480.277	0.06
480.632	0.07
480.987	0.07
481.342	0.07
481.697	0.06
482.052	0.07
482.407	0.06
482.762	0.06
483.116	0.06
483.471	0.05
483.826	0.06
484.18	0.06
484.535	0.06
484.89	0.06
485.244	0.06
485.598	0.07
485.953	0.07
486.307	0.06
486.661	0.06
487.016	0.06
487.37	0.06
487.724	0.06
488.078	0.06
488.432	0.06
488.786	0.06
489.14	0.06
489.494	0.05
489.848	0.06
490.202	0.05
490.556	0.05
490.91	0.06
491.263	0.05
491.617	0.06
491.971	0.05
492.324	0.05
492.678	0.06
493.031	0.06
493.385	0.05
493.738	0.05
494.091	0.05
494.445	0.06
494.798	0.05
495.151	0.05
495.504	0.05
495.857	0.05
496.21	0.05
496.564	0.05
496.916	0.06
497.269	0.05
497.622	0.05
497.975	0.05
498.328	0.06
498.681	0.05
499.033	0.05
499.386	0.05
499.739	0.05
500.091	0.05
500.444	0.05
500.796	0.06
501.149	0.05
501.501	0.05
501.854	0.05
502.206	0.05
502.558	0.05
502.91	0.05
503.263	0.05
503.615	0.04
503.967	0.05
504.319	0.05
504.671	0.04
505.023	0.04
505.375	0.04
505.726	0.05
506.078	0.04
506.43	0.04
506.782	0.04
507.133	0.05
507.485	0.05
507.837	0.05
508.188	0.05
508.54	0.05
508.891	0.05
509.243	0.05
509.594	0.05
509.945	0.04
510.296	0.04
510.648	0.05
510.999	0.03
511.35	0.04
511.701	0.04
512.052	0.05
512.403	0.04
512.754	0.04
513.105	0.03
513.456	0.03
513.807	0.03
514.157	0.04
514.508	0.04
514.859	0.03
515.209	0.03
515.56	0.03
515.91	0.03
516.261	0.04
516.611	0.03
516.962	0.04
517.312	0.04
517.662	0.04
518.013	0.04
518.363	0.04
518.713	0.03
519.063	0.04
519.413	0.04
519.763	0.03
520.113	0.04
520.463	0.04
520.813	0.04
521.163	0.04
521.512	0.04
521.862	0.04
522.212	0.04
522.562	0.04
522.911	0.04
523.261	0.03
523.61	0.04
523.96	0.04
524.309	0.04
524.658	0.04
525.008	0.04
525.357	0.04
525.706	0.05
526.056	0.04
526.405	0.05
526.754	0.04
527.103	0.04
527.452	0.04
527.801	0.04
528.15	0.04
528.499	0.03
528.847	0.04
529.196	0.04
529.545	0.04
529.893	0.04
530.242	0.03
530.591	0.04
530.939	0.04
531.288	0.04
531.636	0.04
531.985	0.04
532.333	0.05
532.681	0.04
533.029	0.04
533.378	0.04
533.726	0.04
534.074	0.05
534.422	0.04
534.77	0.05
535.118	0.04
535.466	0.04
535.814	0.04
536.162	0.04
536.509	0.04
536.857	0.04
537.205	0.04
537.552	0.04
537.9	0.03
538.248	0.03
538.595	0.04
538.943	0.04
539.29	0.04
539.637	0.03
539.985	0.03
540.332	0.03
540.679	0.04
541.026	0.03
541.373	0.04
541.721	0.03
542.068	0.03
542.415	0.04
542.762	0.03
543.108	0.03
543.455	0.03
543.802	0.03
544.149	0.03
544.496	0.03
544.842	0.03
545.189	0.02
545.535	0.03
545.882	0.04
546.228	0.03
546.575	0.03
546.921	0.03
547.267	0.02
547.614	0.03
547.96	0.03
548.306	0.03
548.652	0.03
548.998	0.03
549.344	0.03
549.69	0.04
550.036	0.03
550.382	0.03
550.728	0.03
551.074	0.03
551.42	0.03
551.765	0.03
552.111	0.03
552.457	0.03
552.802	0.02
553.148	0.03
553.493	0.03
553.839	0.03
554.184	0.03
554.529	0.03
554.875	0.03
555.22	0.04
555.565	0.03
555.91	0.03
556.255	0.04
556.6	0.03
556.945	0.03
557.29	0.03
557.635	0.03
557.98	0.03
558.325	0.03
558.67	0.03
559.014	0.03
559.359	0.03
559.704	0.03
560.048	0.02
560.393	0.02
560.737	0.02
561.082	0.03
561.426	0.01
561.77	0.02
562.115	0.02
562.459	0.02
562.803	0.03
563.147	0.02
563.491	0.02
563.835	0.03
564.179	0.02
564.523	0.02
564.867	0.02
565.211	0.02
565.555	0.03
565.899	0.03
566.242	0.02
566.586	0.02
566.93	0.03
567.273	0.03
567.617	0.03
567.96	0.03
568.304	0.03
568.647	0.03
568.99	0.03
569.334	0.04
569.677	0.03
570.02	0.03
570.363	0.04
570.706	0.04
571.049	0.03
571.392	0.04
571.735	0.03
572.078	0.03
572.421	0.04
572.764	0.03
573.106	0.03
573.449	0.03
573.792	0.03
574.134	0.03
574.477	0.04
574.819	0.03
575.162	0.02
575.504	0.03
575.847	0.02
576.189	0.03
576.531	0.03
576.873	0.03
577.215	0.03
577.558	0.03
577.9	0.02
578.242	0.03
578.584	0.03
578.926	0.03
579.267	0.02
579.609	0.02
579.951	0.02
580.293	0.02
580.634	0.03
580.976	0.02
581.318	0.03
581.659	0.03
582.001	0.03
582.342	0.02
582.683	0.03
583.025	0.02
583.366	0.02
583.707	0.02
584.049	0.02
584.39	0.02
584.731	0.02
585.072	0.02
585.413	0.03
585.754	0.02
586.095	0.03
586.435	0.03
586.776	0.03
587.117	0.02
587.458	0.02
587.798	0.03
588.139	0.03
588.48	0.02
588.82	0.02
589.161	0.02
589.501	0.02
589.841	0.02
590.182	0.02
590.522	0.02
590.862	0.02
591.202	0.03
591.542	0.02
591.882	0.02
592.222	0.02
592.562	0.02
592.902	0.02
593.242	0.02
593.582	0.02
593.922	0.02
594.261	0.01
594.601	0.02
594.941	0.02
595.28	0.02
595.62	0.03
595.959	0.03
596.299	0.02
596.638	0.02
596.977	0.02
597.317	0.03
597.656	0.02
597.995	0.03
598.334	0.03
598.673	0.03
599.012	0.02
599.351	0.03
599.69	0.02
600.029	0.03
600.368	0.03
600.707	0.03
601.046	0.03
601.384	0.03
601.723	0.03
602.061	0.02
602.4	0.03
602.738	0.03
603.077	0.03
603.415	0.02
603.754	0.03
604.092	0.03
604.43	0.02
604.768	0.03
605.107	0.03
605.445	0.02
605.783	0.03
606.121	0.02
606.459	0.03
606.796	0.03
607.134	0.03
607.472	0.03
607.81	0.03
608.148	0.03
608.485	0.03
608.823	0.03
609.16	0.03
609.498	0.03
609.835	0.03
610.173	0.03
610.51	0.04
610.847	0.03
611.185	0.03
611.522	0.03
611.859	0.04
612.196	0.04
612.533	0.04
612.87	0.04
613.207	0.04
613.544	0.04
613.881	0.05
614.217	0.04
614.554	0.04
614.891	0.04
615.228	0.04
615.564	0.04
615.901	0.04
616.237	0.04
616.574	0.03
616.91	0.04
617.246	0.04
617.583	0.04
617.919	0.04
618.255	0.04
618.591	0.04
618.927	0.04
619.263	0.04
619.599	0.04
619.935	0.04
620.271	0.04
620.607	0.04
620.943	0.04
621.279	0.04
621.614	0.03
621.95	0.04
622.286	0.03
622.621	0.04
622.957	0.04
623.292	0.03
623.627	0.03
623.963	0.03
624.298	0.03
624.633	0.03
624.968	0.03
625.304	0.03
625.639	0.03
625.974	0.03
626.309	0.03
626.644	0.03
626.979	0.04
627.313	0.04
627.648	0.04
627.983	0.04
628.318	0.04
628.652	0.04
628.987	0.04
629.321	0.04
629.656	0.03
629.99	0.03
630.325	0.03
630.659	0.03
630.993	0.03
631.327	0.03
631.662	0.02
631.996	0.02
632.33	0.02
632.664	0.02
632.998	0.01
633.332	0.02
633.666	0.02
633.999	0.02
634.333	0.02
634.667	0.02
635.001	0.02
635.334	0.02
635.668	0.03
636.001	0.02
636.335	0.03
636.668	0.03
637.001	0.02
637.335	0.02
637.668	0.03
638.001	0.02
638.334	0.02
638.668	0.02
639.001	0.03
639.334	0.02
639.667	0.02
639.999	0.02
640.332	0.02
640.665	0.02
640.998	0.02
641.331	0.03
641.663	0.02
641.996	0.03
642.328	0.02
642.661	0.03
642.993	0.03
643.326	0.02
643.658	0.02
643.99	0.02
644.323	0.03
644.655	0.02
644.987	0.03
645.319	0.03
645.651	0.03
645.983	0.03
646.315	0.03
646.647	0.03
646.979	0.04
647.31	0.04
647.642	0.03
647.974	0.03
648.305	0.04
648.637	0.03
648.968	0.04
649.3	0.04
649.631	0.04
649.963	0.03
650.294	0.04
650.625	0.03
650.957	0.03
651.288	0.03
651.619	0.03
651.95	0.03
652.281	0.03
652.612	0.03
652.943	0.03
653.274	0.03
653.604	0.03
653.935	0.03
654.266	0.04
654.596	0.03
654.927	0.03
655.258	0.03
655.588	0.04
655.918	0.03
656.249	0.02
656.579	0.04
656.909	0.04
657.24	0.03
657.57	0.04
657.9	0.04
658.23	0.04
658.56	0.04
658.89	0.04
659.22	0.04
659.55	0.03
659.88	0.04
660.209	0.04
660.539	0.05
660.869	0.04
661.198	0.04
661.528	0.03
661.857	0.04
662.187	0.04
662.516	0.04
662.846	0.03
663.175	0.03
663.504	0.04
663.833	0.03
664.163	0.04
664.492	0.04
664.821	0.04
665.15	0.04
665.479	0.04
665.807	0.03
666.136	0.04
666.465	0.03
666.794	0.03
667.122	0.03
667.451	0.03
667.78	0.03
668.108	0.04
668.437	0.03
668.765	0.03
669.093	0.04
669.422	0.04
669.75	0.03
670.078	0.04
670.406	0.03
670.734	0.04
671.062	0.03
671.39	0.03
671.718	0.04
672.046	0.04
672.374	0.03
672.702	0.03
673.029	0.04
673.357	0.04
673.685	0.05
674.012	0.03
674.34	0.04
674.667	0.04
674.995	0.04
675.322	0.04
675.649	0.03
675.977	0.03
676.304	0.03
676.631	0.03
676.958	0.03
677.285	0.02
677.612	0.02
677.939	0.02
678.266	0.03
678.593	0.02
678.92	0.02
679.246	0.02
679.573	0.02
679.9	0.02
680.226	0.02
680.553	0.02
680.879	0.02
681.206	0.02
681.532	0.02
681.858	0.02
682.184	0.02
682.511	0.02
682.837	0.02
683.163	0.02
683.489	0.02
683.815	0.02
684.141	0.03
684.467	0.02
684.793	0.02
685.118	0.02
685.444	0.02
685.77	0.02
686.095	0.03
686.421	0.02
686.746	0.03
687.072	0.02
687.397	0.02
687.723	0.03
688.048	0.03
688.373	0.02
688.698	0.02
689.023	0.02
689.349	0.03
689.674	0.02
689.999	0.03
690.323	0.01
690.648	0.02
690.973	0.02
691.298	0.02
691.623	0.02
691.947	0.02
692.272	0.02
692.596	0.02
692.921	0.03
693.245	0.02
693.57	0.03
693.894	0.03
694.218	0.03
694.543	0.02
694.867	0.03
695.191	0.02
695.515	0.02
695.839	0.02
696.163	0.02
696.487	0.02
696.811	0.02
697.135	0.02
697.458	0.03
697.782	0.02
698.106	0.02
698.429	0.02
698.753	0.02
699.076	0.01
699.4	0.01
699.723	0.02
700.046	0.02
700.37	0.03
700.693	0.02
701.016	0.02
701.339	0.03
701.662	0.03
701.985	0.03
702.308	0.02
702.631	0.03
702.954	0.03
703.277	0.02
703.599	0.02
703.922	0.01
704.245	0.01
704.567	0.01
704.89	0.02
705.212	0.02
705.535	0.01
705.857	0.01
706.179	0.01
706.502	0.01
706.824	-0
707.146	0.01
707.468	0.01
707.79	0.01
708.112	0.02
708.434	0.01
708.756	0.01
709.078	0.01
709.399	0.01
709.721	0.01
710.043	0.01
710.364	0.01
710.686	0.01
711.007	0.01
711.329	0.02
711.65	0.01
711.972	0.01
712.293	0.02
712.614	0.02
712.935	0.03
713.256	0.01
713.577	0.03
713.898	0.02
714.219	0.01
714.54	0.02
714.861	0.02
715.182	0.02
715.503	0.01
715.823	0.02
716.144	0.02
716.464	0.02
716.785	0.02
717.105	0.02
717.426	0.02
717.746	0.01
718.066	0.01
718.387	0.01
718.707	0.01
719.027	0.01
719.347	0
719.667	0.01
719.987	0.01
720.307	0
720.627	0
720.947	0.01
721.266	0.01
721.586	0.01
721.906	0.01
722.225	0.01
722.545	0.01
722.864	0.01
723.184	0.01
723.503	0.01
723.823	0.02
724.142	0.01
724.461	0.03
724.78	0.01
725.099	0.02
725.418	0.02
725.737	0.02
726.056	0.02
726.375	0.03
726.694	0.02
727.013	0.02
727.331	0.01
727.65	0.01
727.969	0.01
728.287	0.02
728.606	0.02
728.924	0.01
729.242	0.02
729.561	0.01
729.879	0.02
730.197	0.02
730.515	0.01
730.834	0.02
731.152	0.01
731.47	0.01
731.788	0.02
732.105	0.01
732.423	0.01
732.741	0.01
733.059	0.01
733.376	0.02
733.694	0.01
734.012	0.01
734.329	0.01
734.647	0.01
734.964	0.02
735.281	0.02
735.599	0.02
735.916	0.02
736.233	0.01
736.55	0.02
736.867	0.01
737.184	0.02
737.501	0.02
737.818	0.02
738.135	0.03
738.452	0.02
738.768	0.02
739.085	0.01
739.402	0.01
739.718	0.02
740.035	0.02
740.351	0.02
740.668	0.02
740.984	0.02
741.3	0.02
741.617	0.02
741.933	0.01
742.249	0.02
742.565	0.03
742.881	0.02
743.197	0.02
743.513	0.01
743.829	0
744.144	0.01
744.46	0.01
744.776	0.02
745.091	0.02
745.407	0.02
745.722	0.01
746.038	0.02
746.353	0
746.669	0.01
746.984	0.01
747.299	0.01
747.614	0.03
747.93	0.02
748.245	0.01
748.56	0.01
748.875	0.01
749.189	0.01
749.504	0.01
749.819	0.02
750.134	0.01
750.448	0.01
750.763	0.01
751.078	0
751.392	0.01
751.707	0.03
752.021	0.02
752.335	0.03
752.65	0.02
752.964	0.01
753.278	0.02
753.592	0.02
753.906	0.01
754.22	0.02
754.534	0.02
754.848	0.02
755.162	0.02
755.476	0.02
755.789	0.02
756.103	0.01
756.417	0.02
756.73	0.02
757.044	0.02
757.357	0.02
757.671	0.02
757.984	0.02
758.297	0.02
758.61	0.02
758.924	0.02
759.237	0.02
759.55	0.03
759.863	0.02
760.176	0.03
760.488	0.03
760.801	0.02
761.114	0.02
761.427	0.02
761.739	0.02
762.052	0.02
762.365	0.02
762.677	0.02
762.99	0.01
763.302	0.02
763.614	0.02
763.926	0.02
764.239	0.02
764.551	0.02
764.863	0.01
765.175	0.02
765.487	0.02
765.799	0.01
766.111	0.01
766.423	0.02
766.734	0.03
767.046	0.02
767.358	0.02
767.669	0.02
767.981	0.02
768.292	0.02
768.604	0.02
768.915	0.01
769.226	0.02
769.537	0.01
769.849	0.02
770.16	0.01
770.471	0.01
770.782	0.01
771.093	0.01
771.404	0
771.715	0.01
772.025	0
772.336	0.02
772.647	0
772.957	0.01
773.268	0.01
773.578	0.01
773.889	0.01
774.199	0.01
774.51	0.01
774.82	0.01
775.13	0.02
775.44	0.01
775.75	0.01
776.06	0.01
776.37	0.01
776.68	0.02
776.99	0.01
777.3	0.01
777.61	0.02
777.92	0.01
778.229	0.01
778.539	0.02
778.848	0.02
779.158	0.02
779.467	0.02
779.777	0.01
780.086	0.02
780.395	0.01
780.704	0.02
781.013	0.01
781.323	0.02
781.632	0.02
781.941	0.02
782.249	0.01
782.558	0.01
782.867	0.02
783.176	0.01
783.485	0.01
783.793	0.02
784.102	0.01
784.41	0.01
784.719	0.01
785.027	0.02
785.335	0.02
785.644	0.02
785.952	0.02
786.26	0.02
786.568	0.01
786.876	0.01
787.184	0.02
787.492	0.02
787.8	0.02
788.108	0.02
788.416	0.01
788.723	0.02
789.031	0.02
789.338	0.01
789.646	0.02
789.953	0.02
790.261	0.02
790.568	0.02
790.876	0.02
791.183	0.03
791.49	0.02
791.797	0.02
792.104	0.01
792.411	0.02
792.718	0.02
793.025	0.02
793.332	0.02
793.639	0.03
793.945	0.03
794.252	0.03
794.559	0.03
794.865	0.03
795.172	0.02
795.478	0.02
795.784	0.03
796.091	0.03
796.397	0.03
796.703	0.03
797.009	0.03
797.315	0.03
797.622	0.03
797.927	0.02
798.233	0.02
798.539	0.02
798.845	0.02
799.151	0.02
799.456	0.02
799.762	0.01
800.068	0.01
800.373	0.02
800.679	0.01
800.984	0.02
801.289	0.01
801.595	0.01
801.9	0.01
802.205	0.02
802.51	0.01
802.815	0.02
803.12	0.02
803.425	0.02
803.73	0.01
804.035	0.02
804.339	0.02
804.644	0.01
804.949	0.01
805.253	0.01
805.558	0.02
805.862	0.02
806.167	0.02
806.471	0.02
806.775	0.02
807.08	0.02
807.384	0.01
807.688	0.02
807.992	0.02
808.296	0.01
808.6	0.02
808.904	0.02
809.207	0.02
809.511	0.02
809.815	0.02
810.119	0.01
810.422	0.03
810.726	0.03
811.029	0.03
811.332	0.02
811.636	0.03
811.939	0.02
812.242	0.03
812.546	0.02
812.849	0.03
813.152	0.04
813.455	0.03
813.758	0.03
814.06	0.03
814.363	0.03
814.666	0.03
814.969	0.03
815.271	0.03
815.574	0.02
815.877	0.03
816.179	0.02
816.481	0.03
816.784	0.03
817.086	0.02
817.388	0.02
817.69	0.02
817.993	0.02
818.295	0.02
818.597	0.02
818.899	0.01
819.2	0.01
819.502	0.02
819.804	0.02
820.106	0.01
820.407	0.01
820.709	0.01
821.01	0.01
821.312	0.02
821.613	0
821.915	0
822.216	0.01
822.517	0.01
822.818	0.01
823.119	0.01
823.42	0.01
823.721	-0
824.022	-0
824.323	0
824.624	-0.01
824.925	0.01
825.226	0.01
825.526	0
825.827	0.01
826.127	0
826.428	0
826.728	0.01
827.028	-0
827.329	-0.01
827.629	-0
827.929	0.01
828.229	0.01
828.529	0
828.829	0
829.129	0
829.429	0
829.729	0
830.029	-0
830.328	0
830.628	-0
830.927	-0.01
831.227	-0
831.526	0
831.826	0
832.125	-0
832.424	-0
832.724	-0.01
833.023	-0.01
833.322	-0
833.621	-0
833.92	-0.02
834.219	-0.01
834.518	0
834.816	-0.02
835.115	-0.01
835.414	-0.01
835.712	-0.01
836.011	-0.01
836.309	-0.01
836.608	-0.02
836.906	-0.02
837.205	-0.02
837.503	-0.02
837.801	-0.02
838.099	-0.02
838.397	-0.03
838.695	-0.03
838.993	-0.03
839.291	-0.04
839.589	-0.04
839.887	-0.03
840.184	-0.04
840.482	-0.03
840.78	-0.03
841.077	-0.05
841.375	-0.04
841.672	-0.04
841.969	-0.05
842.267	-0.04
842.564	-0.04
842.861	-0.04
843.158	-0.04
843.455	-0.06
843.752	-0.05
844.049	-0.04
844.346	-0.05
844.643	-0.05
844.94	-0.05
845.236	-0.04
845.533	-0.05
845.83	-0.05
846.126	-0.05
846.423	-0.06
846.719	-0.06
847.015	-0.05
847.312	-0.07
847.608	-0.07
847.904	-0.07
848.2	-0.08
848.496	-0.07
848.792	-0.08
849.088	-0.07
849.384	-0.08
849.68	-0.09
849.975	-0.08
850.271	-0.1
850.567	-0.1
850.862	-0.1
851.158	-0.09
851.453	-0.09
851.748	-0.1
852.044	-0.1
852.339	-0.09
852.634	-0.11
852.929	-0.09
853.224	-0.11
853.519	-0.11
853.814	-0.1
854.109	-0.11
854.404	-0.11
854.699	-0.11
854.994	-0.11
855.288	-0.11
855.583	-0.1
855.877	-0.11
856.172	-0.11
856.466	-0.12
856.76	-0.11
857.055	-0.12
857.349	-0.12
857.643	-0.13
857.937	-0.13
858.231	-0.13
858.525	-0.13
858.819	-0.13
859.113	-0.14
859.407	-0.14
859.701	-0.14
859.994	-0.14
860.288	-0.13
860.581	-0.13
860.875	-0.13
861.168	-0.14
861.462	-0.14
861.755	-0.13
862.048	-0.14
862.341	-0.13
862.634	-0.13
862.928	-0.13
863.221	-0.13
863.513	-0.14
863.806	-0.14
864.099	-0.13
864.392	-0.14
864.685	-0.12
864.977	-0.13
865.27	-0.13
865.562	-0.12
865.855	-0.13
866.147	-0.14
866.44	-0.13
866.732	-0.14
867.024	-0.14
867.316	-0.15
867.608	-0.15
867.9	-0.15
868.192	-0.15
868.484	-0.15
868.776	-0.15
869.068	-0.14
869.359	-0.15
869.651	-0.16
869.943	-0.17
870.234	-0.15
870.526	-0.17
870.817	-0.16
871.108	-0.14
871.4	-0.14
871.691	-0.16
871.982	-0.16
872.273	-0.18
872.564	-0.16
872.855	-0.17
873.146	-0.17
873.437	-0.17
873.728	-0.18
874.019	-0.17
874.309	-0.16
874.6	-0.18
874.89	-0.18
875.181	-0.18
875.471	-0.16
875.762	-0.17
876.052	-0.17
876.342	-0.17
876.632	-0.17
876.922	-0.18
877.213	-0.18
877.503	-0.19
877.792	-0.18
878.082	-0.18
878.372	-0.17
878.662	-0.19
878.952	-0.18
879.241	-0.18
879.531	-0.18
879.82	-0.18
880.11	-0.17
880.399	-0.19
880.688	-0.17
880.978	-0.17
881.267	-0.17
