Data from 12-12-AQDScycling_Absorbance__739__00739.txt Node

Date: Tue Dec 12 14:01:29 EST 2023
User: kyuminlee
Spectrometer: FLMS00943
Trigger mode: 0
Integration Time (sec): 1.000000E-1
Scans to average: 1
Electric dark correction enabled: true
Nonlinearity correction enabled: false
Boxcar width: 0
XAxis mode: Wavelengths
Number of Pixels in Spectrum: 2048
>>>>>Begin Spectral Data<<<<<
179.651	0.26
180.037	0.26
180.424	0.26
180.81	0.28
181.197	0.04
181.583	-0
181.97	-0.29
182.356	-0
182.743	-0
183.129	0.27
183.515	0.45
183.901	-2.42
184.288	0.11
184.674	-0
185.06	-1.07
185.446	-0.72
185.832	-0.97
186.218	-0
186.604	-0
186.99	-0
187.376	-0.07
187.762	0.32
188.148	0.63
188.534	-0.2
188.92	0.09
189.305	0.05
189.691	0.16
190.077	0.17
190.463	0.25
190.848	0.15
191.234	0.24
191.619	0.1
192.005	0.08
192.391	0.1
192.776	0.11
193.161	0.11
193.547	0.18
193.932	0.12
194.318	0.05
194.703	0.21
195.088	0.12
195.473	0.18
195.859	0.26
196.244	0.23
196.629	0.16
197.014	0.19
197.399	0.24
197.784	0.16
198.169	0.08
198.554	0.28
198.939	0.06
199.324	-0.03
199.709	0.11
200.094	0.15
200.478	0.12
200.863	0.12
201.248	0.27
201.633	0.17
202.017	0.19
202.402	0.34
202.787	0.08
203.171	0.08
203.556	0.34
203.94	0.14
204.325	0.26
204.709	0.26
205.093	0.25
205.478	0.16
205.862	0.13
206.246	0.14
206.631	0.43
207.015	-0.01
207.399	0.18
207.783	0.26
208.167	0.2
208.551	0.19
208.935	0.18
209.319	0.08
209.703	0.1
210.087	0.3
210.471	0.12
210.855	0.16
211.239	0.35
211.623	0.31
212.007	0.43
212.39	0.3
212.774	0.16
213.158	0.14
213.541	0.23
213.925	0.27
214.309	0.19
214.692	0.31
215.076	0.23
215.459	0.27
215.842	0.19
216.226	0.13
216.609	0.33
216.993	0.22
217.376	0.58
217.759	0.26
218.142	0.3
218.525	0.56
218.909	0.24
219.292	0.41
219.675	0.38
220.058	0.51
220.441	0.52
220.824	0.51
221.207	0.7
221.59	0.55
221.973	0.57
222.355	0.63
222.738	0.75
223.121	0.58
223.504	0.51
223.886	0.79
224.269	0.74
224.652	0.57
225.034	0.86
225.417	0.88
225.799	0.84
226.182	0.85
226.564	0.84
226.947	0.73
227.329	0.85
227.711	1.03
228.094	1.09
228.476	1.07
228.858	0.81
229.24	0.91
229.623	0.88
230.005	0.86
230.387	0.91
230.769	0.7
231.151	0.91
231.533	0.87
231.915	1.08
232.297	1.09
232.679	0.97
233.061	1.26
233.442	1.09
233.824	1.04
234.206	1.02
234.588	0.99
234.969	1.14
235.351	1.02
235.733	0.99
236.114	1.26
236.496	1.07
236.877	1.13
237.259	1.03
237.64	0.99
238.022	0.93
238.403	1.01
238.784	0.98
239.165	1.01
239.547	1.08
239.928	1.13
240.309	1.05
240.69	1.07
241.071	1.15
241.452	1.21
241.834	1.03
242.215	1.14
242.595	0.99
242.976	1.1
243.357	1.31
243.738	1.01
244.119	1.27
244.5	1.05
244.881	1.06
245.261	1.26
245.642	1.1
246.023	1.14
246.403	1.17
246.784	1.21
247.164	1.17
247.545	1.28
247.925	1.39
248.306	1.22
248.686	1.3
249.067	1.28
249.447	1.41
249.827	1.48
250.207	1.46
250.588	1.34
250.968	1.45
251.348	1.24
251.728	1.42
252.108	1.36
252.488	1.36
252.868	1.31
253.248	1.35
253.628	1.35
254.008	1.46
254.388	1.3
254.768	1.23
255.147	1.35
255.527	1.32
255.907	1.3
256.287	1.37
256.666	1.51
257.046	1.35
257.425	1.47
257.805	1.3
258.184	1.36
258.564	1.35
258.943	1.44
259.323	1.64
259.702	1.44
260.081	1.4
260.461	1.53
260.84	1.46
261.219	1.7
261.598	1.49
261.977	1.41
262.356	1.44
262.736	1.42
263.115	1.52
263.494	1.41
263.873	1.38
264.251	1.51
264.63	1.55
265.009	1.55
265.388	1.59
265.767	1.29
266.145	1.38
266.524	1.37
266.903	1.46
267.281	1.29
267.66	1.71
268.039	1.4
268.417	1.46
268.796	1.5
269.174	1.42
269.552	1.39
269.931	1.51
270.309	1.36
270.687	1.65
271.066	1.51
271.444	1.41
271.822	1.51
272.2	1.35
272.578	1.45
272.956	1.41
273.334	1.34
273.712	1.37
274.09	1.31
274.468	1.28
274.846	1.31
275.224	1.36
275.602	1.43
275.98	1.51
276.357	1.42
276.735	1.46
277.113	1.42
277.49	1.3
277.868	1.41
278.246	1.54
278.623	1.37
279.001	1.44
279.378	1.32
279.756	1.31
280.133	1.68
280.51	1.37
280.888	1.53
281.265	1.42
281.642	1.61
282.019	1.53
282.396	1.48
282.773	1.45
283.151	1.48
283.528	1.59
283.905	1.41
284.282	1.49
284.659	1.46
285.035	1.27
285.412	1.4
285.789	1.64
286.166	1.5
286.543	1.5
286.919	1.62
287.296	1.42
287.673	1.59
288.049	1.49
288.426	1.66
288.802	1.46
289.179	1.66
289.555	1.8
289.932	1.48
290.308	1.44
290.684	1.41
291.061	1.38
291.437	1.59
291.813	1.45
292.189	1.31
292.565	1.38
292.942	1.41
293.318	1.4
293.694	1.54
294.07	1.41
294.446	1.44
294.822	1.65
295.197	1.47
295.573	1.45
295.949	1.4
296.325	1.67
296.701	1.52
297.076	1.58
297.452	1.6
297.828	1.46
298.203	1.6
298.579	1.56
298.954	1.42
299.33	1.51
299.705	1.55
300.081	1.69
300.456	1.73
300.831	1.48
301.206	1.55
301.582	1.45
301.957	1.53
302.332	1.54
302.707	1.41
303.082	1.43
303.457	1.51
303.832	1.47
304.207	1.39
304.582	1.42
304.957	1.58
305.332	1.55
305.707	1.58
306.082	1.53
306.456	1.59
306.831	1.56
307.206	1.43
307.58	1.62
307.955	1.5
308.33	1.51
308.704	1.45
309.079	1.43
309.453	1.55
309.828	1.51
310.202	1.44
310.576	1.46
310.951	1.56
311.325	1.59
311.699	1.45
312.073	1.49
312.447	1.53
312.821	1.48
313.196	1.51
313.57	1.41
313.944	1.51
314.317	1.47
314.691	1.58
315.065	1.62
315.439	1.62
315.813	1.46
316.187	1.49
316.56	1.6
316.934	1.7
317.308	1.4
317.681	1.48
318.055	1.44
318.428	1.58
318.802	1.62
319.175	1.55
319.549	1.55
319.922	1.39
320.295	1.43
320.669	1.54
321.042	1.58
321.415	1.69
321.788	1.46
322.162	1.45
322.535	1.63
322.908	1.56
323.281	1.49
323.654	1.78
324.027	1.44
324.4	1.72
324.773	1.75
325.145	1.54
325.518	1.34
325.891	1.51
326.264	1.59
326.636	1.43
327.009	1.41
327.382	1.51
327.754	1.72
328.127	1.49
328.499	1.57
328.872	1.53
329.244	1.66
329.616	1.4
329.989	1.48
330.361	1.7
330.733	1.4
331.106	1.52
331.478	1.6
331.85	1.47
332.222	1.55
332.594	1.61
332.966	1.71
333.338	1.83
333.71	1.58
334.082	1.7
334.454	1.48
334.826	1.55
335.197	1.58
335.569	1.51
335.941	1.39
336.312	1.55
336.684	1.52
337.056	1.45
337.427	1.63
337.799	1.58
338.17	1.58
338.542	1.43
338.913	1.49
339.284	1.52
339.656	1.43
340.027	1.6
340.398	1.52
340.769	1.69
341.141	1.79
341.512	1.47
341.883	1.57
342.254	1.54
342.625	1.55
342.996	1.56
343.367	1.66
343.738	1.54
344.108	1.49
344.479	1.49
344.85	1.47
345.221	1.6
345.591	1.53
345.962	1.4
346.333	1.4
346.703	1.32
347.074	1.35
347.444	1.35
347.815	1.46
348.185	1.44
348.556	1.36
348.926	1.42
349.296	1.33
349.666	1.33
350.037	1.38
350.407	1.26
350.777	1.31
351.147	1.37
351.517	1.45
351.887	1.38
352.257	1.6
352.627	1.36
352.997	1.32
353.367	1.36
353.737	1.38
354.106	1.37
354.476	1.33
354.846	1.4
355.216	1.36
355.585	1.41
355.955	1.32
356.324	1.4
356.694	1.36
357.063	1.33
357.433	1.3
357.802	1.32
358.171	1.36
358.541	1.26
358.91	1.29
359.279	1.26
359.648	1.25
360.017	1.37
360.387	1.32
360.756	1.22
361.125	1.26
361.494	1.26
361.863	1.15
362.231	1.16
362.6	1.21
362.969	1.19
363.338	1.22
363.707	1.27
364.075	1.24
364.444	1.13
364.813	1.15
365.181	1.15
365.55	1.16
365.918	1.2
366.287	1.16
366.655	1.12
367.024	1.16
367.392	1.16
367.76	1.14
368.128	1.1
368.497	1.08
368.865	1.11
369.233	1.1
369.601	1.15
369.969	1.07
370.337	1.1
370.705	1.13
371.073	1.18
371.441	1.15
371.809	1.1
372.177	1.07
372.544	1.13
372.912	1.08
373.28	1.09
373.647	1.13
374.015	1.09
374.383	1.14
374.75	1.14
375.118	1.11
375.485	1.11
375.853	1.13
376.22	1.11
376.587	1.1
376.955	1.14
377.322	1.07
377.689	1.1
378.056	1.09
378.423	1.08
378.79	1.09
379.157	1.15
379.524	1.09
379.891	1.13
380.258	1.15
380.625	1.08
380.992	1.14
381.359	1.11
381.726	1.18
382.092	1.14
382.459	1.18
382.826	1.17
383.192	1.16
383.559	1.15
383.925	1.16
384.292	1.12
384.658	1.21
385.025	1.23
385.391	1.26
385.757	1.2
386.123	1.18
386.49	1.16
386.856	1.2
387.222	1.31
387.588	1.21
387.954	1.3
388.32	1.28
388.686	1.24
389.052	1.22
389.418	1.23
389.784	1.2
390.15	1.34
390.515	1.17
390.881	1.29
391.247	1.2
391.613	1.24
391.978	1.3
392.344	1.26
392.709	1.23
393.075	1.28
393.44	1.24
393.806	1.23
394.171	1.19
394.536	1.18
394.902	1.21
395.267	1.16
395.632	1.22
395.997	1.21
396.362	1.25
396.727	1.23
397.092	1.22
397.457	1.21
397.822	1.21
398.187	1.14
398.552	1.23
398.917	1.15
399.282	1.09
399.646	1.12
400.011	1.2
400.376	1.11
400.74	1.13
401.105	1.13
401.47	1.1
401.834	1.13
402.199	1.12
402.563	1.11
402.927	1.07
403.292	1.1
403.656	1.12
404.02	1.06
404.384	1.11
404.749	1.1
405.113	1.07
405.477	1.1
405.841	1.03
406.205	1.03
406.569	1.02
406.933	1.01
407.296	1.04
407.66	1.04
408.024	1.01
408.388	1
408.752	1.04
409.115	1.02
409.479	0.98
409.842	0.98
410.206	0.98
410.569	0.98
410.933	0.96
411.296	0.92
411.66	0.98
412.023	0.93
412.386	0.93
412.749	0.92
413.113	0.96
413.476	0.9
413.839	0.89
414.202	0.93
414.565	0.89
414.928	0.88
415.291	0.96
415.654	0.89
416.017	0.89
416.38	0.88
416.742	0.84
417.105	0.85
417.468	0.88
417.83	0.87
418.193	0.9
418.556	0.85
418.918	0.85
419.281	0.85
419.643	0.87
420.005	0.84
420.368	0.87
420.73	0.84
421.092	0.85
421.455	0.83
421.817	0.84
422.179	0.83
422.541	0.83
422.903	0.83
423.265	0.84
423.627	0.81
423.989	0.82
424.351	0.8
424.713	0.83
425.075	0.83
425.436	0.79
425.798	0.8
426.16	0.83
426.521	0.79
426.883	0.8
427.245	0.81
427.606	0.81
427.967	0.81
428.329	0.79
428.69	0.8
429.052	0.8
429.413	0.78
429.774	0.79
430.135	0.78
430.497	0.78
430.858	0.78
431.219	0.78
431.58	0.76
431.941	0.76
432.302	0.75
432.663	0.77
433.024	0.79
433.384	0.77
433.745	0.78
434.106	0.76
434.467	0.75
434.827	0.75
435.188	0.77
435.548	0.77
435.909	0.74
436.269	0.75
436.63	0.72
436.99	0.73
437.351	0.74
437.711	0.76
438.071	0.74
438.431	0.71
438.792	0.72
439.152	0.7
439.512	0.7
439.872	0.69
440.232	0.73
440.592	0.72
440.952	0.71
441.312	0.68
441.671	0.68
442.031	0.69
442.391	0.68
442.751	0.69
443.11	0.68
443.47	0.67
443.83	0.66
444.189	0.66
444.549	0.65
444.908	0.65
445.267	0.66
445.627	0.64
445.986	0.63
446.345	0.63
446.705	0.64
447.064	0.64
447.423	0.61
447.782	0.62
448.141	0.63
448.5	0.59
448.859	0.62
449.218	0.61
449.577	0.6
449.936	0.61
450.295	0.6
450.653	0.6
451.012	0.58
451.371	0.59
451.729	0.6
452.088	0.6
452.447	0.6
452.805	0.59
453.163	0.58
453.522	0.58
453.88	0.57
454.239	0.58
454.597	0.55
454.955	0.54
455.313	0.55
455.671	0.54
456.029	0.54
456.388	0.52
456.746	0.53
457.104	0.54
457.461	0.52
457.819	0.52
458.177	0.51
458.535	0.51
458.893	0.5
459.25	0.51
459.608	0.49
459.966	0.48
460.323	0.48
460.681	0.47
461.038	0.47
461.396	0.46
461.753	0.45
462.111	0.46
462.468	0.44
462.825	0.45
463.182	0.45
463.54	0.44
463.897	0.44
464.254	0.42
464.611	0.43
464.968	0.41
465.325	0.42
465.682	0.41
466.039	0.41
466.395	0.4
466.752	0.4
467.109	0.4
467.466	0.4
467.822	0.39
468.179	0.38
468.535	0.37
468.892	0.38
469.248	0.36
469.605	0.36
469.961	0.37
470.318	0.38
470.674	0.36
471.03	0.35
471.386	0.36
471.743	0.35
472.099	0.34
472.455	0.34
472.811	0.33
473.167	0.33
473.523	0.32
473.879	0.31
474.235	0.32
474.59	0.31
474.946	0.32
475.302	0.3
475.657	0.3
476.013	0.3
476.369	0.29
476.724	0.29
477.08	0.3
477.435	0.29
477.791	0.28
478.146	0.28
478.501	0.28
478.857	0.28
479.212	0.27
479.567	0.26
479.922	0.26
480.277	0.26
480.632	0.25
480.987	0.25
481.342	0.25
481.697	0.24
482.052	0.25
482.407	0.24
482.762	0.24
483.116	0.23
483.471	0.23
483.826	0.22
484.18	0.22
484.535	0.22
484.89	0.22
485.244	0.22
485.598	0.22
485.953	0.22
486.307	0.21
486.661	0.22
487.016	0.21
487.37	0.21
487.724	0.2
488.078	0.2
488.432	0.2
488.786	0.2
489.14	0.2
489.494	0.19
489.848	0.19
490.202	0.19
490.556	0.19
490.91	0.19
491.263	0.19
491.617	0.19
491.971	0.19
492.324	0.18
492.678	0.19
493.031	0.18
493.385	0.18
493.738	0.18
494.091	0.18
494.445	0.18
494.798	0.18
495.151	0.18
495.504	0.17
495.857	0.17
496.21	0.18
496.564	0.17
496.916	0.18
497.269	0.16
497.622	0.16
497.975	0.17
498.328	0.16
498.681	0.16
499.033	0.16
499.386	0.16
499.739	0.16
500.091	0.15
500.444	0.16
500.796	0.16
501.149	0.15
501.501	0.15
501.854	0.15
502.206	0.15
502.558	0.15
502.91	0.15
503.263	0.16
503.615	0.15
503.967	0.15
504.319	0.15
504.671	0.15
505.023	0.15
505.375	0.15
505.726	0.15
506.078	0.15
506.43	0.15
506.782	0.15
507.133	0.15
507.485	0.15
507.837	0.16
508.188	0.14
508.54	0.15
508.891	0.15
509.243	0.15
509.594	0.15
509.945	0.15
510.296	0.14
510.648	0.15
510.999	0.14
511.35	0.14
511.701	0.14
512.052	0.15
512.403	0.15
512.754	0.14
513.105	0.14
513.456	0.14
513.807	0.13
514.157	0.14
514.508	0.15
514.859	0.14
515.209	0.14
515.56	0.15
515.91	0.14
516.261	0.15
516.611	0.14
516.962	0.15
517.312	0.15
517.662	0.14
518.013	0.14
518.363	0.15
518.713	0.15
519.063	0.15
519.413	0.15
519.763	0.14
520.113	0.14
520.463	0.15
520.813	0.15
521.163	0.15
521.512	0.15
521.862	0.14
522.212	0.15
522.562	0.15
522.911	0.15
523.261	0.15
523.61	0.15
523.96	0.15
524.309	0.15
524.658	0.15
525.008	0.15
525.357	0.15
525.706	0.15
526.056	0.15
526.405	0.15
526.754	0.14
527.103	0.14
527.452	0.15
527.801	0.15
528.15	0.15
528.499	0.15
528.847	0.15
529.196	0.16
529.545	0.16
529.893	0.16
530.242	0.15
530.591	0.16
530.939	0.16
531.288	0.16
531.636	0.16
531.985	0.16
532.333	0.15
532.681	0.15
533.029	0.15
533.378	0.15
533.726	0.15
534.074	0.16
534.422	0.15
534.77	0.16
535.118	0.16
535.466	0.15
535.814	0.15
536.162	0.16
536.509	0.16
536.857	0.15
537.205	0.16
537.552	0.16
537.9	0.16
538.248	0.15
538.595	0.16
538.943	0.16
539.29	0.16
539.637	0.16
539.985	0.16
540.332	0.16
540.679	0.15
541.026	0.15
541.373	0.17
541.721	0.15
542.068	0.15
542.415	0.15
542.762	0.15
543.108	0.15
543.455	0.15
543.802	0.15
544.149	0.15
544.496	0.15
544.842	0.15
545.189	0.14
545.535	0.14
545.882	0.14
546.228	0.14
546.575	0.14
546.921	0.14
547.267	0.14
547.614	0.15
547.96	0.15
548.306	0.14
548.652	0.15
548.998	0.15
549.344	0.14
549.69	0.15
550.036	0.15
550.382	0.14
550.728	0.15
551.074	0.15
551.42	0.16
551.765	0.15
552.111	0.16
552.457	0.17
552.802	0.15
553.148	0.15
553.493	0.15
553.839	0.16
554.184	0.16
554.529	0.15
554.875	0.16
555.22	0.16
555.565	0.15
555.91	0.15
556.255	0.17
556.6	0.16
556.945	0.15
557.29	0.16
557.635	0.16
557.98	0.16
558.325	0.16
558.67	0.16
559.014	0.15
559.359	0.16
559.704	0.16
560.048	0.15
560.393	0.15
560.737	0.14
561.082	0.15
561.426	0.14
561.77	0.16
562.115	0.15
562.459	0.15
562.803	0.16
563.147	0.16
563.491	0.16
563.835	0.16
564.179	0.16
564.523	0.15
564.867	0.15
565.211	0.15
565.555	0.16
565.899	0.16
566.242	0.16
566.586	0.15
566.93	0.16
567.273	0.16
567.617	0.16
567.96	0.16
568.304	0.16
568.647	0.16
568.99	0.16
569.334	0.16
569.677	0.16
570.02	0.17
570.363	0.16
570.706	0.16
571.049	0.16
571.392	0.16
571.735	0.16
572.078	0.17
572.421	0.17
572.764	0.16
573.106	0.16
573.449	0.16
573.792	0.16
574.134	0.16
574.477	0.16
574.819	0.16
575.162	0.16
575.504	0.16
575.847	0.15
576.189	0.16
576.531	0.15
576.873	0.15
577.215	0.16
577.558	0.16
577.9	0.15
578.242	0.16
578.584	0.16
578.926	0.16
579.267	0.16
579.609	0.15
579.951	0.16
580.293	0.16
580.634	0.16
580.976	0.16
581.318	0.15
581.659	0.16
582.001	0.16
582.342	0.15
582.683	0.16
583.025	0.14
583.366	0.15
583.707	0.16
584.049	0.16
584.39	0.15
584.731	0.15
585.072	0.15
585.413	0.16
585.754	0.16
586.095	0.15
586.435	0.15
586.776	0.16
587.117	0.15
587.458	0.16
587.798	0.15
588.139	0.16
588.48	0.15
588.82	0.15
589.161	0.15
589.501	0.15
589.841	0.15
590.182	0.16
590.522	0.16
590.862	0.15
591.202	0.16
591.542	0.15
591.882	0.15
592.222	0.16
592.562	0.16
592.902	0.15
593.242	0.15
593.582	0.16
593.922	0.15
594.261	0.15
594.601	0.14
594.941	0.15
595.28	0.15
595.62	0.15
595.959	0.15
596.299	0.15
596.638	0.15
596.977	0.15
597.317	0.16
597.656	0.16
597.995	0.16
598.334	0.16
598.673	0.15
599.012	0.16
599.351	0.16
599.69	0.16
600.029	0.16
600.368	0.16
600.707	0.16
601.046	0.16
601.384	0.17
601.723	0.17
602.061	0.16
602.4	0.15
602.738	0.16
603.077	0.15
603.415	0.15
603.754	0.15
604.092	0.15
604.43	0.15
604.768	0.16
605.107	0.16
605.445	0.15
605.783	0.15
606.121	0.15
606.459	0.15
606.796	0.15
607.134	0.15
607.472	0.15
607.81	0.16
608.148	0.15
608.485	0.16
608.823	0.15
609.16	0.15
609.498	0.15
609.835	0.15
610.173	0.15
610.51	0.15
610.847	0.15
611.185	0.15
611.522	0.15
611.859	0.15
612.196	0.15
612.533	0.16
612.87	0.16
613.207	0.15
613.544	0.16
613.881	0.17
614.217	0.17
614.554	0.16
614.891	0.16
615.228	0.16
615.564	0.16
615.901	0.16
616.237	0.17
616.574	0.16
616.91	0.17
617.246	0.16
617.583	0.16
617.919	0.17
618.255	0.17
618.591	0.16
618.927	0.16
619.263	0.17
619.599	0.16
619.935	0.16
620.271	0.16
620.607	0.16
620.943	0.15
621.279	0.16
621.614	0.15
621.95	0.16
622.286	0.16
622.621	0.16
622.957	0.15
623.292	0.15
623.627	0.15
623.963	0.16
624.298	0.15
624.633	0.15
624.968	0.15
625.304	0.15
625.639	0.15
625.974	0.15
626.309	0.15
626.644	0.14
626.979	0.16
627.313	0.15
627.648	0.15
627.983	0.15
628.318	0.15
628.652	0.15
628.987	0.14
629.321	0.15
629.656	0.14
629.99	0.14
630.325	0.14
630.659	0.14
630.993	0.15
631.327	0.14
631.662	0.13
631.996	0.13
632.33	0.14
632.664	0.14
632.998	0.13
633.332	0.14
633.666	0.14
633.999	0.14
634.333	0.13
634.667	0.14
635.001	0.13
635.334	0.13
635.668	0.14
636.001	0.13
636.335	0.13
636.668	0.14
637.001	0.13
637.335	0.13
637.668	0.14
638.001	0.13
638.334	0.13
638.668	0.13
639.001	0.13
639.334	0.13
639.667	0.13
639.999	0.13
640.332	0.13
640.665	0.13
640.998	0.13
641.331	0.14
641.663	0.14
641.996	0.13
642.328	0.13
642.661	0.14
642.993	0.13
643.326	0.14
643.658	0.13
643.99	0.13
644.323	0.13
644.655	0.14
644.987	0.14
645.319	0.14
645.651	0.14
645.983	0.14
646.315	0.13
646.647	0.14
646.979	0.15
647.31	0.14
647.642	0.13
647.974	0.14
648.305	0.14
648.637	0.13
648.968	0.13
649.3	0.14
649.631	0.14
649.963	0.13
650.294	0.13
650.625	0.12
650.957	0.14
651.288	0.13
651.619	0.14
651.95	0.14
652.281	0.14
652.612	0.13
652.943	0.14
653.274	0.14
653.604	0.13
653.935	0.13
654.266	0.14
654.596	0.13
654.927	0.13
655.258	0.14
655.588	0.14
655.918	0.14
656.249	0.12
656.579	0.13
656.909	0.13
657.24	0.13
657.57	0.13
657.9	0.13
658.23	0.13
658.56	0.13
658.89	0.13
659.22	0.12
659.55	0.13
659.88	0.13
660.209	0.13
660.539	0.13
660.869	0.14
661.198	0.13
661.528	0.13
661.857	0.12
662.187	0.13
662.516	0.13
662.846	0.12
663.175	0.12
663.504	0.12
663.833	0.12
664.163	0.13
664.492	0.12
664.821	0.13
665.15	0.12
665.479	0.13
665.807	0.12
666.136	0.13
666.465	0.12
666.794	0.13
667.122	0.12
667.451	0.13
667.78	0.14
668.108	0.13
668.437	0.12
668.765	0.13
669.093	0.14
669.422	0.13
669.75	0.13
670.078	0.13
670.406	0.13
670.734	0.13
671.062	0.13
671.39	0.13
671.718	0.13
672.046	0.13
672.374	0.12
672.702	0.12
673.029	0.12
673.357	0.12
673.685	0.13
674.012	0.12
674.34	0.12
674.667	0.13
674.995	0.12
675.322	0.13
675.649	0.12
675.977	0.12
676.304	0.12
676.631	0.13
676.958	0.12
677.285	0.12
677.612	0.12
677.939	0.12
678.266	0.12
678.593	0.12
678.92	0.12
679.246	0.12
679.573	0.12
679.9	0.11
680.226	0.11
680.553	0.12
680.879	0.12
681.206	0.12
681.532	0.12
681.858	0.11
682.184	0.12
682.511	0.12
682.837	0.12
683.163	0.12
683.489	0.12
683.815	0.12
684.141	0.13
684.467	0.12
684.793	0.12
685.118	0.12
685.444	0.11
685.77	0.12
686.095	0.12
686.421	0.11
686.746	0.12
687.072	0.11
687.397	0.11
687.723	0.12
688.048	0.12
688.373	0.11
688.698	0.11
689.023	0.11
689.349	0.12
689.674	0.11
689.999	0.1
690.323	0.1
690.648	0.1
690.973	0.1
691.298	0.1
691.623	0.1
691.947	0.1
692.272	0.11
692.596	0.11
692.921	0.11
693.245	0.11
693.57	0.11
693.894	0.11
694.218	0.11
694.543	0.1
694.867	0.11
695.191	0.11
695.515	0.12
695.839	0.1
696.163	0.11
696.487	0.12
696.811	0.11
697.135	0.11
697.458	0.11
697.782	0.11
698.106	0.11
698.429	0.11
698.753	0.11
699.076	0.1
699.4	0.11
699.723	0.11
700.046	0.1
700.37	0.11
700.693	0.11
701.016	0.11
701.339	0.11
701.662	0.11
701.985	0.11
702.308	0.1
702.631	0.11
702.954	0.11
703.277	0.1
703.599	0.1
703.922	0.1
704.245	0.1
704.567	0.1
704.89	0.1
705.212	0.1
705.535	0.09
705.857	0.09
706.179	0.09
706.502	0.09
706.824	0.09
707.146	0.09
707.468	0.1
707.79	0.1
708.112	0.1
708.434	0.1
708.756	0.09
709.078	0.1
709.399	0.09
709.721	0.09
710.043	0.1
710.364	0.1
710.686	0.1
711.007	0.1
711.329	0.1
711.65	0.1
711.972	0.1
712.293	0.1
712.614	0.11
712.935	0.1
713.256	0.11
713.577	0.1
713.898	0.09
714.219	0.1
714.54	0.1
714.861	0.09
715.182	0.09
715.503	0.09
715.823	0.1
716.144	0.09
716.464	0.09
716.785	0.09
717.105	0.09
717.426	0.09
717.746	0.09
718.066	0.08
718.387	0.09
718.707	0.08
719.027	0.09
719.347	0.08
719.667	0.09
719.987	0.08
720.307	0.07
720.627	0.08
720.947	0.09
721.266	0.08
721.586	0.08
721.906	0.08
722.225	0.08
722.545	0.09
722.864	0.08
723.184	0.09
723.503	0.08
723.823	0.1
724.142	0.08
724.461	0.08
724.78	0.09
725.099	0.09
725.418	0.08
725.737	0.09
726.056	0.09
726.375	0.09
726.694	0.08
727.013	0.09
727.331	0.07
727.65	0.08
727.969	0.08
728.287	0.09
728.606	0.08
728.924	0.07
729.242	0.08
729.561	0.08
729.879	0.08
730.197	0.08
730.515	0.07
730.834	0.08
731.152	0.08
731.47	0.08
731.788	0.08
732.105	0.08
732.423	0.09
732.741	0.08
733.059	0.09
733.376	0.09
733.694	0.08
734.012	0.08
734.329	0.09
734.647	0.08
734.964	0.09
735.281	0.09
735.599	0.09
735.916	0.09
736.233	0.08
736.55	0.08
736.867	0.08
737.184	0.09
737.501	0.08
737.818	0.09
738.135	0.09
738.452	0.08
738.768	0.09
739.085	0.08
739.402	0.08
739.718	0.08
740.035	0.08
740.351	0.08
740.668	0.09
740.984	0.08
741.3	0.08
741.617	0.08
741.933	0.08
742.249	0.08
742.565	0.08
742.881	0.09
743.197	0.08
743.513	0.08
743.829	0.07
744.144	0.08
744.46	0.08
744.776	0.08
745.091	0.08
745.407	0.08
745.722	0.07
746.038	0.07
746.353	0.07
746.669	0.06
746.984	0.07
747.299	0.07
747.614	0.07
747.93	0.08
748.245	0.06
748.56	0.07
748.875	0.07
749.189	0.07
749.504	0.06
749.819	0.07
750.134	0.07
750.448	0.07
750.763	0.07
751.078	0.06
751.392	0.06
751.707	0.07
752.021	0.07
752.335	0.08
752.65	0.08
752.964	0.07
753.278	0.07
753.592	0.08
753.906	0.07
754.22	0.08
754.534	0.08
754.848	0.06
755.162	0.07
755.476	0.08
755.789	0.07
756.103	0.07
756.417	0.07
756.73	0.07
757.044	0.07
757.357	0.07
757.671	0.07
757.984	0.07
758.297	0.08
758.61	0.08
758.924	0.07
759.237	0.06
759.55	0.07
759.863	0.07
760.176	0.07
760.488	0.07
760.801	0.07
761.114	0.07
761.427	0.06
761.739	0.06
762.052	0.06
762.365	0.06
762.677	0.07
762.99	0.06
763.302	0.07
763.614	0.07
763.926	0.06
764.239	0.07
764.551	0.06
764.863	0.06
765.175	0.07
765.487	0.06
765.799	0.06
766.111	0.06
766.423	0.06
766.734	0.06
767.046	0.06
767.358	0.06
767.669	0.06
767.981	0.07
768.292	0.07
768.604	0.07
768.915	0.06
769.226	0.06
769.537	0.06
769.849	0.07
770.16	0.06
770.471	0.06
770.782	0.06
771.093	0.07
771.404	0.05
771.715	0.06
772.025	0.06
772.336	0.07
772.647	0.06
772.957	0.06
773.268	0.07
773.578	0.06
773.889	0.07
774.199	0.07
774.51	0.07
774.82	0.07
775.13	0.07
775.44	0.07
775.75	0.07
776.06	0.07
776.37	0.06
776.68	0.07
776.99	0.07
777.3	0.06
777.61	0.08
777.92	0.06
778.229	0.06
778.539	0.06
778.848	0.07
779.158	0.07
779.467	0.08
779.777	0.06
780.086	0.06
780.395	0.05
780.704	0.06
781.013	0.05
781.323	0.05
781.632	0.06
781.941	0.06
782.249	0.06
782.558	0.06
782.867	0.06
783.176	0.05
783.485	0.06
783.793	0.05
784.102	0.06
784.41	0.06
784.719	0.05
785.027	0.06
785.335	0.05
785.644	0.06
785.952	0.05
786.26	0.06
786.568	0.05
786.876	0.04
787.184	0.05
787.492	0.06
787.8	0.05
788.108	0.07
788.416	0.05
788.723	0.06
789.031	0.05
789.338	0.06
789.646	0.05
789.953	0.06
790.261	0.06
790.568	0.06
790.876	0.05
791.183	0.06
791.49	0.05
791.797	0.06
792.104	0.05
792.411	0.06
792.718	0.06
793.025	0.06
793.332	0.06
793.639	0.07
793.945	0.07
794.252	0.06
794.559	0.06
794.865	0.07
795.172	0.06
795.478	0.06
795.784	0.07
796.091	0.06
796.397	0.07
796.703	0.06
797.009	0.07
797.315	0.07
797.622	0.07
797.927	0.06
798.233	0.06
798.539	0.07
798.845	0.07
799.151	0.07
799.456	0.07
799.762	0.06
800.068	0.07
800.373	0.08
800.679	0.07
800.984	0.07
801.289	0.07
801.595	0.06
801.9	0.06
802.205	0.06
802.51	0.06
802.815	0.07
803.12	0.07
803.425	0.07
803.73	0.06
804.035	0.06
804.339	0.06
804.644	0.06
804.949	0.07
805.253	0.06
805.558	0.06
805.862	0.06
806.167	0.06
806.471	0.06
806.775	0.06
807.08	0.06
807.384	0.06
807.688	0.06
807.992	0.06
808.296	0.06
808.6	0.06
808.904	0.06
809.207	0.06
809.511	0.07
809.815	0.07
810.119	0.06
810.422	0.07
810.726	0.07
811.029	0.07
811.332	0.07
811.636	0.07
811.939	0.06
812.242	0.07
812.546	0.07
812.849	0.07
813.152	0.07
813.455	0.07
813.758	0.07
814.06	0.07
814.363	0.07
814.666	0.08
814.969	0.07
815.271	0.07
815.574	0.06
815.877	0.07
816.179	0.06
816.481	0.06
816.784	0.07
817.086	0.06
817.388	0.05
817.69	0.05
817.993	0.05
818.295	0.06
818.597	0.05
818.899	0.04
819.2	0.05
819.502	0.05
819.804	0.06
820.106	0.05
820.407	0.05
820.709	0.05
821.01	0.05
821.312	0.05
821.613	0.04
821.915	0.04
822.216	0.04
822.517	0.05
822.818	0.04
823.119	0.05
823.42	0.05
823.721	0.04
824.022	0.04
824.323	0.05
824.624	0.05
824.925	0.05
825.226	0.04
825.526	0.04
825.827	0.05
826.127	0.05
826.428	0.05
826.728	0.04
827.028	0.04
827.329	0.04
827.629	0.04
827.929	0.03
828.229	0.04
828.529	0.05
828.829	0.04
829.129	0.04
829.429	0.04
829.729	0.03
830.029	0.04
830.328	0.04
830.628	0.03
830.927	0.04
831.227	0.03
831.526	0.04
831.826	0.04
832.125	0.04
832.424	0.03
832.724	0.04
833.023	0.04
833.322	0.04
833.621	0.03
833.92	0.02
834.219	0.03
834.518	0.03
834.816	0.02
835.115	0.03
835.414	0.03
835.712	0.02
836.011	0.02
836.309	0.02
836.608	0.01
836.906	0.01
837.205	0
837.503	0.01
837.801	0
838.099	0
838.397	-0.01
838.695	0
838.993	0
839.291	-0.01
839.589	0
839.887	-0
840.184	-0.01
840.482	-0.01
840.78	-0
841.077	-0.01
841.375	-0.01
841.672	-0
841.969	-0.01
842.267	-0.01
842.564	-0.01
842.861	-0
843.158	-0.01
843.455	-0.02
843.752	-0.02
844.049	-0.02
844.346	-0.02
844.643	-0.02
844.94	-0.02
845.236	-0
845.533	-0.02
845.83	-0
846.126	-0.02
846.423	-0.02
846.719	-0.03
847.015	-0.02
847.312	-0.03
847.608	-0.02
847.904	-0.03
848.2	-0.03
848.496	-0.03
848.792	-0.03
849.088	-0.02
849.384	-0.03
849.68	-0.03
849.975	-0.03
850.271	-0.04
850.567	-0.04
850.862	-0.04
851.158	-0.04
851.453	-0.04
851.748	-0.05
852.044	-0.04
852.339	-0.04
852.634	-0.06
852.929	-0.04
853.224	-0.06
853.519	-0.04
853.814	-0.05
854.109	-0.06
854.404	-0.06
854.699	-0.06
854.994	-0.05
855.288	-0.05
855.583	-0.05
855.877	-0.05
856.172	-0.06
856.466	-0.06
856.76	-0.06
857.055	-0.06
857.349	-0.07
857.643	-0.07
857.937	-0.08
858.231	-0.08
858.525	-0.09
858.819	-0.08
859.113	-0.1
859.407	-0.09
859.701	-0.1
859.994	-0.1
860.288	-0.08
860.581	-0.1
860.875	-0.1
861.168	-0.11
861.462	-0.11
861.755	-0.09
862.048	-0.1
862.341	-0.1
862.634	-0.11
862.928	-0.1
863.221	-0.1
863.513	-0.11
863.806	-0.11
864.099	-0.11
864.392	-0.11
864.685	-0.11
864.977	-0.1
865.27	-0.11
865.562	-0.11
865.855	-0.11
866.147	-0.11
866.44	-0.11
866.732	-0.12
867.024	-0.12
867.316	-0.12
867.608	-0.13
867.9	-0.13
868.192	-0.12
868.484	-0.12
868.776	-0.13
869.068	-0.11
869.359	-0.13
869.651	-0.13
869.943	-0.14
870.234	-0.13
870.526	-0.14
870.817	-0.14
871.108	-0.12
871.4	-0.14
871.691	-0.14
871.982	-0.14
872.273	-0.15
872.564	-0.15
872.855	-0.15
873.146	-0.15
873.437	-0.15
873.728	-0.16
874.019	-0.15
874.309	-0.15
874.6	-0.16
874.89	-0.15
875.181	-0.16
875.471	-0.15
875.762	-0.17
876.052	-0.16
876.342	-0.15
876.632	-0.16
876.922	-0.16
877.213	-0.16
877.503	-0.17
877.792	-0.16
878.082	-0.17
878.372	-0.16
878.662	-0.18
878.952	-0.17
879.241	-0.17
879.531	-0.16
879.82	-0.16
880.11	-0.17
880.399	-0.17
880.688	-0.15
880.978	-0.15
881.267	-0.15
