Data from 12-12-AQDScycling_Absorbance__745__00745.txt Node

Date: Tue Dec 12 14:02:59 EST 2023
User: kyuminlee
Spectrometer: FLMS00943
Trigger mode: 0
Integration Time (sec): 1.000000E-1
Scans to average: 1
Electric dark correction enabled: true
Nonlinearity correction enabled: false
Boxcar width: 0
XAxis mode: Wavelengths
Number of Pixels in Spectrum: 2048
>>>>>Begin Spectral Data<<<<<
179.651	-0.09
180.037	-0.09
180.424	-0.09
180.81	-0.36
181.197	0.23
181.583	-0
181.97	-0.16
182.356	-0
182.743	-0
183.129	0.25
183.515	-0
183.901	-2.66
184.288	-0
184.674	-0
185.06	-0
185.446	-0
185.832	-0
186.218	-0.21
186.604	-0
186.99	-0
187.376	-0
187.762	-0
188.148	0.21
188.534	-0.16
188.92	0.14
189.305	0.06
189.691	0.09
190.077	0.16
190.463	-0
190.848	-0.02
191.234	0.09
191.619	-0
192.005	0.31
192.391	0.11
192.776	0.23
193.161	0.06
193.547	0.07
193.932	0.13
194.318	0.01
194.703	0.17
195.088	0.25
195.473	0.24
195.859	0.24
196.244	0.26
196.629	0.23
197.014	0.05
197.399	0.17
197.784	0.15
198.169	0.03
198.554	0.32
198.939	0.06
199.324	0.11
199.709	0.1
200.094	0.17
200.478	0.1
200.863	0.13
201.248	0.25
201.633	0.22
202.017	0.16
202.402	0.29
202.787	-0.04
203.171	0.2
203.556	0.19
203.94	0.27
204.325	0.3
204.709	0.14
205.093	0.15
205.478	0.1
205.862	0.12
206.246	0.29
206.631	0.06
207.015	0.07
207.399	0.15
207.783	0.13
208.167	0.26
208.551	0.28
208.935	0.25
209.319	0.19
209.703	0.18
210.087	0.4
210.471	0.2
210.855	0.15
211.239	0.19
211.623	0.28
212.007	0.25
212.39	0.35
212.774	0.17
213.158	0.13
213.541	0.2
213.925	0.3
214.309	0.32
214.692	0.31
215.076	0.26
215.459	0.14
215.842	0.17
216.226	0.29
216.609	0.24
216.993	0.17
217.376	0.31
217.759	0.28
218.142	0.26
218.525	0.38
218.909	0.34
219.292	0.31
219.675	0.3
220.058	0.53
220.441	0.38
220.824	0.6
221.207	0.58
221.59	0.56
221.973	0.41
222.355	0.64
222.738	0.83
223.121	0.66
223.504	0.58
223.886	0.73
224.269	0.69
224.652	0.64
225.034	0.69
225.417	0.7
225.799	0.81
226.182	0.9
226.564	0.81
226.947	0.74
227.329	0.88
227.711	0.87
228.094	1.04
228.476	0.98
228.858	0.84
229.24	0.85
229.623	0.85
230.005	0.73
230.387	0.82
230.769	0.91
231.151	0.96
231.533	0.93
231.915	1
232.297	0.92
232.679	0.98
233.061	1.13
233.442	0.99
233.824	1.07
234.206	1.02
234.588	1.03
234.969	1.06
235.351	1.06
235.733	0.99
236.114	1.17
236.496	1.06
236.877	1.12
237.259	1.11
237.64	1.15
238.022	0.98
238.403	0.99
238.784	1.01
239.165	0.89
239.547	1.11
239.928	1.06
240.309	1.19
240.69	1.08
241.071	1.25
241.452	1.14
241.834	1.1
242.215	1.01
242.595	1.03
242.976	1.13
243.357	1.12
243.738	1.01
244.119	1.3
244.5	1.19
244.881	1.18
245.261	1.17
245.642	1.15
246.023	1.2
246.403	1.16
246.784	1.19
247.164	1.15
247.545	1.39
247.925	1.39
248.306	1.3
248.686	1.27
249.067	1.16
249.447	1.27
249.827	1.5
250.207	1.51
250.588	1.23
250.968	1.5
251.348	1.47
251.728	1.33
252.108	1.39
252.488	1.31
252.868	1.23
253.248	1.4
253.628	1.46
254.008	1.46
254.388	1.4
254.768	1.31
255.147	1.43
255.527	1.49
255.907	1.3
256.287	1.29
256.666	1.32
257.046	1.43
257.425	1.62
257.805	1.4
258.184	1.28
258.564	1.42
258.943	1.46
259.323	1.48
259.702	1.58
260.081	1.39
260.461	1.35
260.84	1.52
261.219	1.7
261.598	1.52
261.977	1.41
262.356	1.51
262.736	1.46
263.115	1.51
263.494	1.33
263.873	1.46
264.251	1.53
264.63	1.43
265.009	1.45
265.388	1.41
265.767	1.33
266.145	1.5
266.524	1.45
266.903	1.44
267.281	1.46
267.66	1.4
268.039	1.55
268.417	1.4
268.796	1.39
269.174	1.41
269.552	1.32
269.931	1.43
270.309	1.28
270.687	1.63
271.066	1.51
271.444	1.31
271.822	1.41
272.2	1.45
272.578	1.48
272.956	1.47
273.334	1.29
273.712	1.53
274.09	1.73
274.468	1.43
274.846	1.35
275.224	1.41
275.602	1.35
275.98	1.51
276.357	1.5
276.735	1.43
277.113	1.42
277.49	1.32
277.868	1.33
278.246	1.36
278.623	1.36
279.001	1.32
279.378	1.4
279.756	1.61
280.133	1.74
280.51	1.48
280.888	1.47
281.265	1.38
281.642	1.51
282.019	1.52
282.396	1.6
282.773	1.45
283.151	1.58
283.528	1.54
283.905	1.49
284.282	1.49
284.659	1.58
285.035	1.42
285.412	1.3
285.789	1.5
286.166	1.46
286.543	1.52
286.919	1.6
287.296	1.4
287.673	1.63
288.049	1.63
288.426	1.55
288.802	1.57
289.179	1.45
289.555	1.48
289.932	1.36
290.308	1.32
290.684	1.32
291.061	1.38
291.437	1.61
291.813	1.39
292.189	1.35
292.565	1.37
292.942	1.36
293.318	1.37
293.694	1.37
294.07	1.36
294.446	1.41
294.822	1.51
295.197	1.48
295.573	1.52
295.949	1.38
296.325	1.53
296.701	1.54
297.076	1.58
297.452	1.53
297.828	1.49
298.203	1.69
298.579	1.36
298.954	1.53
299.33	1.44
299.705	1.4
300.081	1.55
300.456	1.42
300.831	1.43
301.206	1.47
301.582	1.6
301.957	1.53
302.332	1.56
302.707	1.48
303.082	1.49
303.457	1.54
303.832	1.48
304.207	1.47
304.582	1.39
304.957	1.49
305.332	1.53
305.707	1.52
306.082	1.58
306.456	1.66
306.831	1.45
307.206	1.43
307.58	1.5
307.955	1.42
308.33	1.53
308.704	1.45
309.079	1.44
309.453	1.52
309.828	1.54
310.202	1.39
310.576	1.49
310.951	1.55
311.325	1.62
311.699	1.39
312.073	1.37
312.447	1.43
312.821	1.39
313.196	1.57
313.57	1.37
313.944	1.33
314.317	1.35
314.691	1.66
315.065	1.62
315.439	1.6
315.813	1.53
316.187	1.44
316.56	1.57
316.934	1.52
317.308	1.44
317.681	1.48
318.055	1.5
318.428	1.61
318.802	1.52
319.175	1.42
319.549	1.56
319.922	1.4
320.295	1.47
320.669	1.82
321.042	1.46
321.415	1.73
321.788	1.5
322.162	1.6
322.535	1.53
322.908	1.73
323.281	1.47
323.654	1.57
324.027	1.54
324.4	1.6
324.773	1.55
325.145	1.63
325.518	1.43
325.891	1.37
326.264	1.72
326.636	1.39
327.009	1.49
327.382	1.5
327.754	1.55
328.127	1.43
328.499	1.55
328.872	1.48
329.244	1.42
329.616	1.46
329.989	1.37
330.361	1.53
330.733	1.45
331.106	1.55
331.478	1.52
331.85	1.55
332.222	1.46
332.594	1.67
332.966	1.52
333.338	1.71
333.71	1.61
334.082	1.53
334.454	1.52
334.826	1.55
335.197	1.49
335.569	1.48
335.941	1.49
336.312	1.6
336.684	1.63
337.056	1.44
337.427	1.47
337.799	1.68
338.17	1.5
338.542	1.45
338.913	1.61
339.284	1.69
339.656	1.47
340.027	1.52
340.398	1.52
340.769	1.51
341.141	1.69
341.512	1.59
341.883	1.47
342.254	1.44
342.625	1.62
342.996	1.45
343.367	1.68
343.738	1.61
344.108	1.34
344.479	1.68
344.85	1.49
345.221	1.57
345.591	1.45
345.962	1.46
346.333	1.39
346.703	1.26
347.074	1.35
347.444	1.32
347.815	1.37
348.185	1.43
348.556	1.31
348.926	1.35
349.296	1.36
349.666	1.28
350.037	1.26
350.407	1.33
350.777	1.3
351.147	1.41
351.517	1.27
351.887	1.36
352.257	1.49
352.627	1.31
352.997	1.36
353.367	1.4
353.737	1.49
354.106	1.35
354.476	1.28
354.846	1.41
355.216	1.39
355.585	1.4
355.955	1.38
356.324	1.38
356.694	1.37
357.063	1.36
357.433	1.34
357.802	1.32
358.171	1.42
358.541	1.32
358.91	1.3
359.279	1.3
359.648	1.26
360.017	1.29
360.387	1.32
360.756	1.25
361.125	1.34
361.494	1.4
361.863	1.22
362.231	1.26
362.6	1.26
362.969	1.3
363.338	1.2
363.707	1.31
364.075	1.24
364.444	1.18
364.813	1.21
365.181	1.21
365.55	1.21
365.918	1.27
366.287	1.24
366.655	1.23
367.024	1.24
367.392	1.29
367.76	1.23
368.128	1.21
368.497	1.18
368.865	1.16
369.233	1.18
369.601	1.24
369.969	1.23
370.337	1.26
370.705	1.12
371.073	1.2
371.441	1.18
371.809	1.17
372.177	1.15
372.544	1.2
372.912	1.16
373.28	1.2
373.647	1.23
374.015	1.29
374.383	1.33
374.75	1.32
375.118	1.18
375.485	1.22
375.853	1.27
376.22	1.16
376.587	1.18
376.955	1.29
377.322	1.22
377.689	1.24
378.056	1.22
378.423	1.21
378.79	1.2
379.157	1.2
379.524	1.24
379.891	1.25
380.258	1.23
380.625	1.23
380.992	1.26
381.359	1.25
381.726	1.33
382.092	1.27
382.459	1.28
382.826	1.28
383.192	1.34
383.559	1.26
383.925	1.48
384.292	1.26
384.658	1.3
385.025	1.3
385.391	1.36
385.757	1.31
386.123	1.35
386.49	1.37
386.856	1.37
387.222	1.35
387.588	1.37
387.954	1.43
388.32	1.35
388.686	1.35
389.052	1.29
389.418	1.36
389.784	1.35
390.15	1.43
390.515	1.23
390.881	1.44
391.247	1.33
391.613	1.41
391.978	1.24
392.344	1.39
392.709	1.42
393.075	1.4
393.44	1.48
393.806	1.39
394.171	1.26
394.536	1.39
394.902	1.4
395.267	1.29
395.632	1.31
395.997	1.3
396.362	1.37
396.727	1.39
397.092	1.32
397.457	1.35
397.822	1.3
398.187	1.46
398.552	1.3
398.917	1.36
399.282	1.23
399.646	1.33
400.011	1.29
400.376	1.29
400.74	1.27
401.105	1.23
401.47	1.25
401.834	1.25
402.199	1.24
402.563	1.24
402.927	1.22
403.292	1.23
403.656	1.24
404.02	1.24
404.384	1.27
404.749	1.16
405.113	1.23
405.477	1.25
405.841	1.21
406.205	1.24
406.569	1.15
406.933	1.1
407.296	1.2
407.66	1.18
408.024	1.12
408.388	1.15
408.752	1.13
409.115	1.15
409.479	1.1
409.842	1.11
410.206	1.09
410.569	1.07
410.933	1.07
411.296	1.08
411.66	1.11
412.023	1.08
412.386	1.06
412.749	1.08
413.113	1.09
413.476	1.06
413.839	1.01
414.202	1.05
414.565	1.09
414.928	1.02
415.291	0.97
415.654	1.03
416.017	1.05
416.38	0.98
416.742	1
417.105	0.97
417.468	1
417.83	1.01
418.193	1.06
418.556	0.99
418.918	0.98
419.281	0.96
419.643	1.05
420.005	1.01
420.368	1
420.73	0.98
421.092	0.98
421.455	0.99
421.817	0.93
422.179	0.95
422.541	0.99
422.903	0.98
423.265	0.94
423.627	0.95
423.989	0.95
424.351	0.93
424.713	0.98
425.075	0.93
425.436	0.93
425.798	1
426.16	0.94
426.521	0.93
426.883	0.96
427.245	0.94
427.606	0.92
427.967	0.88
428.329	0.91
428.69	0.96
429.052	0.92
429.413	0.92
429.774	0.91
430.135	0.9
430.497	0.92
430.858	0.91
431.219	0.9
431.58	0.88
431.941	0.9
432.302	0.87
432.663	0.88
433.024	0.91
433.384	0.87
433.745	0.86
434.106	0.87
434.467	0.86
434.827	0.87
435.188	0.85
435.548	0.89
435.909	0.86
436.269	0.85
436.63	0.85
436.99	0.83
437.351	0.82
437.711	0.86
438.071	0.83
438.431	0.82
438.792	0.82
439.152	0.83
439.512	0.81
439.872	0.8
440.232	0.84
440.592	0.83
440.952	0.8
441.312	0.79
441.671	0.8
442.031	0.78
442.391	0.78
442.751	0.81
443.11	0.78
443.47	0.77
443.83	0.75
444.189	0.78
444.549	0.76
444.908	0.75
445.267	0.75
445.627	0.74
445.986	0.74
446.345	0.73
446.705	0.73
447.064	0.72
447.423	0.72
447.782	0.72
448.141	0.72
448.5	0.69
448.859	0.69
449.218	0.7
449.577	0.69
449.936	0.7
450.295	0.7
450.653	0.69
451.012	0.68
451.371	0.71
451.729	0.7
452.088	0.68
452.447	0.67
452.805	0.68
453.163	0.67
453.522	0.67
453.88	0.64
454.239	0.64
454.597	0.64
454.955	0.63
455.313	0.63
455.671	0.63
456.029	0.62
456.388	0.61
456.746	0.63
457.104	0.6
457.461	0.6
457.819	0.59
458.177	0.58
458.535	0.58
458.893	0.58
459.25	0.57
459.608	0.57
459.966	0.55
460.323	0.55
460.681	0.53
461.038	0.54
461.396	0.52
461.753	0.52
462.111	0.52
462.468	0.51
462.825	0.5
463.182	0.51
463.54	0.49
463.897	0.49
464.254	0.49
464.611	0.48
464.968	0.47
465.325	0.47
465.682	0.47
466.039	0.47
466.395	0.45
466.752	0.46
467.109	0.45
467.466	0.46
467.822	0.44
468.179	0.43
468.535	0.44
468.892	0.43
469.248	0.42
469.605	0.42
469.961	0.41
470.318	0.41
470.674	0.41
471.03	0.4
471.386	0.39
471.743	0.39
472.099	0.37
472.455	0.38
472.811	0.37
473.167	0.38
473.523	0.36
473.879	0.36
474.235	0.36
474.59	0.35
474.946	0.35
475.302	0.35
475.657	0.33
476.013	0.33
476.369	0.33
476.724	0.33
477.08	0.33
477.435	0.32
477.791	0.32
478.146	0.33
478.501	0.31
478.857	0.31
479.212	0.3
479.567	0.3
479.922	0.29
480.277	0.29
480.632	0.28
480.987	0.29
481.342	0.28
481.697	0.27
482.052	0.27
482.407	0.27
482.762	0.27
483.116	0.26
483.471	0.25
483.826	0.25
484.18	0.25
484.535	0.25
484.89	0.25
485.244	0.24
485.598	0.25
485.953	0.24
486.307	0.23
486.661	0.24
487.016	0.23
487.37	0.23
487.724	0.23
488.078	0.23
488.432	0.23
488.786	0.22
489.14	0.22
489.494	0.21
489.848	0.22
490.202	0.21
490.556	0.21
490.91	0.21
491.263	0.2
491.617	0.21
491.971	0.2
492.324	0.2
492.678	0.2
493.031	0.2
493.385	0.2
493.738	0.19
494.091	0.19
494.445	0.2
494.798	0.19
495.151	0.19
495.504	0.19
495.857	0.19
496.21	0.19
496.564	0.19
496.916	0.19
497.269	0.18
497.622	0.19
497.975	0.18
498.328	0.18
498.681	0.18
499.033	0.17
499.386	0.17
499.739	0.18
500.091	0.17
500.444	0.16
500.796	0.17
501.149	0.17
501.501	0.17
501.854	0.17
502.206	0.17
502.558	0.17
502.91	0.17
503.263	0.17
503.615	0.17
503.967	0.17
504.319	0.17
504.671	0.17
505.023	0.16
505.375	0.17
505.726	0.16
506.078	0.16
506.43	0.16
506.782	0.16
507.133	0.16
507.485	0.17
507.837	0.17
508.188	0.17
508.54	0.17
508.891	0.17
509.243	0.16
509.594	0.16
509.945	0.16
510.296	0.16
510.648	0.16
510.999	0.15
511.35	0.16
511.701	0.15
512.052	0.17
512.403	0.16
512.754	0.16
513.105	0.16
513.456	0.16
513.807	0.15
514.157	0.16
514.508	0.16
514.859	0.15
515.209	0.15
515.56	0.16
515.91	0.16
516.261	0.17
516.611	0.15
516.962	0.16
517.312	0.16
517.662	0.16
518.013	0.16
518.363	0.17
518.713	0.16
519.063	0.16
519.413	0.16
519.763	0.16
520.113	0.16
520.463	0.17
520.813	0.17
521.163	0.17
521.512	0.16
521.862	0.16
522.212	0.16
522.562	0.16
522.911	0.16
523.261	0.16
523.61	0.17
523.96	0.17
524.309	0.17
524.658	0.17
525.008	0.16
525.357	0.16
525.706	0.17
526.056	0.16
526.405	0.16
526.754	0.16
527.103	0.16
527.452	0.16
527.801	0.16
528.15	0.16
528.499	0.16
528.847	0.16
529.196	0.17
529.545	0.17
529.893	0.17
530.242	0.17
530.591	0.17
530.939	0.17
531.288	0.17
531.636	0.18
531.985	0.17
532.333	0.17
532.681	0.17
533.029	0.17
533.378	0.17
533.726	0.17
534.074	0.18
534.422	0.16
534.77	0.17
535.118	0.16
535.466	0.17
535.814	0.17
536.162	0.17
536.509	0.17
536.857	0.17
537.205	0.18
537.552	0.17
537.9	0.17
538.248	0.16
538.595	0.18
538.943	0.18
539.29	0.17
539.637	0.17
539.985	0.17
540.332	0.17
540.679	0.17
541.026	0.16
541.373	0.17
541.721	0.16
542.068	0.17
542.415	0.17
542.762	0.17
543.108	0.16
543.455	0.17
543.802	0.16
544.149	0.16
544.496	0.16
544.842	0.16
545.189	0.16
545.535	0.17
545.882	0.16
546.228	0.16
546.575	0.15
546.921	0.16
547.267	0.16
547.614	0.16
547.96	0.16
548.306	0.16
548.652	0.16
548.998	0.16
549.344	0.16
549.69	0.16
550.036	0.16
550.382	0.16
550.728	0.16
551.074	0.17
551.42	0.16
551.765	0.18
552.111	0.17
552.457	0.18
552.802	0.16
553.148	0.16
553.493	0.16
553.839	0.17
554.184	0.18
554.529	0.17
554.875	0.18
555.22	0.17
555.565	0.17
555.91	0.17
556.255	0.18
556.6	0.17
556.945	0.16
557.29	0.18
557.635	0.17
557.98	0.17
558.325	0.17
558.67	0.18
559.014	0.18
559.359	0.17
559.704	0.18
560.048	0.17
560.393	0.17
560.737	0.16
561.082	0.17
561.426	0.16
561.77	0.17
562.115	0.17
562.459	0.17
562.803	0.17
563.147	0.17
563.491	0.17
563.835	0.17
564.179	0.17
564.523	0.16
564.867	0.16
565.211	0.17
565.555	0.17
565.899	0.18
566.242	0.17
566.586	0.16
566.93	0.17
567.273	0.18
567.617	0.17
567.96	0.17
568.304	0.18
568.647	0.17
568.99	0.17
569.334	0.18
569.677	0.17
570.02	0.18
570.363	0.18
570.706	0.17
571.049	0.18
571.392	0.18
571.735	0.18
572.078	0.17
572.421	0.18
572.764	0.18
573.106	0.18
573.449	0.17
573.792	0.17
574.134	0.18
574.477	0.18
574.819	0.17
575.162	0.17
575.504	0.17
575.847	0.18
576.189	0.17
576.531	0.18
576.873	0.18
577.215	0.18
577.558	0.17
577.9	0.16
578.242	0.18
578.584	0.17
578.926	0.18
579.267	0.17
579.609	0.17
579.951	0.17
580.293	0.18
580.634	0.18
580.976	0.18
581.318	0.18
581.659	0.17
582.001	0.18
582.342	0.17
582.683	0.18
583.025	0.17
583.366	0.17
583.707	0.17
584.049	0.17
584.39	0.17
584.731	0.17
585.072	0.17
585.413	0.18
585.754	0.17
586.095	0.17
586.435	0.17
586.776	0.18
587.117	0.17
587.458	0.17
587.798	0.17
588.139	0.18
588.48	0.16
588.82	0.16
589.161	0.17
589.501	0.17
589.841	0.17
590.182	0.16
590.522	0.17
590.862	0.17
591.202	0.17
591.542	0.16
591.882	0.17
592.222	0.17
592.562	0.16
592.902	0.17
593.242	0.16
593.582	0.17
593.922	0.17
594.261	0.16
594.601	0.17
594.941	0.17
595.28	0.17
595.62	0.17
595.959	0.17
596.299	0.16
596.638	0.17
596.977	0.17
597.317	0.17
597.656	0.17
597.995	0.17
598.334	0.17
598.673	0.17
599.012	0.17
599.351	0.17
599.69	0.17
600.029	0.17
600.368	0.18
600.707	0.18
601.046	0.17
601.384	0.18
601.723	0.18
602.061	0.17
602.4	0.18
602.738	0.18
603.077	0.18
603.415	0.17
603.754	0.18
604.092	0.17
604.43	0.17
604.768	0.17
605.107	0.17
605.445	0.17
605.783	0.17
606.121	0.16
606.459	0.16
606.796	0.17
607.134	0.16
607.472	0.17
607.81	0.17
608.148	0.17
608.485	0.17
608.823	0.17
609.16	0.16
609.498	0.16
609.835	0.16
610.173	0.17
610.51	0.17
610.847	0.17
611.185	0.17
611.522	0.17
611.859	0.17
612.196	0.17
612.533	0.16
612.87	0.17
613.207	0.18
613.544	0.17
613.881	0.18
614.217	0.17
614.554	0.18
614.891	0.17
615.228	0.17
615.564	0.18
615.901	0.18
616.237	0.17
616.574	0.17
616.91	0.17
617.246	0.18
617.583	0.18
617.919	0.18
618.255	0.18
618.591	0.17
618.927	0.18
619.263	0.18
619.599	0.17
619.935	0.17
620.271	0.18
620.607	0.17
620.943	0.17
621.279	0.18
621.614	0.17
621.95	0.18
622.286	0.17
622.621	0.16
622.957	0.17
623.292	0.17
623.627	0.17
623.963	0.16
624.298	0.17
624.633	0.17
624.968	0.17
625.304	0.16
625.639	0.17
625.974	0.16
626.309	0.16
626.644	0.16
626.979	0.17
627.313	0.16
627.648	0.16
627.983	0.16
628.318	0.16
628.652	0.16
628.987	0.16
629.321	0.16
629.656	0.16
629.99	0.15
630.325	0.16
630.659	0.16
630.993	0.15
631.327	0.15
631.662	0.15
631.996	0.15
632.33	0.15
632.664	0.15
632.998	0.15
633.332	0.15
633.666	0.15
633.999	0.15
634.333	0.15
634.667	0.15
635.001	0.14
635.334	0.14
635.668	0.15
636.001	0.15
636.335	0.15
636.668	0.15
637.001	0.15
637.335	0.14
637.668	0.15
638.001	0.14
638.334	0.14
638.668	0.14
639.001	0.15
639.334	0.14
639.667	0.15
639.999	0.14
640.332	0.15
640.665	0.15
640.998	0.15
641.331	0.15
641.663	0.15
641.996	0.14
642.328	0.15
642.661	0.15
642.993	0.15
643.326	0.15
643.658	0.14
643.99	0.14
644.323	0.14
644.655	0.14
644.987	0.15
645.319	0.15
645.651	0.15
645.983	0.15
646.315	0.15
646.647	0.15
646.979	0.16
647.31	0.16
647.642	0.15
647.974	0.15
648.305	0.15
648.637	0.15
648.968	0.15
649.3	0.14
649.631	0.15
649.963	0.14
650.294	0.15
650.625	0.14
650.957	0.15
651.288	0.15
651.619	0.15
651.95	0.15
652.281	0.14
652.612	0.15
652.943	0.15
653.274	0.15
653.604	0.15
653.935	0.15
654.266	0.15
654.596	0.14
654.927	0.14
655.258	0.15
655.588	0.15
655.918	0.14
656.249	0.13
656.579	0.14
656.909	0.14
657.24	0.13
657.57	0.15
657.9	0.15
658.23	0.14
658.56	0.15
658.89	0.14
659.22	0.14
659.55	0.14
659.88	0.14
660.209	0.14
660.539	0.15
660.869	0.14
661.198	0.14
661.528	0.14
661.857	0.14
662.187	0.14
662.516	0.14
662.846	0.13
663.175	0.14
663.504	0.13
663.833	0.13
664.163	0.14
664.492	0.14
664.821	0.14
665.15	0.13
665.479	0.14
665.807	0.13
666.136	0.13
666.465	0.13
666.794	0.14
667.122	0.14
667.451	0.13
667.78	0.14
668.108	0.14
668.437	0.14
668.765	0.14
669.093	0.14
669.422	0.15
669.75	0.14
670.078	0.14
670.406	0.14
670.734	0.14
671.062	0.13
671.39	0.13
671.718	0.14
672.046	0.13
672.374	0.13
672.702	0.13
673.029	0.13
673.357	0.14
673.685	0.14
674.012	0.13
674.34	0.13
674.667	0.14
674.995	0.14
675.322	0.13
675.649	0.13
675.977	0.13
676.304	0.13
676.631	0.13
676.958	0.13
677.285	0.13
677.612	0.13
677.939	0.13
678.266	0.13
678.593	0.12
678.92	0.13
679.246	0.12
679.573	0.13
679.9	0.13
680.226	0.13
680.553	0.12
680.879	0.13
681.206	0.13
681.532	0.13
681.858	0.13
682.184	0.12
682.511	0.13
682.837	0.12
683.163	0.13
683.489	0.13
683.815	0.13
684.141	0.13
684.467	0.13
684.793	0.12
685.118	0.12
685.444	0.13
685.77	0.13
686.095	0.12
686.421	0.13
686.746	0.13
687.072	0.12
687.397	0.12
687.723	0.12
688.048	0.12
688.373	0.12
688.698	0.12
689.023	0.12
689.349	0.12
689.674	0.12
689.999	0.12
690.323	0.11
690.648	0.11
690.973	0.1
691.298	0.11
691.623	0.11
691.947	0.11
692.272	0.11
692.596	0.12
692.921	0.12
693.245	0.11
693.57	0.12
693.894	0.12
694.218	0.12
694.543	0.11
694.867	0.11
695.191	0.11
695.515	0.12
695.839	0.11
696.163	0.11
696.487	0.12
696.811	0.11
697.135	0.12
697.458	0.12
697.782	0.12
698.106	0.12
698.429	0.12
698.753	0.12
699.076	0.12
699.4	0.12
699.723	0.11
700.046	0.12
700.37	0.12
700.693	0.12
701.016	0.11
701.339	0.12
701.662	0.13
701.985	0.12
702.308	0.11
702.631	0.11
702.954	0.12
703.277	0.11
703.599	0.11
703.922	0.11
704.245	0.11
704.567	0.1
704.89	0.1
705.212	0.11
705.535	0.1
705.857	0.11
706.179	0.1
706.502	0.1
706.824	0.1
707.146	0.1
707.468	0.1
707.79	0.1
708.112	0.11
708.434	0.1
708.756	0.11
709.078	0.11
709.399	0.1
709.721	0.1
710.043	0.1
710.364	0.11
710.686	0.1
711.007	0.11
711.329	0.11
711.65	0.1
711.972	0.1
712.293	0.11
712.614	0.11
712.935	0.11
713.256	0.11
713.577	0.11
713.898	0.1
714.219	0.1
714.54	0.1
714.861	0.1
715.182	0.1
715.503	0.09
715.823	0.11
716.144	0.09
716.464	0.09
716.785	0.1
717.105	0.09
717.426	0.1
717.746	0.09
718.066	0.09
718.387	0.09
718.707	0.09
719.027	0.1
719.347	0.08
719.667	0.1
719.987	0.09
720.307	0.09
720.627	0.09
720.947	0.09
721.266	0.09
721.586	0.09
721.906	0.09
722.225	0.09
722.545	0.08
722.864	0.09
723.184	0.1
723.503	0.09
723.823	0.1
724.142	0.09
724.461	0.09
724.78	0.09
725.099	0.09
725.418	0.09
725.737	0.09
726.056	0.1
726.375	0.09
726.694	0.09
727.013	0.09
727.331	0.08
727.65	0.09
727.969	0.09
728.287	0.09
728.606	0.09
728.924	0.08
729.242	0.09
729.561	0.08
729.879	0.08
730.197	0.09
730.515	0.08
730.834	0.08
731.152	0.09
731.47	0.08
731.788	0.09
732.105	0.08
732.423	0.09
732.741	0.09
733.059	0.09
733.376	0.09
733.694	0.09
734.012	0.09
734.329	0.09
734.647	0.1
734.964	0.1
735.281	0.1
735.599	0.09
735.916	0.09
736.233	0.09
736.55	0.08
736.867	0.09
737.184	0.09
737.501	0.08
737.818	0.09
738.135	0.1
738.452	0.09
738.768	0.09
739.085	0.09
739.402	0.08
739.718	0.09
740.035	0.09
740.351	0.08
740.668	0.09
740.984	0.08
741.3	0.08
741.617	0.08
741.933	0.08
742.249	0.08
742.565	0.08
742.881	0.09
743.197	0.09
743.513	0.08
743.829	0.09
744.144	0.08
744.46	0.07
744.776	0.09
745.091	0.08
745.407	0.08
745.722	0.08
746.038	0.08
746.353	0.07
746.669	0.08
746.984	0.07
747.299	0.07
747.614	0.08
747.93	0.08
748.245	0.07
748.56	0.07
748.875	0.07
749.189	0.07
749.504	0.08
749.819	0.08
750.134	0.07
750.448	0.07
750.763	0.06
751.078	0.06
751.392	0.07
751.707	0.08
752.021	0.07
752.335	0.08
752.65	0.08
752.964	0.08
753.278	0.07
753.592	0.07
753.906	0.07
754.22	0.08
754.534	0.08
754.848	0.08
755.162	0.07
755.476	0.08
755.789	0.08
756.103	0.07
756.417	0.08
756.73	0.07
757.044	0.08
757.357	0.07
757.671	0.08
757.984	0.08
758.297	0.08
758.61	0.07
758.924	0.07
759.237	0.07
759.55	0.07
759.863	0.07
760.176	0.08
760.488	0.08
760.801	0.07
761.114	0.07
761.427	0.07
761.739	0.07
762.052	0.07
762.365	0.07
762.677	0.07
762.99	0.06
763.302	0.07
763.614	0.07
763.926	0.08
764.239	0.07
764.551	0.06
764.863	0.07
765.175	0.07
765.487	0.07
765.799	0.06
766.111	0.07
766.423	0.06
766.734	0.06
767.046	0.06
767.358	0.07
767.669	0.07
767.981	0.07
768.292	0.06
768.604	0.07
768.915	0.07
769.226	0.07
769.537	0.05
769.849	0.07
770.16	0.06
770.471	0.05
770.782	0.07
771.093	0.06
771.404	0.05
771.715	0.06
772.025	0.06
772.336	0.07
772.647	0.06
772.957	0.07
773.268	0.06
773.578	0.06
773.889	0.07
774.199	0.06
774.51	0.06
774.82	0.06
775.13	0.06
775.44	0.06
775.75	0.07
776.06	0.06
776.37	0.07
776.68	0.07
776.99	0.07
777.3	0.07
777.61	0.07
777.92	0.07
778.229	0.07
778.539	0.07
778.848	0.07
779.158	0.08
779.467	0.07
779.777	0.06
780.086	0.08
780.395	0.06
780.704	0.06
781.013	0.05
781.323	0.05
781.632	0.06
781.941	0.07
782.249	0.06
782.558	0.06
782.867	0.07
783.176	0.05
783.485	0.05
783.793	0.06
784.102	0.06
784.41	0.05
784.719	0.06
785.027	0.06
785.335	0.06
785.644	0.06
785.952	0.06
786.26	0.06
786.568	0.06
786.876	0.06
787.184	0.06
787.492	0.05
787.8	0.06
788.108	0.06
788.416	0.06
788.723	0.06
789.031	0.05
789.338	0.06
789.646	0.06
789.953	0.07
790.261	0.07
790.568	0.06
790.876	0.06
791.183	0.07
791.49	0.06
791.797	0.07
792.104	0.06
792.411	0.07
792.718	0.06
793.025	0.06
793.332	0.06
793.639	0.06
793.945	0.07
794.252	0.06
794.559	0.06
794.865	0.07
795.172	0.06
795.478	0.06
795.784	0.07
796.091	0.06
796.397	0.07
796.703	0.07
797.009	0.08
797.315	0.07
797.622	0.06
797.927	0.06
798.233	0.06
798.539	0.07
798.845	0.08
799.151	0.07
799.456	0.07
799.762	0.06
800.068	0.06
800.373	0.07
800.679	0.06
800.984	0.07
801.289	0.07
801.595	0.06
801.9	0.06
802.205	0.07
802.51	0.06
802.815	0.07
803.12	0.07
803.425	0.06
803.73	0.06
804.035	0.07
804.339	0.06
804.644	0.06
804.949	0.07
805.253	0.06
805.558	0.06
805.862	0.06
806.167	0.06
806.471	0.06
806.775	0.06
807.08	0.07
807.384	0.06
807.688	0.06
807.992	0.07
808.296	0.06
808.6	0.07
808.904	0.07
809.207	0.07
809.511	0.07
809.815	0.06
810.119	0.06
810.422	0.07
810.726	0.08
811.029	0.08
811.332	0.06
811.636	0.07
811.939	0.07
812.242	0.07
812.546	0.07
812.849	0.07
813.152	0.07
813.455	0.07
813.758	0.07
814.06	0.07
814.363	0.07
814.666	0.07
814.969	0.07
815.271	0.07
815.574	0.06
815.877	0.07
816.179	0.06
816.481	0.06
816.784	0.07
817.086	0.06
817.388	0.05
817.69	0.05
817.993	0.05
818.295	0.05
818.597	0.06
818.899	0.05
819.2	0.05
819.502	0.05
819.804	0.05
820.106	0.05
820.407	0.05
820.709	0.05
821.01	0.05
821.312	0.06
821.613	0.04
821.915	0.05
822.216	0.05
822.517	0.04
822.818	0.05
823.119	0.05
823.42	0.05
823.721	0.04
824.022	0.04
824.323	0.05
824.624	0.05
824.925	0.05
825.226	0.06
825.526	0.04
825.827	0.05
826.127	0.05
826.428	0.04
826.728	0.04
827.028	0.04
827.329	0.05
827.629	0.03
827.929	0.03
828.229	0.04
828.529	0.05
828.829	0.05
829.129	0.05
829.429	0.04
829.729	0.04
830.029	0.04
830.328	0.04
830.628	0.03
830.927	0.03
831.227	0.03
831.526	0.04
831.826	0.04
832.125	0.03
832.424	0.03
832.724	0.04
833.023	0.04
833.322	0.03
833.621	0.03
833.92	0.02
834.219	0.03
834.518	0.03
834.816	0.02
835.115	0.04
835.414	0.02
835.712	0.02
836.011	0.02
836.309	0.02
836.608	0.02
836.906	0.01
837.205	0.01
837.503	0.01
837.801	0.01
838.099	0
838.397	0
838.695	0
838.993	0
839.291	-0
839.589	0
839.887	-0
840.184	-0
840.482	-0.01
840.78	0
841.077	-0
841.375	-0
841.672	0
841.969	-0
842.267	-0.01
842.564	-0.01
842.861	-0.01
843.158	-0.01
843.455	-0.02
843.752	-0.02
844.049	-0.01
844.346	-0.01
844.643	-0.03
844.94	-0.02
845.236	-0.01
845.533	-0.02
845.83	-0.01
846.126	-0.02
846.423	-0.01
846.719	-0.03
847.015	-0.02
847.312	-0.02
847.608	-0.02
847.904	-0.03
848.2	-0.03
848.496	-0.03
848.792	-0.03
849.088	-0.02
849.384	-0.03
849.68	-0.04
849.975	-0.03
850.271	-0.04
850.567	-0.04
850.862	-0.04
851.158	-0.04
851.453	-0.04
851.748	-0.06
852.044	-0.05
852.339	-0.04
852.634	-0.05
852.929	-0.04
853.224	-0.05
853.519	-0.06
853.814	-0.05
854.109	-0.06
854.404	-0.05
854.699	-0.05
854.994	-0.04
855.288	-0.04
855.583	-0.05
855.877	-0.06
856.172	-0.06
856.466	-0.06
856.76	-0.06
857.055	-0.07
857.349	-0.07
857.643	-0.07
857.937	-0.08
858.231	-0.08
858.525	-0.08
858.819	-0.08
859.113	-0.09
859.407	-0.09
859.701	-0.1
859.994	-0.09
860.288	-0.08
860.581	-0.1
860.875	-0.09
861.168	-0.11
861.462	-0.1
861.755	-0.09
862.048	-0.1
862.341	-0.1
862.634	-0.1
862.928	-0.11
863.221	-0.1
863.513	-0.1
863.806	-0.11
864.099	-0.1
864.392	-0.11
864.685	-0.1
864.977	-0.11
865.27	-0.11
865.562	-0.11
865.855	-0.1
866.147	-0.12
866.44	-0.11
866.732	-0.12
867.024	-0.12
867.316	-0.12
867.608	-0.12
867.9	-0.12
868.192	-0.13
868.484	-0.12
868.776	-0.12
869.068	-0.12
869.359	-0.13
869.651	-0.12
869.943	-0.13
870.234	-0.14
870.526	-0.14
870.817	-0.14
871.108	-0.13
871.4	-0.14
871.691	-0.14
871.982	-0.14
872.273	-0.16
872.564	-0.15
872.855	-0.14
873.146	-0.15
873.437	-0.14
873.728	-0.16
874.019	-0.16
874.309	-0.15
874.6	-0.16
874.89	-0.15
875.181	-0.16
875.471	-0.15
875.762	-0.15
876.052	-0.15
876.342	-0.14
876.632	-0.16
876.922	-0.16
877.213	-0.17
877.503	-0.18
877.792	-0.16
878.082	-0.17
878.372	-0.16
878.662	-0.18
878.952	-0.17
879.241	-0.17
879.531	-0.17
879.82	-0.17
880.11	-0.17
880.399	-0.17
880.688	-0.15
880.978	-0.15
881.267	-0.15
