Data from 12-12-AQDScycling_Absorbance__236__00236.txt Node

Date: Tue Dec 12 11:55:44 EST 2023
User: kyuminlee
Spectrometer: FLMS00943
Trigger mode: 0
Integration Time (sec): 1.000000E-1
Scans to average: 1
Electric dark correction enabled: true
Nonlinearity correction enabled: false
Boxcar width: 0
XAxis mode: Wavelengths
Number of Pixels in Spectrum: 2048
>>>>>Begin Spectral Data<<<<<
179.651	-0
180.037	-0
180.424	-0
180.81	-0
181.197	-0
181.583	0.73
181.97	-0.2
182.356	-0.93
182.743	-0
183.129	-0
183.515	0.16
183.901	-2.21
184.288	-0.15
184.674	-0
185.06	-0
185.446	-0.06
185.832	-0.62
186.218	-0.07
186.604	-0
186.99	-0
187.376	-0
187.762	-0.13
188.148	0.45
188.534	0.09
188.92	0.04
189.305	0.01
189.691	0.36
190.077	0.13
190.463	0.11
190.848	-0.04
191.234	0.07
191.619	-0.08
192.005	0.02
192.391	0.1
192.776	0.02
193.161	0.04
193.547	0.06
193.932	0.03
194.318	0.03
194.703	0.14
195.088	0.22
195.473	0.11
195.859	0.13
196.244	0.24
196.629	-0.03
197.014	0.13
197.399	0.16
197.784	0.13
198.169	0.15
198.554	0.24
198.939	0.15
199.324	0.12
199.709	-0.04
200.094	0.07
200.478	0.1
200.863	0.12
201.248	0.2
201.633	0.19
202.017	0.03
202.402	0.21
202.787	-0.02
203.171	0.03
203.556	0.17
203.94	0.2
204.325	0.12
204.709	0.13
205.093	0
205.478	0.28
205.862	-0.01
206.246	0.12
206.631	0.17
207.015	-0.01
207.399	0.28
207.783	0.01
208.167	0.09
208.551	0.29
208.935	0.12
209.319	0.13
209.703	0.14
210.087	0.17
210.471	0.04
210.855	0.18
211.239	0.18
211.623	0.35
212.007	0.36
212.39	0.31
212.774	0.12
213.158	0.16
213.541	0.21
213.925	0.18
214.309	0.27
214.692	0.33
215.076	0.14
215.459	0.05
215.842	0.12
216.226	0.22
216.609	0.23
216.993	0.17
217.376	0.33
217.759	0.23
218.142	0.33
218.525	0.34
218.909	0.32
219.292	0.28
219.675	0.32
220.058	0.3
220.441	0.52
220.824	0.44
221.207	0.62
221.59	0.51
221.973	0.57
222.355	0.53
222.738	0.8
223.121	0.63
223.504	0.51
223.886	0.65
224.269	0.64
224.652	0.7
225.034	0.68
225.417	0.71
225.799	0.76
226.182	0.82
226.564	0.75
226.947	0.78
227.329	0.75
227.711	0.91
228.094	0.87
228.476	0.81
228.858	0.79
229.24	0.81
229.623	0.84
230.005	0.73
230.387	0.7
230.769	0.85
231.151	0.91
231.533	0.82
231.915	0.84
232.297	0.98
232.679	0.93
233.061	1.03
233.442	0.97
233.824	1.06
234.206	1.12
234.588	1.01
234.969	1.04
235.351	0.92
235.733	0.95
236.114	1.18
236.496	0.93
236.877	1.01
237.259	0.96
237.64	1.03
238.022	0.95
238.403	0.99
238.784	0.99
239.165	0.96
239.547	1.03
239.928	1.06
240.309	0.96
240.69	1.02
241.071	0.94
241.452	1.06
241.834	0.98
242.215	1.17
242.595	0.96
242.976	1.01
243.357	1.1
243.738	1.05
244.119	1.21
244.5	1.04
244.881	1.16
245.261	1.15
245.642	1.2
246.023	1.25
246.403	1.16
246.784	1.19
247.164	1.26
247.545	1.2
247.925	1.27
248.306	1.23
248.686	1.28
249.067	1.2
249.447	1.24
249.827	1.35
250.207	1.4
250.588	1.24
250.968	1.5
251.348	1.37
251.728	1.49
252.108	1.43
252.488	1.4
252.868	1.21
253.248	1.32
253.628	1.34
254.008	1.37
254.388	1.22
254.768	1.27
255.147	1.33
255.527	1.3
255.907	1.33
256.287	1.32
256.666	1.37
257.046	1.36
257.425	1.48
257.805	1.29
258.184	1.3
258.564	1.43
258.943	1.24
259.323	1.49
259.702	1.56
260.081	1.47
260.461	1.45
260.84	1.41
261.219	1.73
261.598	1.54
261.977	1.37
262.356	1.48
262.736	1.54
263.115	1.5
263.494	1.5
263.873	1.4
264.251	1.46
264.63	1.42
265.009	1.39
265.388	1.42
265.767	1.23
266.145	1.24
266.524	1.47
266.903	1.45
267.281	1.25
267.66	1.4
268.039	1.49
268.417	1.3
268.796	1.41
269.174	1.34
269.552	1.32
269.931	1.45
270.309	1.42
270.687	1.53
271.066	1.42
271.444	1.31
271.822	1.32
272.2	1.39
272.578	1.39
272.956	1.42
273.334	1.31
273.712	1.45
274.09	1.41
274.468	1.37
274.846	1.21
275.224	1.32
275.602	1.37
275.98	1.46
276.357	1.35
276.735	1.36
277.113	1.36
277.49	1.3
277.868	1.29
278.246	1.31
278.623	1.33
279.001	1.37
279.378	1.22
279.756	1.31
280.133	1.5
280.51	1.37
280.888	1.29
281.265	1.27
281.642	1.44
282.019	1.46
282.396	1.59
282.773	1.4
283.151	1.48
283.528	1.52
283.905	1.4
284.282	1.44
284.659	1.45
285.035	1.34
285.412	1.22
285.789	1.5
286.166	1.49
286.543	1.54
286.919	1.42
287.296	1.28
287.673	1.62
288.049	1.38
288.426	1.67
288.802	1.53
289.179	1.4
289.555	1.52
289.932	1.42
290.308	1.34
290.684	1.32
291.061	1.28
291.437	1.38
291.813	1.27
292.189	1.28
292.565	1.29
292.942	1.24
293.318	1.31
293.694	1.35
294.07	1.36
294.446	1.34
294.822	1.56
295.197	1.36
295.573	1.42
295.949	1.37
296.325	1.44
296.701	1.54
297.076	1.49
297.452	1.58
297.828	1.44
298.203	1.7
298.579	1.38
298.954	1.48
299.33	1.39
299.705	1.4
300.081	1.38
300.456	1.56
300.831	1.4
301.206	1.39
301.582	1.57
301.957	1.38
302.332	1.62
302.707	1.43
303.082	1.45
303.457	1.47
303.832	1.57
304.207	1.39
304.582	1.45
304.957	1.5
305.332	1.59
305.707	1.45
306.082	1.48
306.456	1.79
306.831	1.51
307.206	1.54
307.58	1.52
307.955	1.45
308.33	1.43
308.704	1.61
309.079	1.44
309.453	1.73
309.828	1.39
310.202	1.38
310.576	1.47
310.951	1.59
311.325	1.6
311.699	1.51
312.073	1.4
312.447	1.41
312.821	1.37
313.196	1.46
313.57	1.41
313.944	1.46
314.317	1.3
314.691	1.48
315.065	1.48
315.439	1.66
315.813	1.55
316.187	1.39
316.56	1.64
316.934	1.6
317.308	1.46
317.681	1.48
318.055	1.42
318.428	1.61
318.802	1.69
319.175	1.46
319.549	1.49
319.922	1.32
320.295	1.4
320.669	1.7
321.042	1.45
321.415	1.56
321.788	1.43
322.162	1.41
322.535	1.48
322.908	1.56
323.281	1.44
323.654	1.63
324.027	1.4
324.4	1.51
324.773	1.38
325.145	1.49
325.518	1.45
325.891	1.46
326.264	1.69
326.636	1.61
327.009	1.47
327.382	1.34
327.754	1.34
328.127	1.54
328.499	1.44
328.872	1.45
329.244	1.43
329.616	1.47
329.989	1.49
330.361	1.48
330.733	1.34
331.106	1.44
331.478	1.56
331.85	1.37
332.222	1.45
332.594	1.4
332.966	1.46
333.338	1.64
333.71	1.47
334.082	1.44
334.454	1.37
334.826	1.44
335.197	1.38
335.569	1.37
335.941	1.34
336.312	1.42
336.684	1.44
337.056	1.43
337.427	1.6
337.799	1.46
338.17	1.35
338.542	1.44
338.913	1.55
339.284	1.64
339.656	1.47
340.027	1.53
340.398	1.55
340.769	1.49
341.141	1.62
341.512	1.48
341.883	1.5
342.254	1.65
342.625	1.57
342.996	1.38
343.367	1.54
343.738	1.41
344.108	1.49
344.479	1.72
344.85	1.45
345.221	1.53
345.591	1.4
345.962	1.44
346.333	1.46
346.703	1.26
347.074	1.3
347.444	1.25
347.815	1.37
348.185	1.43
348.556	1.35
348.926	1.23
349.296	1.32
349.666	1.4
350.037	1.18
350.407	1.31
350.777	1.32
351.147	1.41
351.517	1.35
351.887	1.25
352.257	1.38
352.627	1.21
352.997	1.17
353.367	1.27
353.737	1.36
354.106	1.37
354.476	1.23
354.846	1.43
355.216	1.33
355.585	1.32
355.955	1.29
356.324	1.28
356.694	1.21
357.063	1.22
357.433	1.16
357.802	1.15
358.171	1.15
358.541	1.16
358.91	1.16
359.279	1.15
359.648	1.04
360.017	1.08
360.387	1.03
360.756	1
361.125	0.99
361.494	0.98
361.863	0.96
362.231	0.9
362.6	0.92
362.969	0.89
363.338	0.84
363.707	0.89
364.075	0.85
364.444	0.79
364.813	0.8
365.181	0.76
365.55	0.75
365.918	0.76
366.287	0.72
366.655	0.68
367.024	0.67
367.392	0.68
367.76	0.64
368.128	0.64
368.497	0.61
368.865	0.61
369.233	0.58
369.601	0.55
369.969	0.55
370.337	0.55
370.705	0.52
371.073	0.52
371.441	0.49
371.809	0.49
372.177	0.49
372.544	0.48
372.912	0.47
373.28	0.46
373.647	0.46
374.015	0.45
374.383	0.43
374.75	0.42
375.118	0.4
375.485	0.39
375.853	0.39
376.22	0.36
376.587	0.36
376.955	0.37
377.322	0.35
377.689	0.34
378.056	0.34
378.423	0.33
378.79	0.35
379.157	0.33
379.524	0.33
379.891	0.32
380.258	0.31
380.625	0.29
380.992	0.29
381.359	0.29
381.726	0.28
382.092	0.27
382.459	0.27
382.826	0.29
383.192	0.26
383.559	0.26
383.925	0.27
384.292	0.26
384.658	0.25
385.025	0.25
385.391	0.26
385.757	0.25
386.123	0.27
386.49	0.25
386.856	0.26
387.222	0.25
387.588	0.23
387.954	0.24
388.32	0.25
388.686	0.23
389.052	0.22
389.418	0.22
389.784	0.22
390.15	0.22
390.515	0.21
390.881	0.23
391.247	0.23
391.613	0.23
391.978	0.21
392.344	0.22
392.709	0.21
393.075	0.22
393.44	0.2
393.806	0.19
394.171	0.21
394.536	0.2
394.902	0.22
395.267	0.19
395.632	0.19
395.997	0.21
396.362	0.19
396.727	0.2
397.092	0.2
397.457	0.2
397.822	0.19
398.187	0.19
398.552	0.18
398.917	0.17
399.282	0.18
399.646	0.17
400.011	0.19
400.376	0.19
400.74	0.21
401.105	0.2
401.47	0.19
401.834	0.18
402.199	0.18
402.563	0.16
402.927	0.16
403.292	0.17
403.656	0.18
404.02	0.19
404.384	0.16
404.749	0.19
405.113	0.16
405.477	0.17
405.841	0.16
406.205	0.15
406.569	0.16
406.933	0.16
407.296	0.15
407.66	0.16
408.024	0.16
408.388	0.16
408.752	0.14
409.115	0.14
409.479	0.14
409.842	0.14
410.206	0.14
410.569	0.16
410.933	0.15
411.296	0.17
411.66	0.15
412.023	0.14
412.386	0.15
412.749	0.14
413.113	0.15
413.476	0.13
413.839	0.14
414.202	0.13
414.565	0.12
414.928	0.14
415.291	0.12
415.654	0.13
416.017	0.13
416.38	0.12
416.742	0.12
417.105	0.11
417.468	0.12
417.83	0.13
418.193	0.13
418.556	0.13
418.918	0.12
419.281	0.11
419.643	0.12
420.005	0.11
420.368	0.12
420.73	0.11
421.092	0.11
421.455	0.1
421.817	0.1
422.179	0.09
422.541	0.1
422.903	0.1
423.265	0.11
423.627	0.1
423.989	0.1
424.351	0.1
424.713	0.11
425.075	0.08
425.436	0.1
425.798	0.09
426.16	0.11
426.521	0.09
426.883	0.12
427.245	0.09
427.606	0.08
427.967	0.1
428.329	0.08
428.69	0.11
429.052	0.11
429.413	0.1
429.774	0.09
430.135	0.08
430.497	0.08
430.858	0.08
431.219	0.08
431.58	0.09
431.941	0.08
432.302	0.09
432.663	0.09
433.024	0.1
433.384	0.09
433.745	0.09
434.106	0.09
434.467	0.1
434.827	0.1
435.188	0.1
435.548	0.1
435.909	0.08
436.269	0.09
436.63	0.08
436.99	0.08
437.351	0.09
437.711	0.09
438.071	0.08
438.431	0.09
438.792	0.08
439.152	0.08
439.512	0.08
439.872	0.09
440.232	0.11
440.592	0.1
440.952	0.1
441.312	0.09
441.671	0.08
442.031	0.09
442.391	0.08
442.751	0.09
443.11	0.07
443.47	0.09
443.83	0.08
444.189	0.09
444.549	0.08
444.908	0.09
445.267	0.09
445.627	0.07
445.986	0.07
446.345	0.07
446.705	0.07
447.064	0.08
447.423	0.07
447.782	0.07
448.141	0.07
448.5	0.07
448.859	0.07
449.218	0.08
449.577	0.08
449.936	0.09
450.295	0.08
450.653	0.08
451.012	0.08
451.371	0.08
451.729	0.08
452.088	0.09
452.447	0.08
452.805	0.08
453.163	0.08
453.522	0.08
453.88	0.07
454.239	0.08
454.597	0.08
454.955	0.08
455.313	0.07
455.671	0.08
456.029	0.07
456.388	0.06
456.746	0.08
457.104	0.07
457.461	0.07
457.819	0.06
458.177	0.06
458.535	0.06
458.893	0.05
459.25	0.06
459.608	0.06
459.966	0.06
460.323	0.05
460.681	0.05
461.038	0.06
461.396	0.05
461.753	0.06
462.111	0.05
462.468	0.05
462.825	0.05
463.182	0.06
463.54	0.05
463.897	0.06
464.254	0.06
464.611	0.06
464.968	0.05
465.325	0.05
465.682	0.05
466.039	0.05
466.395	0.05
466.752	0.05
467.109	0.05
467.466	0.05
467.822	0.06
468.179	0.05
468.535	0.05
468.892	0.05
469.248	0.05
469.605	0.05
469.961	0.05
470.318	0.07
470.674	0.06
471.03	0.05
471.386	0.06
471.743	0.06
472.099	0.06
472.455	0.06
472.811	0.05
473.167	0.05
473.523	0.04
473.879	0.04
474.235	0.04
474.59	0.04
474.946	0.05
475.302	0.04
475.657	0.05
476.013	0.04
476.369	0.03
476.724	0.05
477.08	0.05
477.435	0.05
477.791	0.05
478.146	0.05
478.501	0.04
478.857	0.05
479.212	0.05
479.567	0.05
479.922	0.04
480.277	0.04
480.632	0.04
480.987	0.04
481.342	0.04
481.697	0.04
482.052	0.04
482.407	0.05
482.762	0.04
483.116	0.04
483.471	0.04
483.826	0.03
484.18	0.04
484.535	0.03
484.89	0.03
485.244	0.04
485.598	0.04
485.953	0.04
486.307	0.04
486.661	0.05
487.016	0.03
487.37	0.05
487.724	0.04
488.078	0.04
488.432	0.04
488.786	0.04
489.14	0.04
489.494	0.03
489.848	0.04
490.202	0.04
490.556	0.04
490.91	0.04
491.263	0.04
491.617	0.04
491.971	0.04
492.324	0.04
492.678	0.04
493.031	0.05
493.385	0.04
493.738	0.04
494.091	0.04
494.445	0.04
494.798	0.04
495.151	0.04
495.504	0.04
495.857	0.04
496.21	0.04
496.564	0.04
496.916	0.04
497.269	0.04
497.622	0.04
497.975	0.04
498.328	0.04
498.681	0.05
499.033	0.04
499.386	0.04
499.739	0.04
500.091	0.04
500.444	0.04
500.796	0.03
501.149	0.03
501.501	0.04
501.854	0.04
502.206	0.04
502.558	0.04
502.91	0.04
503.263	0.03
503.615	0.03
503.967	0.03
504.319	0.04
504.671	0.03
505.023	0.03
505.375	0.03
505.726	0.04
506.078	0.03
506.43	0.03
506.782	0.03
507.133	0.03
507.485	0.03
507.837	0.04
508.188	0.03
508.54	0.03
508.891	0.04
509.243	0.03
509.594	0.03
509.945	0.03
510.296	0.03
510.648	0.04
510.999	0.03
511.35	0.03
511.701	0.03
512.052	0.04
512.403	0.04
512.754	0.03
513.105	0.03
513.456	0.03
513.807	0.02
514.157	0.03
514.508	0.03
514.859	0.02
515.209	0.02
515.56	0.03
515.91	0.02
516.261	0.03
516.611	0.02
516.962	0.03
517.312	0.03
517.662	0.02
518.013	0.02
518.363	0.03
518.713	0.02
519.063	0.03
519.413	0.03
519.763	0.02
520.113	0.03
520.463	0.03
520.813	0.03
521.163	0.03
521.512	0.03
521.862	0.03
522.212	0.03
522.562	0.03
522.911	0.02
523.261	0.03
523.61	0.03
523.96	0.02
524.309	0.03
524.658	0.03
525.008	0.03
525.357	0.03
525.706	0.03
526.056	0.03
526.405	0.03
526.754	0.03
527.103	0.02
527.452	0.03
527.801	0.03
528.15	0.03
528.499	0.02
528.847	0.03
529.196	0.03
529.545	0.03
529.893	0.04
530.242	0.04
530.591	0.04
530.939	0.04
531.288	0.04
531.636	0.04
531.985	0.04
532.333	0.04
532.681	0.03
533.029	0.03
533.378	0.03
533.726	0.04
534.074	0.04
534.422	0.03
534.77	0.03
535.118	0.04
535.466	0.03
535.814	0.03
536.162	0.03
536.509	0.03
536.857	0.03
537.205	0.04
537.552	0.03
537.9	0.03
538.248	0.03
538.595	0.03
538.943	0.03
539.29	0.03
539.637	0.03
539.985	0.03
540.332	0.03
540.679	0.02
541.026	0.02
541.373	0.03
541.721	0.02
542.068	0.02
542.415	0.02
542.762	0.01
543.108	0.02
543.455	0.01
543.802	0.02
544.149	0.02
544.496	0.01
544.842	0.02
545.189	0.01
545.535	0.01
545.882	0.02
546.228	0.01
546.575	0
546.921	0.01
547.267	0.01
547.614	0.01
547.96	0.02
548.306	0.01
548.652	0.01
548.998	0.02
549.344	0.01
549.69	0.01
550.036	0.02
550.382	0.02
550.728	0.01
551.074	0.02
551.42	0.01
551.765	0.02
552.111	0.02
552.457	0.03
552.802	0.02
553.148	0.02
553.493	0.02
553.839	0.02
554.184	0.03
554.529	0.02
554.875	0.02
555.22	0.03
555.565	0.02
555.91	0.02
556.255	0.03
556.6	0.03
556.945	0.02
557.29	0.02
557.635	0.02
557.98	0.02
558.325	0.02
558.67	0.02
559.014	0.02
559.359	0.03
559.704	0.02
560.048	0.01
560.393	0.01
560.737	0
561.082	0.02
561.426	0.01
561.77	0.01
562.115	0.01
562.459	0.01
562.803	0.01
563.147	0.01
563.491	0.01
563.835	0.01
564.179	0.01
564.523	0.02
564.867	0
565.211	0.01
565.555	0.02
565.899	0.02
566.242	0.02
566.586	0.01
566.93	0.02
567.273	0.03
567.617	0.02
567.96	0.02
568.304	0.02
568.647	0.02
568.99	0.02
569.334	0.03
569.677	0.01
570.02	0.02
570.363	0.02
570.706	0.02
571.049	0.01
571.392	0.02
571.735	0.01
572.078	0.02
572.421	0.02
572.764	0.02
573.106	0.01
573.449	0.01
573.792	0.02
574.134	0.01
574.477	0.02
574.819	0.02
575.162	0.01
575.504	0.01
575.847	0.02
576.189	0.02
576.531	0.02
576.873	0.01
577.215	0.02
577.558	0.02
577.9	0.01
578.242	0.01
578.584	0.01
578.926	0.02
579.267	0.01
579.609	0.02
579.951	0.01
580.293	0.01
580.634	0.02
580.976	0.02
581.318	0.01
581.659	0.01
582.001	0.02
582.342	0.01
582.683	0.02
583.025	0.01
583.366	0.01
583.707	0.02
584.049	0.01
584.39	0.01
584.731	0.01
585.072	0.01
585.413	0.02
585.754	0.02
586.095	0.02
586.435	0.02
586.776	0.02
587.117	0.01
587.458	0.01
587.798	0.01
588.139	0.02
588.48	0.01
588.82	0.01
589.161	0.01
589.501	0.01
589.841	0.02
590.182	0.01
590.522	0.01
590.862	0.02
591.202	0.01
591.542	0.01
591.882	0.01
592.222	0.01
592.562	0.01
592.902	0.01
593.242	0.01
593.582	0.02
593.922	0.01
594.261	0
594.601	0.01
594.941	0.01
595.28	0.02
595.62	0.02
595.959	0.01
596.299	0.01
596.638	0.01
596.977	0.01
597.317	0.02
597.656	0.01
597.995	0.01
598.334	0.01
598.673	0.01
599.012	0.01
599.351	0.02
599.69	-0
600.029	0.01
600.368	0.01
600.707	0.01
601.046	0.01
601.384	0.01
601.723	0.01
602.061	0.01
602.4	0.01
602.738	0.01
603.077	0.01
603.415	0.01
603.754	0.01
604.092	0.01
604.43	0.02
604.768	0.02
605.107	0.02
605.445	0.01
605.783	0.01
606.121	0.01
606.459	0.02
606.796	0.01
607.134	0.01
607.472	0.01
607.81	0.01
608.148	0.01
608.485	0.01
608.823	0.02
609.16	0.01
609.498	0.02
609.835	0.01
610.173	0.01
610.51	0.02
610.847	0.02
611.185	0.02
611.522	0.01
611.859	0.02
612.196	0.02
612.533	0.03
612.87	0.02
613.207	0.02
613.544	0.02
613.881	0.02
614.217	0.02
614.554	0.03
614.891	0.03
615.228	0.03
615.564	0.02
615.901	0.03
616.237	0.02
616.574	0.02
616.91	0.03
617.246	0.03
617.583	0.03
617.919	0.03
618.255	0.03
618.591	0.02
618.927	0.03
619.263	0.04
619.599	0.03
619.935	0.03
620.271	0.03
620.607	0.03
620.943	0.03
621.279	0.03
621.614	0.03
621.95	0.03
622.286	0.02
622.621	0.02
622.957	0.02
623.292	0.02
623.627	0.02
623.963	0.02
624.298	0.02
624.633	0.01
624.968	0.01
625.304	0.02
625.639	0.02
625.974	0.02
626.309	0.02
626.644	0.01
626.979	0.02
627.313	0.02
627.648	0.02
627.983	0.02
628.318	0.01
628.652	0.01
628.987	0.01
629.321	0.01
629.656	0.02
629.99	0.01
630.325	0.02
630.659	0.02
630.993	0.02
631.327	0.02
631.662	0.01
631.996	0.01
632.33	0.02
632.664	0.02
632.998	0.01
633.332	0.02
633.666	0.02
633.999	0.02
634.333	0.01
634.667	0.02
635.001	0.01
635.334	0.02
635.668	0.01
636.001	0.01
636.335	0.02
636.668	0.01
637.001	0.01
637.335	0.01
637.668	0.01
638.001	0.01
638.334	0.02
638.668	0.01
639.001	0.01
639.334	0.01
639.667	0.01
639.999	0.01
640.332	0.01
640.665	0.01
640.998	0.01
641.331	0.01
641.663	0
641.996	0.01
642.328	0.01
642.661	0.01
642.993	0.01
643.326	0.01
643.658	0
643.99	0
644.323	0
644.655	0.01
644.987	0.01
645.319	0.01
645.651	0.01
645.983	0.01
646.315	0.01
646.647	0.02
646.979	0.02
647.31	0.02
647.642	0.02
647.974	0.02
648.305	0.03
648.637	0.02
648.968	0.02
649.3	0.02
649.631	0.03
649.963	0.02
650.294	0.03
650.625	0.02
650.957	0.03
651.288	0.02
651.619	0.03
651.95	0.03
652.281	0.02
652.612	0.02
652.943	0.02
653.274	0.03
653.604	0.02
653.935	0.02
654.266	0.03
654.596	0.03
654.927	0.02
655.258	0.03
655.588	0.03
655.918	0.03
656.249	0.01
656.579	0.02
656.909	0.02
657.24	0.02
657.57	0.03
657.9	0.03
658.23	0.03
658.56	0.03
658.89	0.03
659.22	0.03
659.55	0.03
659.88	0.03
660.209	0.03
660.539	0.04
660.869	0.03
661.198	0.04
661.528	0.03
661.857	0.03
662.187	0.03
662.516	0.03
662.846	0.02
663.175	0.03
663.504	0.03
663.833	0.03
664.163	0.03
664.492	0.03
664.821	0.03
665.15	0.02
665.479	0.03
665.807	0.03
666.136	0.03
666.465	0.03
666.794	0.02
667.122	0.02
667.451	0.02
667.78	0.03
668.108	0.02
668.437	0.02
668.765	0.03
669.093	0.03
669.422	0.03
669.75	0.02
670.078	0.03
670.406	0.03
670.734	0.03
671.062	0.03
671.39	0.03
671.718	0.03
672.046	0.03
672.374	0.03
672.702	0.03
673.029	0.02
673.357	0.03
673.685	0.04
674.012	0.03
674.34	0.03
674.667	0.03
674.995	0.03
675.322	0.04
675.649	0.03
675.977	0.03
676.304	0.03
676.631	0.03
676.958	0.03
677.285	0.02
677.612	0.03
677.939	0.02
678.266	0.03
678.593	0.02
678.92	0.03
679.246	0.02
679.573	0.03
679.9	0.02
680.226	0.02
680.553	0.02
680.879	0.02
681.206	0.02
681.532	0.02
681.858	0.02
682.184	0.02
682.511	0.02
682.837	0.02
683.163	0.02
683.489	0.03
683.815	0.02
684.141	0.02
684.467	0.02
684.793	0.01
685.118	0.02
685.444	0.02
685.77	0.02
686.095	0.03
686.421	0.02
686.746	0.03
687.072	0.03
687.397	0.02
687.723	0.03
688.048	0.03
688.373	0.03
688.698	0.03
689.023	0.03
689.349	0.04
689.674	0.03
689.999	0.03
690.323	0.02
690.648	0.02
690.973	0.02
691.298	0.02
691.623	0.02
691.947	0.02
692.272	0.02
692.596	0.02
692.921	0.02
693.245	0.02
693.57	0.02
693.894	0.02
694.218	0.03
694.543	0.01
694.867	0.02
695.191	0.01
695.515	0.02
695.839	0.02
696.163	0.02
696.487	0.02
696.811	0.02
697.135	0.03
697.458	0.02
697.782	0.02
698.106	0.02
698.429	0.02
698.753	0.02
699.076	0.03
699.4	0.02
699.723	0.02
700.046	0.02
700.37	0.02
700.693	0.03
701.016	0.03
701.339	0.02
701.662	0.02
701.985	0.02
702.308	0.03
702.631	0.02
702.954	0.03
703.277	0.02
703.599	0.03
703.922	0.02
704.245	0.02
704.567	0.02
704.89	0.03
705.212	0.02
705.535	0.02
705.857	0.02
706.179	0.02
706.502	0.02
706.824	0.02
707.146	0.01
707.468	0.02
707.79	0.02
708.112	0.02
708.434	0.03
708.756	0.02
709.078	0.02
709.399	0.02
709.721	0.02
710.043	0.02
710.364	0.03
710.686	0.03
711.007	0.03
711.329	0.03
711.65	0.03
711.972	0.03
712.293	0.03
712.614	0.03
712.935	0.03
713.256	0.02
713.577	0.03
713.898	0.02
714.219	0.02
714.54	0.01
714.861	0.02
715.182	0.02
715.503	0.02
715.823	0.02
716.144	0.02
716.464	0.01
716.785	0.02
717.105	0.02
717.426	0.02
717.746	0.02
718.066	0.01
718.387	0.01
718.707	0.01
719.027	0.02
719.347	0.01
719.667	0.01
719.987	0
720.307	0.01
720.627	0.01
720.947	0.01
721.266	0.01
721.586	0
721.906	0
722.225	0.01
722.545	0.01
722.864	0
723.184	0.01
723.503	0.01
723.823	0.01
724.142	0
724.461	0.01
724.78	0.01
725.099	0.01
725.418	0.01
725.737	0.01
726.056	0.02
726.375	0.01
726.694	0.01
727.013	0.01
727.331	0.01
727.65	0.02
727.969	0.01
728.287	0.01
728.606	0.02
728.924	0.01
729.242	0.01
729.561	0.01
729.879	0.01
730.197	0.02
730.515	0.01
730.834	0.01
731.152	0.01
731.47	0.01
731.788	0.01
732.105	0.01
732.423	0.01
732.741	0.01
733.059	0.01
733.376	0.01
733.694	0.01
734.012	0.01
734.329	0.02
734.647	0.01
734.964	0.02
735.281	0.01
735.599	0.02
735.916	0.03
736.233	0.01
736.55	0.01
736.867	0.02
737.184	0.02
737.501	0.01
737.818	0.02
738.135	0.02
738.452	0.02
738.768	0.02
739.085	0.03
739.402	0.01
739.718	0.01
740.035	0.02
740.351	0.02
740.668	0.03
740.984	0.02
741.3	0.01
741.617	0.03
741.933	0.02
742.249	0.02
742.565	0.02
742.881	0.03
743.197	0.03
743.513	0.02
743.829	0.02
744.144	0.02
744.46	0.03
744.776	0.03
745.091	0.02
745.407	0.02
745.722	0.02
746.038	0.02
746.353	0.01
746.669	0.03
746.984	0.02
747.299	0.03
747.614	0.03
747.93	0.03
748.245	0.03
748.56	0.02
748.875	0.02
749.189	0.02
749.504	0.03
749.819	0.03
750.134	0.02
750.448	0.03
750.763	0.03
751.078	0.02
751.392	0.02
751.707	0.04
752.021	0.03
752.335	0.04
752.65	0.03
752.964	0.03
753.278	0.02
753.592	0.02
753.906	0.02
754.22	0.03
754.534	0.02
754.848	0.03
755.162	0.02
755.476	0.03
755.789	0.03
756.103	0.03
756.417	0.03
756.73	0.03
757.044	0.03
757.357	0.03
757.671	0.04
757.984	0.03
758.297	0.03
758.61	0.03
758.924	0.03
759.237	0.03
759.55	0.04
759.863	0.03
760.176	0.03
760.488	0.04
760.801	0.03
761.114	0.03
761.427	0.03
761.739	0.03
762.052	0.02
762.365	0.03
762.677	0.03
762.99	0.02
763.302	0.03
763.614	0.02
763.926	0.02
764.239	0.03
764.551	0.02
764.863	0.02
765.175	0.03
765.487	0.02
765.799	0.02
766.111	0.02
766.423	0.03
766.734	0.03
767.046	0.03
767.358	0.03
767.669	0.03
767.981	0.03
768.292	0.02
768.604	0.02
768.915	0.02
769.226	0.03
769.537	0.02
769.849	0.03
770.16	0.02
770.471	0.02
770.782	0.02
771.093	0.02
771.404	0.01
771.715	0.01
772.025	0.02
772.336	0.02
772.647	0.02
772.957	0.02
773.268	0.01
773.578	0.01
773.889	0.02
774.199	0.03
774.51	0.02
774.82	0.02
775.13	0.02
775.44	0.02
775.75	0.02
776.06	0.03
776.37	0.01
776.68	0.02
776.99	0.02
777.3	0.02
777.61	0.03
777.92	0.02
778.229	0.02
778.539	0.02
778.848	0.02
779.158	0.03
779.467	0.04
779.777	0.03
780.086	0.03
780.395	0.01
780.704	0.02
781.013	0.02
781.323	0.02
781.632	0.02
781.941	0.02
782.249	0.03
782.558	0.02
782.867	0.03
783.176	0.02
783.485	0.02
783.793	0.02
784.102	0.02
784.41	0.02
784.719	0.02
785.027	0.02
785.335	0.02
785.644	0.02
785.952	0.02
786.26	0.02
786.568	0.02
786.876	0.02
787.184	0.02
787.492	0.02
787.8	0.01
788.108	0.02
788.416	0.02
788.723	0.02
789.031	0.01
789.338	0.02
789.646	0.02
789.953	0.02
790.261	0.02
790.568	0.03
790.876	0.02
791.183	0.03
791.49	0.02
791.797	0.02
792.104	0.02
792.411	0.02
792.718	0.02
793.025	0.02
793.332	0.02
793.639	0.03
793.945	0.04
794.252	0.03
794.559	0.03
794.865	0.03
795.172	0.03
795.478	0.03
795.784	0.03
796.091	0.03
796.397	0.04
796.703	0.03
797.009	0.04
797.315	0.03
797.622	0.04
797.927	0.03
798.233	0.03
798.539	0.04
798.845	0.03
799.151	0.03
799.456	0.03
799.762	0.03
800.068	0.04
800.373	0.04
800.679	0.03
800.984	0.03
801.289	0.02
801.595	0.03
801.9	0.03
802.205	0.03
802.51	0.03
802.815	0.03
803.12	0.03
803.425	0.03
803.73	0.02
804.035	0.03
804.339	0.03
804.644	0.02
804.949	0.03
805.253	0.03
805.558	0.03
805.862	0.03
806.167	0.03
806.471	0.02
806.775	0.04
807.08	0.03
807.384	0.03
807.688	0.03
807.992	0.03
808.296	0.03
808.6	0.04
808.904	0.04
809.207	0.03
809.511	0.04
809.815	0.04
810.119	0.03
810.422	0.04
810.726	0.04
811.029	0.05
811.332	0.04
811.636	0.04
811.939	0.03
812.242	0.04
812.546	0.04
812.849	0.03
813.152	0.04
813.455	0.04
813.758	0.04
814.06	0.04
814.363	0.04
814.666	0.04
814.969	0.04
815.271	0.04
815.574	0.03
815.877	0.04
816.179	0.03
816.481	0.03
816.784	0.03
817.086	0.02
817.388	0.02
817.69	0.01
817.993	0.02
818.295	0.02
818.597	0.02
818.899	0.02
819.2	0.01
819.502	0.01
819.804	0.02
820.106	0.02
820.407	0.02
820.709	0.01
821.01	0.02
821.312	0.02
821.613	0.01
821.915	0.02
822.216	0.02
822.517	0.01
822.818	0.01
823.119	0.02
823.42	0.02
823.721	0.01
824.022	0.02
824.323	0.02
824.624	0.02
824.925	0.02
825.226	0.03
825.526	0.03
825.827	0.02
826.127	0.03
826.428	0.03
826.728	0.02
827.028	0.03
827.329	0.02
827.629	0.02
827.929	0.02
828.229	0.02
828.529	0.03
828.829	0.02
829.129	0.02
829.429	0.02
829.729	0.02
830.029	0.01
830.328	0.02
830.628	0.01
830.927	0.01
831.227	0.01
831.526	0.02
831.826	0.03
832.125	0.02
832.424	0.02
832.724	0.02
833.023	0.02
833.322	0.02
833.621	0.02
833.92	0.01
834.219	0.01
834.518	0.02
834.816	0.01
835.115	0.01
835.414	0.01
835.712	0.01
836.011	0.01
836.309	0.01
836.608	0
836.906	0.01
837.205	0
837.503	0
837.801	0
838.099	-0.01
838.397	-0.01
838.695	-0.01
838.993	-0.01
839.291	-0.02
839.589	-0.01
839.887	-0.02
840.184	-0.03
840.482	-0.02
840.78	-0.02
841.077	-0.03
841.375	-0.03
841.672	-0.02
841.969	-0.03
842.267	-0.03
842.564	-0.03
842.861	-0.02
843.158	-0.03
843.455	-0.05
843.752	-0.04
844.049	-0.04
844.346	-0.04
844.643	-0.05
844.94	-0.04
845.236	-0.04
845.533	-0.04
845.83	-0.04
846.126	-0.05
846.423	-0.05
846.719	-0.06
847.015	-0.06
847.312	-0.06
847.608	-0.07
847.904	-0.06
848.2	-0.07
848.496	-0.07
848.792	-0.06
849.088	-0.05
849.384	-0.06
849.68	-0.07
849.975	-0.07
850.271	-0.07
850.567	-0.07
850.862	-0.07
851.158	-0.07
851.453	-0.07
851.748	-0.08
852.044	-0.07
852.339	-0.07
852.634	-0.09
852.929	-0.07
853.224	-0.08
853.519	-0.08
853.814	-0.07
854.109	-0.09
854.404	-0.08
854.699	-0.09
854.994	-0.07
855.288	-0.07
855.583	-0.08
855.877	-0.09
856.172	-0.08
856.466	-0.09
856.76	-0.1
857.055	-0.09
857.349	-0.1
857.643	-0.1
857.937	-0.11
858.231	-0.1
858.525	-0.1
858.819	-0.1
859.113	-0.11
859.407	-0.11
859.701	-0.12
859.994	-0.11
860.288	-0.1
860.581	-0.11
860.875	-0.12
861.168	-0.12
861.462	-0.12
861.755	-0.11
862.048	-0.12
862.341	-0.13
862.634	-0.13
862.928	-0.13
863.221	-0.12
863.513	-0.13
863.806	-0.13
864.099	-0.13
864.392	-0.13
864.685	-0.14
864.977	-0.13
865.27	-0.13
865.562	-0.13
865.855	-0.13
866.147	-0.14
866.44	-0.13
866.732	-0.15
867.024	-0.15
867.316	-0.15
867.608	-0.15
867.9	-0.15
868.192	-0.14
868.484	-0.14
868.776	-0.15
869.068	-0.15
869.359	-0.14
869.651	-0.16
869.943	-0.16
870.234	-0.16
870.526	-0.16
870.817	-0.17
871.108	-0.16
871.4	-0.16
871.691	-0.17
871.982	-0.18
872.273	-0.17
872.564	-0.17
872.855	-0.17
873.146	-0.18
873.437	-0.17
873.728	-0.18
874.019	-0.17
874.309	-0.19
874.6	-0.18
874.89	-0.18
875.181	-0.19
875.471	-0.17
875.762	-0.17
876.052	-0.17
876.342	-0.17
876.632	-0.17
876.922	-0.18
877.213	-0.18
877.503	-0.2
877.792	-0.18
878.082	-0.19
878.372	-0.17
878.662	-0.2
878.952	-0.19
879.241	-0.2
879.531	-0.19
879.82	-0.2
880.11	-0.19
880.399	-0.19
880.688	-0.18
880.978	-0.18
881.267	-0.18
