Data from 12-12-AQDScycling_Absorbance__887__00887.txt Node

Date: Tue Dec 12 14:38:29 EST 2023
User: kyuminlee
Spectrometer: FLMS00943
Trigger mode: 0
Integration Time (sec): 1.000000E-1
Scans to average: 1
Electric dark correction enabled: true
Nonlinearity correction enabled: false
Boxcar width: 0
XAxis mode: Wavelengths
Number of Pixels in Spectrum: 2048
>>>>>Begin Spectral Data<<<<<
179.651	-0.01
180.037	-0.01
180.424	-0.01
180.81	-0
181.197	0.69
181.583	-0.02
181.97	-0.43
182.356	-0
182.743	-0
183.129	1.09
183.515	0.8
183.901	-1.57
184.288	0.71
184.674	-0
185.06	-0
185.446	-0
185.832	-1.32
186.218	0.12
186.604	-0
186.99	-0
187.376	0.23
187.762	-0.02
188.148	0.45
188.534	0.35
188.92	0.11
189.305	-0.06
189.691	0.45
190.077	0.18
190.463	0.12
190.848	0.01
191.234	0.01
191.619	0.17
192.005	0.08
192.391	0.13
192.776	0.07
193.161	0.08
193.547	0.22
193.932	0.07
194.318	0.1
194.703	0.15
195.088	0.22
195.473	0.15
195.859	0.04
196.244	0.06
196.629	0.03
197.014	0.13
197.399	0.08
197.784	0.2
198.169	0.18
198.554	0.19
198.939	0.04
199.324	0.24
199.709	0.15
200.094	0.06
200.478	0.12
200.863	0.15
201.248	0.21
201.633	0.09
202.017	0.02
202.402	0.12
202.787	0.14
203.171	0.09
203.556	0.2
203.94	0.15
204.325	0.3
204.709	0.11
205.093	0.04
205.478	0.16
205.862	0.17
206.246	0.15
206.631	0.06
207.015	0.12
207.399	0.15
207.783	0.12
208.167	0.13
208.551	0.11
208.935	0.2
209.319	0.19
209.703	0.05
210.087	0.23
210.471	0.11
210.855	0.19
211.239	0.2
211.623	0.3
212.007	0.17
212.39	0.36
212.774	0.21
213.158	0.14
213.541	0.25
213.925	0.27
214.309	0.2
214.692	0.28
215.076	0.2
215.459	0.2
215.842	0.04
216.226	0.27
216.609	0.34
216.993	0.24
217.376	0.42
217.759	0.21
218.142	0.33
218.525	0.34
218.909	0.47
219.292	0.39
219.675	0.46
220.058	0.4
220.441	0.43
220.824	0.53
221.207	0.5
221.59	0.48
221.973	0.43
222.355	0.56
222.738	0.67
223.121	0.59
223.504	0.62
223.886	0.57
224.269	0.65
224.652	0.69
225.034	0.96
225.417	0.77
225.799	0.68
226.182	0.86
226.564	1.01
226.947	0.81
227.329	0.83
227.711	0.85
228.094	0.93
228.476	0.93
228.858	0.87
229.24	0.99
229.623	1.07
230.005	0.85
230.387	0.88
230.769	0.87
231.151	0.93
231.533	0.88
231.915	0.87
232.297	1.15
232.679	0.97
233.061	0.91
233.442	1.06
233.824	1.04
234.206	1.11
234.588	1.08
234.969	0.98
235.351	0.94
235.733	1.04
236.114	1.18
236.496	1.04
236.877	1.13
237.259	1.05
237.64	0.98
238.022	0.94
238.403	0.96
238.784	1.01
239.165	1.03
239.547	0.97
239.928	0.93
240.309	1.03
240.69	1.06
241.071	1.27
241.452	1.03
241.834	0.97
242.215	1
242.595	1.12
242.976	1.09
243.357	1.1
243.738	1
244.119	1.34
244.5	1.13
244.881	1.19
245.261	1.33
245.642	1.14
246.023	1.23
246.403	1.18
246.784	1.29
247.164	1.23
247.545	1.35
247.925	1.4
248.306	1.22
248.686	1.36
249.067	1.19
249.447	1.34
249.827	1.64
250.207	1.55
250.588	1.26
250.968	1.31
251.348	1.3
251.728	1.53
252.108	1.42
252.488	1.3
252.868	1.35
253.248	1.35
253.628	1.57
254.008	1.48
254.388	1.28
254.768	1.28
255.147	1.34
255.527	1.35
255.907	1.37
256.287	1.3
256.666	1.31
257.046	1.38
257.425	1.48
257.805	1.33
258.184	1.37
258.564	1.43
258.943	1.34
259.323	1.38
259.702	1.57
260.081	1.37
260.461	1.48
260.84	1.41
261.219	1.77
261.598	1.46
261.977	1.45
262.356	1.54
262.736	1.62
263.115	1.6
263.494	1.45
263.873	1.57
264.251	1.56
264.63	1.51
265.009	1.56
265.388	1.5
265.767	1.31
266.145	1.35
266.524	1.44
266.903	1.48
267.281	1.3
267.66	1.36
268.039	1.44
268.417	1.39
268.796	1.34
269.174	1.43
269.552	1.53
269.931	1.54
270.309	1.4
270.687	1.43
271.066	1.44
271.444	1.38
271.822	1.64
272.2	1.33
272.578	1.37
272.956	1.34
273.334	1.4
273.712	1.45
274.09	1.5
274.468	1.44
274.846	1.27
275.224	1.35
275.602	1.52
275.98	1.51
276.357	1.31
276.735	1.42
277.113	1.55
277.49	1.42
277.868	1.29
278.246	1.33
278.623	1.36
279.001	1.32
279.378	1.42
279.756	1.54
280.133	1.59
280.51	1.36
280.888	1.59
281.265	1.38
281.642	1.54
282.019	1.52
282.396	1.58
282.773	1.47
283.151	1.49
283.528	1.48
283.905	1.4
284.282	1.54
284.659	1.53
285.035	1.47
285.412	1.34
285.789	1.52
286.166	1.63
286.543	1.56
286.919	1.47
287.296	1.34
287.673	1.6
288.049	1.59
288.426	1.5
288.802	1.59
289.179	1.39
289.555	1.51
289.932	1.77
290.308	1.38
290.684	1.37
291.061	1.27
291.437	1.59
291.813	1.43
292.189	1.28
292.565	1.3
292.942	1.39
293.318	1.36
293.694	1.39
294.07	1.31
294.446	1.45
294.822	1.49
295.197	1.37
295.573	1.45
295.949	1.5
296.325	1.51
296.701	1.5
297.076	1.53
297.452	1.67
297.828	1.51
298.203	1.77
298.579	1.45
298.954	1.47
299.33	1.3
299.705	1.4
300.081	1.46
300.456	1.46
300.831	1.38
301.206	1.35
301.582	1.47
301.957	1.43
302.332	1.55
302.707	1.29
303.082	1.29
303.457	1.42
303.832	1.43
304.207	1.29
304.582	1.32
304.957	1.37
305.332	1.26
305.707	1.35
306.082	1.32
306.456	1.32
306.831	1.26
307.206	1.36
307.58	1.34
307.955	1.2
308.33	1.23
308.704	1.26
309.079	1.27
309.453	1.3
309.828	1.2
310.202	1.2
310.576	1.25
310.951	1.27
311.325	1.33
311.699	1.21
312.073	1.23
312.447	1.26
312.821	1.23
313.196	1.28
313.57	1.23
313.944	1.2
314.317	1.19
314.691	1.2
315.065	1.24
315.439	1.27
315.813	1.26
316.187	1.15
316.56	1.25
316.934	1.25
317.308	1.22
317.681	1.14
318.055	1.2
318.428	1.17
318.802	1.24
319.175	1.15
319.549	1.23
319.922	1.12
320.295	1.13
320.669	1.24
321.042	1.27
321.415	1.29
321.788	1.22
322.162	1.25
322.535	1.3
322.908	1.21
323.281	1.22
323.654	1.3
324.027	1.22
324.4	1.25
324.773	1.22
325.145	1.26
325.518	1.23
325.891	1.2
326.264	1.34
326.636	1.26
327.009	1.19
327.382	1.17
327.754	1.24
328.127	1.21
328.499	1.23
328.872	1.3
329.244	1.26
329.616	1.25
329.989	1.36
330.361	1.25
330.733	1.26
331.106	1.19
331.478	1.28
331.85	1.27
332.222	1.24
332.594	1.32
332.966	1.27
333.338	1.37
333.71	1.33
334.082	1.34
334.454	1.26
334.826	1.27
335.197	1.28
335.569	1.29
335.941	1.25
336.312	1.3
336.684	1.3
337.056	1.23
337.427	1.38
337.799	1.35
338.17	1.31
338.542	1.3
338.913	1.42
339.284	1.33
339.656	1.33
340.027	1.38
340.398	1.35
340.769	1.29
341.141	1.44
341.512	1.3
341.883	1.32
342.254	1.36
342.625	1.38
342.996	1.26
343.367	1.3
343.738	1.43
344.108	1.28
344.479	1.36
344.85	1.35
345.221	1.42
345.591	1.26
345.962	1.36
346.333	1.3
346.703	1.19
347.074	1.17
347.444	1.23
347.815	1.34
348.185	1.24
348.556	1.31
348.926	1.21
349.296	1.34
349.666	1.16
350.037	1.23
350.407	1.19
350.777	1.31
351.147	1.33
351.517	1.25
351.887	1.34
352.257	1.34
352.627	1.35
352.997	1.33
353.367	1.31
353.737	1.33
354.106	1.44
354.476	1.27
354.846	1.41
355.216	1.43
355.585	1.35
355.955	1.33
356.324	1.44
356.694	1.44
357.063	1.47
357.433	1.3
357.802	1.41
358.171	1.46
358.541	1.35
358.91	1.45
359.279	1.47
359.648	1.36
360.017	1.52
360.387	1.44
360.756	1.34
361.125	1.46
361.494	1.54
361.863	1.39
362.231	1.49
362.6	1.43
362.969	1.43
363.338	1.43
363.707	1.66
364.075	1.57
364.444	1.3
364.813	1.41
365.181	1.54
365.55	1.5
365.918	1.54
366.287	1.52
366.655	1.45
367.024	1.48
367.392	1.52
367.76	1.45
368.128	1.55
368.497	1.37
368.865	1.46
369.233	1.49
369.601	1.45
369.969	1.45
370.337	1.44
370.705	1.47
371.073	1.52
371.441	1.52
371.809	1.5
372.177	1.45
372.544	1.61
372.912	1.43
373.28	1.52
373.647	1.62
374.015	1.54
374.383	1.62
374.75	1.72
375.118	1.5
375.485	1.48
375.853	1.51
376.22	1.44
376.587	1.49
376.955	1.52
377.322	1.64
377.689	1.61
378.056	1.49
378.423	1.44
378.79	1.52
379.157	1.57
379.524	1.71
379.891	1.49
380.258	1.61
380.625	1.65
380.992	1.57
381.359	1.62
381.726	1.71
382.092	1.45
382.459	1.55
382.826	1.57
383.192	1.5
383.559	1.52
383.925	1.58
384.292	1.48
384.658	1.69
385.025	1.49
385.391	1.7
385.757	1.65
386.123	1.65
386.49	1.52
386.856	1.68
387.222	1.66
387.588	1.5
387.954	1.55
388.32	1.65
388.686	1.57
389.052	1.51
389.418	1.58
389.784	1.49
390.15	1.45
390.515	1.39
390.881	1.67
391.247	1.51
391.613	1.46
391.978	1.53
392.344	1.69
392.709	1.58
393.075	1.56
393.44	1.61
393.806	1.72
394.171	1.56
394.536	1.51
394.902	1.53
395.267	1.53
395.632	1.47
395.997	1.49
396.362	1.47
396.727	1.62
397.092	1.55
397.457	1.71
397.822	1.44
398.187	1.48
398.552	1.63
398.917	1.79
399.282	1.43
399.646	1.49
400.011	1.73
400.376	1.49
400.74	1.49
401.105	1.45
401.47	1.53
401.834	1.57
402.199	1.45
402.563	1.49
402.927	1.59
403.292	1.62
403.656	1.6
404.02	1.58
404.384	1.68
404.749	1.61
405.113	1.6
405.477	1.53
405.841	1.58
406.205	1.54
406.569	1.56
406.933	1.56
407.296	1.48
407.66	1.46
408.024	1.49
408.388	1.58
408.752	1.57
409.115	1.62
409.479	1.61
409.842	1.41
410.206	1.43
410.569	1.45
410.933	1.6
411.296	1.47
411.66	1.53
412.023	1.35
412.386	1.52
412.749	1.49
413.113	1.4
413.476	1.39
413.839	1.45
414.202	1.45
414.565	1.35
414.928	1.43
415.291	1.36
415.654	1.38
416.017	1.49
416.38	1.54
416.742	1.38
417.105	1.34
417.468	1.43
417.83	1.39
418.193	1.51
418.556	1.39
418.918	1.43
419.281	1.35
419.643	1.4
420.005	1.49
420.368	1.43
420.73	1.37
421.092	1.45
421.455	1.5
421.817	1.36
422.179	1.39
422.541	1.47
422.903	1.62
423.265	1.49
423.627	1.42
423.989	1.37
424.351	1.39
424.713	1.47
425.075	1.41
425.436	1.36
425.798	1.38
426.16	1.49
426.521	1.38
426.883	1.37
427.245	1.35
427.606	1.41
427.967	1.32
428.329	1.39
428.69	1.47
429.052	1.32
429.413	1.35
429.774	1.46
430.135	1.51
430.497	1.51
430.858	1.34
431.219	1.38
431.58	1.35
431.941	1.44
432.302	1.37
432.663	1.38
433.024	1.39
433.384	1.38
433.745	1.27
434.106	1.38
434.467	1.37
434.827	1.3
435.188	1.33
435.548	1.39
435.909	1.31
436.269	1.36
436.63	1.32
436.99	1.38
437.351	1.24
437.711	1.35
438.071	1.28
438.431	1.29
438.792	1.29
439.152	1.27
439.512	1.29
439.872	1.27
440.232	1.33
440.592	1.26
440.952	1.22
441.312	1.26
441.671	1.27
442.031	1.23
442.391	1.26
442.751	1.22
443.11	1.23
443.47	1.17
443.83	1.2
444.189	1.15
444.549	1.19
444.908	1.17
445.267	1.21
445.627	1.18
445.986	1.18
446.345	1.15
446.705	1.18
447.064	1.16
447.423	1.14
447.782	1.14
448.141	1.15
448.5	1.11
448.859	1.11
449.218	1.1
449.577	1.12
449.936	1.11
450.295	1.1
450.653	1.1
451.012	1.1
451.371	1.07
451.729	1.07
452.088	1.05
452.447	1.07
452.805	1.05
453.163	1.06
453.522	1.04
453.88	1
454.239	1.02
454.597	1.01
454.955	1
455.313	0.98
455.671	1
456.029	0.98
456.388	0.94
456.746	0.96
457.104	0.94
457.461	0.9
457.819	0.93
458.177	0.92
458.535	0.89
458.893	0.89
459.25	0.88
459.608	0.86
459.966	0.84
460.323	0.84
460.681	0.81
461.038	0.83
461.396	0.79
461.753	0.81
462.111	0.79
462.468	0.79
462.825	0.77
463.182	0.75
463.54	0.74
463.897	0.74
464.254	0.73
464.611	0.72
464.968	0.7
465.325	0.7
465.682	0.69
466.039	0.69
466.395	0.67
466.752	0.67
467.109	0.66
467.466	0.65
467.822	0.64
468.179	0.64
468.535	0.63
468.892	0.61
469.248	0.61
469.605	0.6
469.961	0.59
470.318	0.6
470.674	0.57
471.03	0.57
471.386	0.56
471.743	0.54
472.099	0.54
472.455	0.54
472.811	0.52
473.167	0.52
473.523	0.51
473.879	0.51
474.235	0.5
474.59	0.48
474.946	0.48
475.302	0.48
475.657	0.45
476.013	0.46
476.369	0.45
476.724	0.45
477.08	0.44
477.435	0.43
477.791	0.43
478.146	0.43
478.501	0.41
478.857	0.41
479.212	0.41
479.567	0.4
479.922	0.38
480.277	0.38
480.632	0.36
480.987	0.37
481.342	0.36
481.697	0.36
482.052	0.35
482.407	0.35
482.762	0.35
483.116	0.34
483.471	0.33
483.826	0.31
484.18	0.32
484.535	0.32
484.89	0.31
485.244	0.31
485.598	0.31
485.953	0.3
486.307	0.3
486.661	0.29
487.016	0.29
487.37	0.28
487.724	0.28
488.078	0.28
488.432	0.28
488.786	0.27
489.14	0.27
489.494	0.25
489.848	0.25
490.202	0.25
490.556	0.25
490.91	0.25
491.263	0.24
491.617	0.24
491.971	0.24
492.324	0.24
492.678	0.24
493.031	0.23
493.385	0.23
493.738	0.23
494.091	0.22
494.445	0.22
494.798	0.22
495.151	0.21
495.504	0.22
495.857	0.22
496.21	0.22
496.564	0.21
496.916	0.21
497.269	0.2
497.622	0.21
497.975	0.2
498.328	0.2
498.681	0.2
499.033	0.19
499.386	0.19
499.739	0.19
500.091	0.18
500.444	0.18
500.796	0.18
501.149	0.18
501.501	0.19
501.854	0.18
502.206	0.18
502.558	0.18
502.91	0.18
503.263	0.17
503.615	0.18
503.967	0.17
504.319	0.18
504.671	0.17
505.023	0.17
505.375	0.17
505.726	0.17
506.078	0.17
506.43	0.16
506.782	0.17
507.133	0.17
507.485	0.18
507.837	0.18
508.188	0.17
508.54	0.17
508.891	0.18
509.243	0.16
509.594	0.16
509.945	0.16
510.296	0.16
510.648	0.17
510.999	0.16
511.35	0.15
511.701	0.16
512.052	0.17
512.403	0.17
512.754	0.16
513.105	0.16
513.456	0.16
513.807	0.16
514.157	0.16
514.508	0.16
514.859	0.16
515.209	0.16
515.56	0.16
515.91	0.16
516.261	0.16
516.611	0.15
516.962	0.17
517.312	0.16
517.662	0.16
518.013	0.16
518.363	0.17
518.713	0.16
519.063	0.16
519.413	0.16
519.763	0.16
520.113	0.17
520.463	0.17
520.813	0.17
521.163	0.16
521.512	0.16
521.862	0.16
522.212	0.16
522.562	0.16
522.911	0.16
523.261	0.16
523.61	0.16
523.96	0.16
524.309	0.16
524.658	0.16
525.008	0.16
525.357	0.16
525.706	0.16
526.056	0.15
526.405	0.16
526.754	0.16
527.103	0.15
527.452	0.16
527.801	0.16
528.15	0.16
528.499	0.16
528.847	0.17
529.196	0.17
529.545	0.17
529.893	0.17
530.242	0.17
530.591	0.17
530.939	0.17
531.288	0.17
531.636	0.17
531.985	0.17
532.333	0.17
532.681	0.17
533.029	0.17
533.378	0.17
533.726	0.17
534.074	0.17
534.422	0.16
534.77	0.17
535.118	0.17
535.466	0.17
535.814	0.17
536.162	0.17
536.509	0.17
536.857	0.16
537.205	0.17
537.552	0.18
537.9	0.17
538.248	0.17
538.595	0.17
538.943	0.17
539.29	0.17
539.637	0.17
539.985	0.17
540.332	0.17
540.679	0.17
541.026	0.16
541.373	0.18
541.721	0.17
542.068	0.16
542.415	0.16
542.762	0.17
543.108	0.16
543.455	0.16
543.802	0.16
544.149	0.16
544.496	0.17
544.842	0.16
545.189	0.15
545.535	0.16
545.882	0.16
546.228	0.16
546.575	0.15
546.921	0.16
547.267	0.16
547.614	0.16
547.96	0.16
548.306	0.16
548.652	0.16
548.998	0.16
549.344	0.17
549.69	0.17
550.036	0.16
550.382	0.16
550.728	0.16
551.074	0.17
551.42	0.17
551.765	0.16
552.111	0.17
552.457	0.17
552.802	0.17
553.148	0.16
553.493	0.17
553.839	0.17
554.184	0.16
554.529	0.16
554.875	0.17
555.22	0.17
555.565	0.17
555.91	0.16
556.255	0.18
556.6	0.18
556.945	0.17
557.29	0.17
557.635	0.17
557.98	0.17
558.325	0.17
558.67	0.18
559.014	0.17
559.359	0.17
559.704	0.17
560.048	0.17
560.393	0.16
560.737	0.16
561.082	0.16
561.426	0.16
561.77	0.17
562.115	0.16
562.459	0.16
562.803	0.16
563.147	0.16
563.491	0.17
563.835	0.16
564.179	0.17
564.523	0.17
564.867	0.16
565.211	0.16
565.555	0.17
565.899	0.17
566.242	0.17
566.586	0.16
566.93	0.17
567.273	0.17
567.617	0.17
567.96	0.17
568.304	0.18
568.647	0.17
568.99	0.18
569.334	0.18
569.677	0.17
570.02	0.18
570.363	0.18
570.706	0.17
571.049	0.17
571.392	0.18
571.735	0.17
572.078	0.18
572.421	0.18
572.764	0.17
573.106	0.17
573.449	0.17
573.792	0.17
574.134	0.17
574.477	0.17
574.819	0.17
575.162	0.17
575.504	0.17
575.847	0.17
576.189	0.17
576.531	0.17
576.873	0.16
577.215	0.17
577.558	0.17
577.9	0.16
578.242	0.17
578.584	0.17
578.926	0.17
579.267	0.17
579.609	0.16
579.951	0.17
580.293	0.16
580.634	0.17
580.976	0.17
581.318	0.17
581.659	0.16
582.001	0.17
582.342	0.17
582.683	0.17
583.025	0.16
583.366	0.16
583.707	0.17
584.049	0.17
584.39	0.17
584.731	0.16
585.072	0.17
585.413	0.18
585.754	0.17
586.095	0.17
586.435	0.17
586.776	0.17
587.117	0.17
587.458	0.17
587.798	0.17
588.139	0.18
588.48	0.16
588.82	0.17
589.161	0.17
589.501	0.17
589.841	0.16
590.182	0.16
590.522	0.16
590.862	0.17
591.202	0.17
591.542	0.16
591.882	0.17
592.222	0.16
592.562	0.17
592.902	0.16
593.242	0.16
593.582	0.17
593.922	0.16
594.261	0.16
594.601	0.16
594.941	0.16
595.28	0.16
595.62	0.16
595.959	0.16
596.299	0.16
596.638	0.16
596.977	0.17
597.317	0.17
597.656	0.17
597.995	0.17
598.334	0.17
598.673	0.16
599.012	0.16
599.351	0.17
599.69	0.17
600.029	0.17
600.368	0.18
600.707	0.17
601.046	0.17
601.384	0.18
601.723	0.18
602.061	0.17
602.4	0.16
602.738	0.17
603.077	0.17
603.415	0.17
603.754	0.17
604.092	0.17
604.43	0.16
604.768	0.17
605.107	0.17
605.445	0.16
605.783	0.16
606.121	0.16
606.459	0.16
606.796	0.16
607.134	0.16
607.472	0.16
607.81	0.16
608.148	0.16
608.485	0.16
608.823	0.16
609.16	0.15
609.498	0.16
609.835	0.16
610.173	0.16
610.51	0.16
610.847	0.16
611.185	0.16
611.522	0.16
611.859	0.17
612.196	0.16
612.533	0.17
612.87	0.17
613.207	0.17
613.544	0.17
613.881	0.17
614.217	0.17
614.554	0.17
614.891	0.17
615.228	0.16
615.564	0.17
615.901	0.18
616.237	0.17
616.574	0.16
616.91	0.18
617.246	0.17
617.583	0.17
617.919	0.17
618.255	0.17
618.591	0.16
618.927	0.16
619.263	0.17
619.599	0.17
619.935	0.17
620.271	0.18
620.607	0.17
620.943	0.17
621.279	0.17
621.614	0.17
621.95	0.16
622.286	0.17
622.621	0.16
622.957	0.16
623.292	0.16
623.627	0.16
623.963	0.16
624.298	0.16
624.633	0.15
624.968	0.16
625.304	0.17
625.639	0.15
625.974	0.16
626.309	0.15
626.644	0.16
626.979	0.16
627.313	0.15
627.648	0.15
627.983	0.16
628.318	0.16
628.652	0.16
628.987	0.16
629.321	0.16
629.656	0.15
629.99	0.15
630.325	0.15
630.659	0.14
630.993	0.15
631.327	0.15
631.662	0.14
631.996	0.15
632.33	0.15
632.664	0.15
632.998	0.15
633.332	0.14
633.666	0.14
633.999	0.15
634.333	0.14
634.667	0.14
635.001	0.14
635.334	0.14
635.668	0.14
636.001	0.14
636.335	0.14
636.668	0.14
637.001	0.13
637.335	0.13
637.668	0.14
638.001	0.13
638.334	0.13
638.668	0.13
639.001	0.14
639.334	0.13
639.667	0.14
639.999	0.13
640.332	0.14
640.665	0.14
640.998	0.13
641.331	0.14
641.663	0.13
641.996	0.14
642.328	0.14
642.661	0.14
642.993	0.14
643.326	0.15
643.658	0.14
643.99	0.13
644.323	0.14
644.655	0.14
644.987	0.14
645.319	0.15
645.651	0.14
645.983	0.14
646.315	0.14
646.647	0.15
646.979	0.15
647.31	0.15
647.642	0.14
647.974	0.14
648.305	0.15
648.637	0.14
648.968	0.14
649.3	0.14
649.631	0.15
649.963	0.14
650.294	0.14
650.625	0.13
650.957	0.14
651.288	0.14
651.619	0.14
651.95	0.14
652.281	0.15
652.612	0.13
652.943	0.13
653.274	0.15
653.604	0.15
653.935	0.13
654.266	0.14
654.596	0.13
654.927	0.14
655.258	0.14
655.588	0.14
655.918	0.15
656.249	0.12
656.579	0.13
656.909	0.13
657.24	0.13
657.57	0.14
657.9	0.14
658.23	0.14
658.56	0.14
658.89	0.13
659.22	0.13
659.55	0.14
659.88	0.13
660.209	0.14
660.539	0.15
660.869	0.14
661.198	0.14
661.528	0.14
661.857	0.13
662.187	0.13
662.516	0.14
662.846	0.13
663.175	0.13
663.504	0.13
663.833	0.13
664.163	0.13
664.492	0.13
664.821	0.13
665.15	0.13
665.479	0.13
665.807	0.12
666.136	0.13
666.465	0.13
666.794	0.13
667.122	0.13
667.451	0.13
667.78	0.13
668.108	0.14
668.437	0.13
668.765	0.14
669.093	0.14
669.422	0.13
669.75	0.14
670.078	0.13
670.406	0.13
670.734	0.13
671.062	0.13
671.39	0.13
671.718	0.13
672.046	0.13
672.374	0.13
672.702	0.13
673.029	0.12
673.357	0.14
673.685	0.14
674.012	0.13
674.34	0.13
674.667	0.14
674.995	0.14
675.322	0.13
675.649	0.12
675.977	0.12
676.304	0.13
676.631	0.13
676.958	0.13
677.285	0.12
677.612	0.12
677.939	0.12
678.266	0.13
678.593	0.12
678.92	0.12
679.246	0.12
679.573	0.12
679.9	0.12
680.226	0.12
680.553	0.12
680.879	0.12
681.206	0.12
681.532	0.12
681.858	0.13
682.184	0.12
682.511	0.12
682.837	0.12
683.163	0.12
683.489	0.12
683.815	0.12
684.141	0.12
684.467	0.12
684.793	0.12
685.118	0.12
685.444	0.12
685.77	0.11
686.095	0.12
686.421	0.12
686.746	0.12
687.072	0.12
687.397	0.11
687.723	0.13
688.048	0.12
688.373	0.11
688.698	0.11
689.023	0.12
689.349	0.11
689.674	0.11
689.999	0.11
690.323	0.11
690.648	0.11
690.973	0.1
691.298	0.1
691.623	0.11
691.947	0.1
692.272	0.1
692.596	0.11
692.921	0.11
693.245	0.11
693.57	0.11
693.894	0.11
694.218	0.11
694.543	0.11
694.867	0.11
695.191	0.12
695.515	0.11
695.839	0.11
696.163	0.12
696.487	0.11
696.811	0.11
697.135	0.11
697.458	0.1
697.782	0.11
698.106	0.11
698.429	0.11
698.753	0.11
699.076	0.11
699.4	0.1
699.723	0.11
700.046	0.11
700.37	0.11
700.693	0.11
701.016	0.11
701.339	0.11
701.662	0.11
701.985	0.11
702.308	0.1
702.631	0.11
702.954	0.1
703.277	0.1
703.599	0.1
703.922	0.1
704.245	0.1
704.567	0.09
704.89	0.1
705.212	0.1
705.535	0.09
705.857	0.09
706.179	0.09
706.502	0.09
706.824	0.09
707.146	0.09
707.468	0.1
707.79	0.09
708.112	0.1
708.434	0.1
708.756	0.1
709.078	0.09
709.399	0.09
709.721	0.09
710.043	0.1
710.364	0.1
710.686	0.1
711.007	0.1
711.329	0.11
711.65	0.1
711.972	0.1
712.293	0.1
712.614	0.1
712.935	0.1
713.256	0.1
713.577	0.11
713.898	0.1
714.219	0.1
714.54	0.1
714.861	0.09
715.182	0.1
715.503	0.1
715.823	0.1
716.144	0.09
716.464	0.09
716.785	0.09
717.105	0.1
717.426	0.1
717.746	0.09
718.066	0.09
718.387	0.09
718.707	0.09
719.027	0.09
719.347	0.09
719.667	0.09
719.987	0.08
720.307	0.08
720.627	0.08
720.947	0.08
721.266	0.08
721.586	0.07
721.906	0.07
722.225	0.08
722.545	0.08
722.864	0.08
723.184	0.09
723.503	0.08
723.823	0.09
724.142	0.08
724.461	0.08
724.78	0.09
725.099	0.09
725.418	0.08
725.737	0.08
726.056	0.09
726.375	0.08
726.694	0.09
727.013	0.09
727.331	0.08
727.65	0.08
727.969	0.08
728.287	0.08
728.606	0.08
728.924	0.07
729.242	0.08
729.561	0.08
729.879	0.08
730.197	0.09
730.515	0.08
730.834	0.07
731.152	0.08
731.47	0.08
731.788	0.08
732.105	0.08
732.423	0.08
732.741	0.08
733.059	0.08
733.376	0.09
733.694	0.08
734.012	0.09
734.329	0.09
734.647	0.09
734.964	0.09
735.281	0.09
735.599	0.08
735.916	0.09
736.233	0.09
736.55	0.08
736.867	0.08
737.184	0.1
737.501	0.09
737.818	0.09
738.135	0.09
738.452	0.09
738.768	0.09
739.085	0.09
739.402	0.08
739.718	0.08
740.035	0.09
740.351	0.09
740.668	0.08
740.984	0.08
741.3	0.08
741.617	0.08
741.933	0.08
742.249	0.08
742.565	0.08
742.881	0.09
743.197	0.08
743.513	0.08
743.829	0.07
744.144	0.08
744.46	0.07
744.776	0.08
745.091	0.08
745.407	0.08
745.722	0.07
746.038	0.07
746.353	0.08
746.669	0.08
746.984	0.07
747.299	0.07
747.614	0.07
747.93	0.08
748.245	0.07
748.56	0.07
748.875	0.07
749.189	0.07
749.504	0.07
749.819	0.08
750.134	0.06
750.448	0.06
750.763	0.07
751.078	0.06
751.392	0.07
751.707	0.07
752.021	0.07
752.335	0.08
752.65	0.07
752.964	0.07
753.278	0.07
753.592	0.07
753.906	0.06
754.22	0.07
754.534	0.07
754.848	0.07
755.162	0.06
755.476	0.08
755.789	0.08
756.103	0.07
756.417	0.07
756.73	0.07
757.044	0.07
757.357	0.07
757.671	0.07
757.984	0.07
758.297	0.08
758.61	0.08
758.924	0.06
759.237	0.07
759.55	0.06
759.863	0.06
760.176	0.07
760.488	0.06
760.801	0.06
761.114	0.06
761.427	0.06
761.739	0.06
762.052	0.06
762.365	0.06
762.677	0.07
762.99	0.06
763.302	0.06
763.614	0.07
763.926	0.07
764.239	0.07
764.551	0.07
764.863	0.07
765.175	0.07
765.487	0.07
765.799	0.06
766.111	0.05
766.423	0.07
766.734	0.06
767.046	0.06
767.358	0.06
767.669	0.06
767.981	0.06
768.292	0.06
768.604	0.06
768.915	0.06
769.226	0.06
769.537	0.05
769.849	0.07
770.16	0.06
770.471	0.05
770.782	0.05
771.093	0.06
771.404	0.05
771.715	0.05
772.025	0.05
772.336	0.05
772.647	0.04
772.957	0.06
773.268	0.06
773.578	0.05
773.889	0.06
774.199	0.06
774.51	0.06
774.82	0.05
775.13	0.06
775.44	0.06
775.75	0.07
776.06	0.06
776.37	0.06
776.68	0.07
776.99	0.07
777.3	0.06
777.61	0.08
777.92	0.07
778.229	0.06
778.539	0.07
778.848	0.06
779.158	0.07
779.467	0.07
779.777	0.06
780.086	0.07
780.395	0.06
780.704	0.06
781.013	0.06
781.323	0.06
781.632	0.06
781.941	0.06
782.249	0.06
782.558	0.05
782.867	0.06
783.176	0.05
783.485	0.06
783.793	0.06
784.102	0.07
784.41	0.06
784.719	0.06
785.027	0.06
785.335	0.05
785.644	0.06
785.952	0.06
786.26	0.06
786.568	0.05
786.876	0.05
787.184	0.06
787.492	0.06
787.8	0.06
788.108	0.06
788.416	0.06
788.723	0.06
789.031	0.06
789.338	0.06
789.646	0.06
789.953	0.06
790.261	0.06
790.568	0.06
790.876	0.05
791.183	0.06
791.49	0.05
791.797	0.06
792.104	0.06
792.411	0.07
792.718	0.05
793.025	0.06
793.332	0.06
793.639	0.07
793.945	0.07
794.252	0.06
794.559	0.06
794.865	0.06
795.172	0.06
795.478	0.06
795.784	0.06
796.091	0.06
796.397	0.07
796.703	0.07
797.009	0.07
797.315	0.07
797.622	0.07
797.927	0.07
798.233	0.06
798.539	0.07
798.845	0.07
799.151	0.07
799.456	0.07
799.762	0.06
800.068	0.06
800.373	0.07
800.679	0.06
800.984	0.06
801.289	0.06
801.595	0.06
801.9	0.06
802.205	0.06
802.51	0.06
802.815	0.05
803.12	0.07
803.425	0.06
803.73	0.06
804.035	0.07
804.339	0.06
804.644	0.06
804.949	0.06
805.253	0.06
805.558	0.06
805.862	0.05
806.167	0.06
806.471	0.06
806.775	0.06
807.08	0.06
807.384	0.06
807.688	0.06
807.992	0.06
808.296	0.06
808.6	0.07
808.904	0.07
809.207	0.07
809.511	0.07
809.815	0.06
810.119	0.07
810.422	0.07
810.726	0.07
811.029	0.07
811.332	0.07
811.636	0.07
811.939	0.06
812.242	0.07
812.546	0.07
812.849	0.06
813.152	0.07
813.455	0.06
813.758	0.06
814.06	0.06
814.363	0.07
814.666	0.06
814.969	0.06
815.271	0.07
815.574	0.06
815.877	0.06
816.179	0.06
816.481	0.06
816.784	0.06
817.086	0.05
817.388	0.05
817.69	0.04
817.993	0.05
818.295	0.05
818.597	0.06
818.899	0.05
819.2	0.05
819.502	0.04
819.804	0.05
820.106	0.05
820.407	0.04
820.709	0.05
821.01	0.05
821.312	0.05
821.613	0.04
821.915	0.04
822.216	0.04
822.517	0.04
822.818	0.04
823.119	0.05
823.42	0.04
823.721	0.04
824.022	0.04
824.323	0.05
824.624	0.04
824.925	0.05
825.226	0.05
825.526	0.05
825.827	0.04
826.127	0.04
826.428	0.04
826.728	0.04
827.028	0.04
827.329	0.04
827.629	0.03
827.929	0.04
828.229	0.04
828.529	0.04
828.829	0.04
829.129	0.04
829.429	0.04
829.729	0.03
830.029	0.03
830.328	0.04
830.628	0.02
830.927	0.02
831.227	0.03
831.526	0.03
831.826	0.03
832.125	0.03
832.424	0.03
832.724	0.03
833.023	0.03
833.322	0.04
833.621	0.04
833.92	0.02
834.219	0.02
834.518	0.03
834.816	0.02
835.115	0.02
835.414	0.03
835.712	0.02
836.011	0.02
836.309	0.02
836.608	0.01
836.906	0.01
837.205	0.01
837.503	0.01
837.801	0.01
838.099	0.01
838.397	-0.01
838.695	-0
838.993	-0
839.291	-0.01
839.589	-0.01
839.887	-0
840.184	-0.01
840.482	-0.01
840.78	-0.01
841.077	-0.02
841.375	-0.01
841.672	-0
841.969	-0.01
842.267	-0
842.564	-0.01
842.861	0
843.158	-0.01
843.455	-0.03
843.752	-0.02
844.049	-0.02
844.346	-0.02
844.643	-0.02
844.94	-0.02
845.236	-0.01
845.533	-0.01
845.83	-0.02
846.126	-0.02
846.423	-0.02
846.719	-0.02
847.015	-0.01
847.312	-0.03
847.608	-0.03
847.904	-0.04
848.2	-0.04
848.496	-0.03
848.792	-0.03
849.088	-0.03
849.384	-0.04
849.68	-0.05
849.975	-0.04
850.271	-0.05
850.567	-0.05
850.862	-0.05
851.158	-0.04
851.453	-0.04
851.748	-0.06
852.044	-0.05
852.339	-0.06
852.634	-0.07
852.929	-0.05
853.224	-0.06
853.519	-0.06
853.814	-0.05
854.109	-0.07
854.404	-0.06
854.699	-0.06
854.994	-0.05
855.288	-0.05
855.583	-0.05
855.877	-0.06
856.172	-0.06
856.466	-0.06
856.76	-0.06
857.055	-0.06
857.349	-0.07
857.643	-0.07
857.937	-0.08
858.231	-0.08
858.525	-0.08
858.819	-0.08
859.113	-0.09
859.407	-0.09
859.701	-0.09
859.994	-0.1
860.288	-0.08
860.581	-0.09
860.875	-0.1
861.168	-0.11
861.462	-0.1
861.755	-0.1
862.048	-0.1
862.341	-0.1
862.634	-0.1
862.928	-0.1
863.221	-0.11
863.513	-0.11
863.806	-0.11
864.099	-0.11
864.392	-0.11
864.685	-0.1
864.977	-0.11
865.27	-0.12
865.562	-0.12
865.855	-0.11
866.147	-0.12
866.44	-0.11
866.732	-0.12
867.024	-0.12
867.316	-0.11
867.608	-0.13
867.9	-0.12
868.192	-0.13
868.484	-0.12
868.776	-0.13
869.068	-0.12
869.359	-0.13
869.651	-0.13
869.943	-0.14
870.234	-0.14
870.526	-0.15
870.817	-0.14
871.108	-0.13
871.4	-0.13
871.691	-0.14
871.982	-0.15
872.273	-0.15
872.564	-0.16
872.855	-0.15
873.146	-0.14
873.437	-0.14
873.728	-0.15
874.019	-0.15
874.309	-0.15
874.6	-0.15
874.89	-0.15
875.181	-0.16
875.471	-0.15
875.762	-0.16
876.052	-0.14
876.342	-0.13
876.632	-0.17
876.922	-0.16
877.213	-0.16
877.503	-0.18
877.792	-0.16
878.082	-0.17
878.372	-0.16
878.662	-0.18
878.952	-0.17
879.241	-0.17
879.531	-0.15
879.82	-0.17
880.11	-0.18
880.399	-0.18
880.688	-0.16
880.978	-0.16
881.267	-0.16
