Data from 12-12-AQDScycling_Absorbance__368__00368.txt Node

Date: Tue Dec 12 12:28:44 EST 2023
User: kyuminlee
Spectrometer: FLMS00943
Trigger mode: 0
Integration Time (sec): 1.000000E-1
Scans to average: 1
Electric dark correction enabled: true
Nonlinearity correction enabled: false
Boxcar width: 0
XAxis mode: Wavelengths
Number of Pixels in Spectrum: 2048
>>>>>Begin Spectral Data<<<<<
179.651	-0
180.037	-0
180.424	-0
180.81	-0
181.197	0.32
181.583	-0.25
181.97	-0.27
182.356	-0
182.743	-0
183.129	0.19
183.515	1.04
183.901	-2.58
184.288	-0.02
184.674	-0
185.06	-1.04
185.446	-0
185.832	-1.21
186.218	0.42
186.604	-0
186.99	-0.56
187.376	-0
187.762	-0.34
188.148	0.9
188.534	-0.38
188.92	-0.01
189.305	-0
189.691	0.1
190.077	0.17
190.463	0.11
190.848	0.02
191.234	-0.01
191.619	0.05
192.005	0.11
192.391	0.21
192.776	0.1
193.161	0.12
193.547	0.08
193.932	-0.02
194.318	0.03
194.703	0.08
195.088	0.14
195.473	0.28
195.859	0.16
196.244	0.07
196.629	0.18
197.014	0.05
197.399	0.05
197.784	0.09
198.169	0.03
198.554	0.16
198.939	0.03
199.324	0.1
199.709	0.03
200.094	0.07
200.478	-0
200.863	0.1
201.248	0.11
201.633	0.12
202.017	0.08
202.402	0.11
202.787	0.12
203.171	0.05
203.556	0.09
203.94	0.02
204.325	0.18
204.709	0.08
205.093	-0.03
205.478	0.05
205.862	0.04
206.246	0.07
206.631	0.1
207.015	0.08
207.399	0.11
207.783	0.08
208.167	0.12
208.551	0.15
208.935	0.12
209.319	0.06
209.703	-0.01
210.087	0.27
210.471	0.08
210.855	0.11
211.239	0.17
211.623	0.18
212.007	0.27
212.39	0.29
212.774	0.1
213.158	0.09
213.541	0.14
213.925	0.19
214.309	0.22
214.692	0.22
215.076	0.21
215.459	0.19
215.842	0.09
216.226	0.24
216.609	0.27
216.993	0.21
217.376	0.55
217.759	0.38
218.142	0.29
218.525	0.56
218.909	0.26
219.292	0.32
219.675	0.27
220.058	0.34
220.441	0.43
220.824	0.39
221.207	0.44
221.59	0.36
221.973	0.46
222.355	0.57
222.738	0.77
223.121	0.52
223.504	0.46
223.886	0.52
224.269	0.63
224.652	0.56
225.034	0.76
225.417	0.72
225.799	0.69
226.182	0.66
226.564	1.01
226.947	0.76
227.329	0.7
227.711	0.83
228.094	0.98
228.476	0.99
228.858	0.77
229.24	0.73
229.623	0.86
230.005	0.84
230.387	0.75
230.769	0.86
231.151	0.94
231.533	0.93
231.915	0.83
232.297	0.91
232.679	0.89
233.061	0.93
233.442	1.01
233.824	1.07
234.206	1.17
234.588	0.92
234.969	0.98
235.351	0.93
235.733	0.96
236.114	1.02
236.496	0.93
236.877	1.14
237.259	0.95
237.64	1.08
238.022	1.04
238.403	0.9
238.784	1.03
239.165	0.95
239.547	0.91
239.928	0.96
240.309	0.96
240.69	1.07
241.071	1.06
241.452	1.1
241.834	1.04
242.215	1.04
242.595	1.03
242.976	1.05
243.357	1.03
243.738	1.08
244.119	1.24
244.5	1.1
244.881	1.1
245.261	1.08
245.642	1.1
246.023	1.17
246.403	1.07
246.784	1.22
247.164	1.2
247.545	1.19
247.925	1.3
248.306	1.16
248.686	1.27
249.067	1.17
249.447	1.31
249.827	1.46
250.207	1.28
250.588	1.22
250.968	1.36
251.348	1.34
251.728	1.46
252.108	1.29
252.488	1.17
252.868	1.21
253.248	1.31
253.628	1.25
254.008	1.37
254.388	1.29
254.768	1.39
255.147	1.2
255.527	1.31
255.907	1.24
256.287	1.28
256.666	1.42
257.046	1.37
257.425	1.64
257.805	1.25
258.184	1.23
258.564	1.28
258.943	1.32
259.323	1.43
259.702	1.45
260.081	1.4
260.461	1.49
260.84	1.4
261.219	1.6
261.598	1.53
261.977	1.54
262.356	1.42
262.736	1.4
263.115	1.52
263.494	1.34
263.873	1.37
264.251	1.39
264.63	1.41
265.009	1.4
265.388	1.36
265.767	1.3
266.145	1.43
266.524	1.36
266.903	1.38
267.281	1.36
267.66	1.4
268.039	1.41
268.417	1.39
268.796	1.4
269.174	1.4
269.552	1.3
269.931	1.44
270.309	1.45
270.687	1.53
271.066	1.41
271.444	1.42
271.822	1.37
272.2	1.41
272.578	1.23
272.956	1.32
273.334	1.33
273.712	1.41
274.09	1.35
274.468	1.36
274.846	1.29
275.224	1.3
275.602	1.28
275.98	1.46
276.357	1.28
276.735	1.36
277.113	1.42
277.49	1.28
277.868	1.3
278.246	1.28
278.623	1.24
279.001	1.28
279.378	1.32
279.756	1.63
280.133	1.61
280.51	1.3
280.888	1.36
281.265	1.41
281.642	1.44
282.019	1.5
282.396	1.48
282.773	1.35
283.151	1.45
283.528	1.38
283.905	1.36
284.282	1.46
284.659	1.5
285.035	1.39
285.412	1.29
285.789	1.43
286.166	1.36
286.543	1.34
286.919	1.42
287.296	1.28
287.673	1.42
288.049	1.53
288.426	1.37
288.802	1.43
289.179	1.35
289.555	1.53
289.932	1.51
290.308	1.29
290.684	1.3
291.061	1.33
291.437	1.52
291.813	1.31
292.189	1.3
292.565	1.23
292.942	1.33
293.318	1.44
293.694	1.46
294.07	1.2
294.446	1.36
294.822	1.48
295.197	1.43
295.573	1.44
295.949	1.32
296.325	1.3
296.701	1.45
297.076	1.38
297.452	1.36
297.828	1.3
298.203	1.41
298.579	1.39
298.954	1.3
299.33	1.32
299.705	1.23
300.081	1.27
300.456	1.28
300.831	1.25
301.206	1.22
301.582	1.26
301.957	1.22
302.332	1.22
302.707	1.15
303.082	1.09
303.457	1.11
303.832	1.07
304.207	1.08
304.582	1.04
304.957	1.04
305.332	1.04
305.707	0.98
306.082	0.97
306.456	1
306.831	0.96
307.206	0.97
307.58	0.92
307.955	0.88
308.33	0.89
308.704	0.86
309.079	0.8
309.453	0.82
309.828	0.79
310.202	0.8
310.576	0.79
310.951	0.81
311.325	0.77
311.699	0.74
312.073	0.73
312.447	0.72
312.821	0.69
313.196	0.72
313.57	0.68
313.944	0.68
314.317	0.64
314.691	0.7
315.065	0.68
315.439	0.65
315.813	0.68
316.187	0.64
316.56	0.64
316.934	0.65
317.308	0.6
317.681	0.63
318.055	0.6
318.428	0.6
318.802	0.62
319.175	0.59
319.549	0.56
319.922	0.59
320.295	0.58
320.669	0.58
321.042	0.6
321.415	0.57
321.788	0.56
322.162	0.55
322.535	0.57
322.908	0.53
323.281	0.55
323.654	0.56
324.027	0.54
324.4	0.55
324.773	0.54
325.145	0.55
325.518	0.54
325.891	0.56
326.264	0.54
326.636	0.54
327.009	0.54
327.382	0.55
327.754	0.57
328.127	0.54
328.499	0.57
328.872	0.57
329.244	0.57
329.616	0.56
329.989	0.58
330.361	0.6
330.733	0.6
331.106	0.58
331.478	0.6
331.85	0.62
332.222	0.59
332.594	0.62
332.966	0.63
333.338	0.66
333.71	0.64
334.082	0.67
334.454	0.65
334.826	0.66
335.197	0.69
335.569	0.71
335.941	0.67
336.312	0.71
336.684	0.71
337.056	0.73
337.427	0.77
337.799	0.78
338.17	0.76
338.542	0.76
338.913	0.77
339.284	0.79
339.656	0.79
340.027	0.79
340.398	0.82
340.769	0.82
341.141	0.86
341.512	0.82
341.883	0.85
342.254	0.86
342.625	0.87
342.996	0.88
343.367	0.89
343.738	0.91
344.108	0.91
344.479	0.98
344.85	0.93
345.221	0.96
345.591	0.97
345.962	0.96
346.333	0.96
346.703	0.98
347.074	0.96
347.444	1.01
347.815	1.02
348.185	1.04
348.556	1.05
348.926	1.04
349.296	1.09
349.666	1.03
350.037	1.08
350.407	1.11
350.777	1.08
351.147	1.13
351.517	1.26
351.887	1.13
352.257	1.23
352.627	1.16
352.997	1.2
353.367	1.21
353.737	1.28
354.106	1.34
354.476	1.29
354.846	1.31
355.216	1.38
355.585	1.36
355.955	1.37
356.324	1.35
356.694	1.31
357.063	1.34
357.433	1.32
357.802	1.41
358.171	1.45
358.541	1.43
358.91	1.42
359.279	1.47
359.648	1.46
360.017	1.46
360.387	1.5
360.756	1.42
361.125	1.45
361.494	1.55
361.863	1.47
362.231	1.47
362.6	1.47
362.969	1.56
363.338	1.58
363.707	1.6
364.075	1.64
364.444	1.32
364.813	1.48
365.181	1.48
365.55	1.51
365.918	1.6
366.287	1.47
366.655	1.57
367.024	1.61
367.392	1.48
367.76	1.52
368.128	1.48
368.497	1.47
368.865	1.53
369.233	1.56
369.601	1.47
369.969	1.41
370.337	1.6
370.705	1.49
371.073	1.47
371.441	1.52
371.809	1.49
372.177	1.42
372.544	1.61
372.912	1.55
373.28	1.43
373.647	1.53
374.015	1.57
374.383	1.68
374.75	1.66
375.118	1.58
375.485	1.49
375.853	1.6
376.22	1.59
376.587	1.43
376.955	1.47
377.322	1.51
377.689	1.49
378.056	1.47
378.423	1.47
378.79	1.52
379.157	1.61
379.524	1.54
379.891	1.34
380.258	1.61
380.625	1.48
380.992	1.57
381.359	1.54
381.726	1.55
382.092	1.46
382.459	1.55
382.826	1.6
383.192	1.5
383.559	1.54
383.925	1.56
384.292	1.54
384.658	1.72
385.025	1.41
385.391	1.87
385.757	1.52
386.123	1.52
386.49	1.55
386.856	1.59
387.222	1.56
387.588	1.46
387.954	1.58
388.32	1.59
388.686	1.51
389.052	1.57
389.418	1.57
389.784	1.49
390.15	1.67
390.515	1.44
390.881	1.68
391.247	1.42
391.613	1.63
391.978	1.55
392.344	1.53
392.709	1.49
393.075	1.54
393.44	1.68
393.806	1.58
394.171	1.39
394.536	1.47
394.902	1.5
395.267	1.53
395.632	1.46
395.997	1.47
396.362	1.43
396.727	1.5
397.092	1.51
397.457	1.47
397.822	1.52
398.187	1.47
398.552	1.6
398.917	1.66
399.282	1.39
399.646	1.51
400.011	1.64
400.376	1.52
400.74	1.53
401.105	1.43
401.47	1.62
401.834	1.45
402.199	1.52
402.563	1.52
402.927	1.51
403.292	1.54
403.656	1.53
404.02	1.63
404.384	1.64
404.749	1.54
405.113	1.55
405.477	1.59
405.841	1.45
406.205	1.54
406.569	1.44
406.933	1.55
407.296	1.7
407.66	1.56
408.024	1.59
408.388	1.6
408.752	1.42
409.115	1.64
409.479	1.58
409.842	1.45
410.206	1.47
410.569	1.37
410.933	1.62
411.296	1.43
411.66	1.59
412.023	1.43
412.386	1.42
412.749	1.42
413.113	1.52
413.476	1.37
413.839	1.45
414.202	1.5
414.565	1.4
414.928	1.56
415.291	1.4
415.654	1.56
416.017	1.57
416.38	1.42
416.742	1.49
417.105	1.47
417.468	1.42
417.83	1.41
418.193	1.7
418.556	1.38
418.918	1.46
419.281	1.39
419.643	1.56
420.005	1.46
420.368	1.46
420.73	1.35
421.092	1.48
421.455	1.65
421.817	1.45
422.179	1.47
422.541	1.53
422.903	1.75
423.265	1.65
423.627	1.47
423.989	1.5
424.351	1.41
424.713	1.5
425.075	1.46
425.436	1.47
425.798	1.46
426.16	1.58
426.521	1.43
426.883	1.52
427.245	1.58
427.606	1.42
427.967	1.4
428.329	1.38
428.69	1.58
429.052	1.55
429.413	1.62
429.774	1.55
430.135	1.51
430.497	1.73
430.858	1.52
431.219	1.68
431.58	1.47
431.941	1.48
432.302	1.43
432.663	1.54
433.024	1.53
433.384	1.49
433.745	1.48
434.106	1.63
434.467	1.48
434.827	1.52
435.188	1.49
435.548	1.6
435.909	1.5
436.269	1.61
436.63	1.43
436.99	1.46
437.351	1.43
437.711	1.57
438.071	1.39
438.431	1.41
438.792	1.52
439.152	1.47
439.512	1.5
439.872	1.42
440.232	1.53
440.592	1.49
440.952	1.5
441.312	1.39
441.671	1.47
442.031	1.44
442.391	1.45
442.751	1.5
443.11	1.47
443.47	1.4
443.83	1.38
444.189	1.35
444.549	1.46
444.908	1.42
445.267	1.36
445.627	1.34
445.986	1.36
446.345	1.35
446.705	1.41
447.064	1.35
447.423	1.36
447.782	1.32
448.141	1.39
448.5	1.28
448.859	1.32
449.218	1.37
449.577	1.39
449.936	1.37
450.295	1.4
450.653	1.29
451.012	1.32
451.371	1.38
451.729	1.32
452.088	1.35
452.447	1.34
452.805	1.32
453.163	1.34
453.522	1.29
453.88	1.3
454.239	1.29
454.597	1.25
454.955	1.22
455.313	1.22
455.671	1.25
456.029	1.22
456.388	1.21
456.746	1.18
457.104	1.16
457.461	1.17
457.819	1.16
458.177	1.13
458.535	1.11
458.893	1.11
459.25	1.1
459.608	1.09
459.966	1.07
460.323	1.04
460.681	1.05
461.038	1.03
461.396	1
461.753	0.99
462.111	0.98
462.468	0.95
462.825	0.95
463.182	0.95
463.54	0.91
463.897	0.9
464.254	0.89
464.611	0.88
464.968	0.88
465.325	0.87
465.682	0.84
466.039	0.84
466.395	0.83
466.752	0.82
467.109	0.8
467.466	0.78
467.822	0.78
468.179	0.74
468.535	0.75
468.892	0.73
469.248	0.72
469.605	0.7
469.961	0.69
470.318	0.69
470.674	0.67
471.03	0.68
471.386	0.67
471.743	0.63
472.099	0.64
472.455	0.62
472.811	0.6
473.167	0.6
473.523	0.58
473.879	0.57
474.235	0.56
474.59	0.55
474.946	0.53
475.302	0.53
475.657	0.52
476.013	0.5
476.369	0.49
476.724	0.49
477.08	0.48
477.435	0.47
477.791	0.47
478.146	0.46
478.501	0.43
478.857	0.43
479.212	0.43
479.567	0.42
479.922	0.41
480.277	0.39
480.632	0.39
480.987	0.38
481.342	0.38
481.697	0.36
482.052	0.35
482.407	0.35
482.762	0.34
483.116	0.33
483.471	0.32
483.826	0.31
484.18	0.31
484.535	0.3
484.89	0.3
485.244	0.29
485.598	0.29
485.953	0.27
486.307	0.28
486.661	0.27
487.016	0.27
487.37	0.26
487.724	0.24
488.078	0.25
488.432	0.24
488.786	0.23
489.14	0.23
489.494	0.22
489.848	0.21
490.202	0.21
490.556	0.2
490.91	0.2
491.263	0.2
491.617	0.19
491.971	0.19
492.324	0.18
492.678	0.18
493.031	0.18
493.385	0.17
493.738	0.17
494.091	0.17
494.445	0.16
494.798	0.15
495.151	0.15
495.504	0.15
495.857	0.15
496.21	0.15
496.564	0.14
496.916	0.14
497.269	0.13
497.622	0.13
497.975	0.13
498.328	0.12
498.681	0.13
499.033	0.12
499.386	0.11
499.739	0.11
500.091	0.11
500.444	0.11
500.796	0.11
501.149	0.11
501.501	0.11
501.854	0.1
502.206	0.1
502.558	0.09
502.91	0.09
503.263	0.09
503.615	0.09
503.967	0.09
504.319	0.08
504.671	0.08
505.023	0.08
505.375	0.08
505.726	0.07
506.078	0.08
506.43	0.07
506.782	0.06
507.133	0.07
507.485	0.07
507.837	0.08
508.188	0.07
508.54	0.07
508.891	0.07
509.243	0.06
509.594	0.06
509.945	0.06
510.296	0.06
510.648	0.06
510.999	0.05
511.35	0.06
511.701	0.05
512.052	0.06
512.403	0.06
512.754	0.05
513.105	0.05
513.456	0.04
513.807	0.04
514.157	0.05
514.508	0.05
514.859	0.04
515.209	0.04
515.56	0.05
515.91	0.04
516.261	0.05
516.611	0.04
516.962	0.05
517.312	0.04
517.662	0.05
518.013	0.04
518.363	0.04
518.713	0.04
519.063	0.04
519.413	0.04
519.763	0.04
520.113	0.03
520.463	0.04
520.813	0.05
521.163	0.04
521.512	0.04
521.862	0.04
522.212	0.04
522.562	0.04
522.911	0.03
523.261	0.04
523.61	0.04
523.96	0.03
524.309	0.04
524.658	0.03
525.008	0.03
525.357	0.03
525.706	0.04
526.056	0.04
526.405	0.03
526.754	0.03
527.103	0.03
527.452	0.03
527.801	0.04
528.15	0.03
528.499	0.03
528.847	0.03
529.196	0.03
529.545	0.04
529.893	0.03
530.242	0.03
530.591	0.04
530.939	0.04
531.288	0.03
531.636	0.04
531.985	0.04
532.333	0.03
532.681	0.03
533.029	0.03
533.378	0.03
533.726	0.03
534.074	0.04
534.422	0.03
534.77	0.04
535.118	0.04
535.466	0.03
535.814	0.03
536.162	0.03
536.509	0.03
536.857	0.03
537.205	0.04
537.552	0.03
537.9	0.03
538.248	0.02
538.595	0.03
538.943	0.03
539.29	0.03
539.637	0.03
539.985	0.03
540.332	0.03
540.679	0.03
541.026	0.03
541.373	0.03
541.721	0.02
542.068	0.02
542.415	0.02
542.762	0.02
543.108	0.02
543.455	0.02
543.802	0.02
544.149	0.02
544.496	0.02
544.842	0.01
545.189	0.01
545.535	0.02
545.882	0.02
546.228	0.01
546.575	0.02
546.921	0.01
547.267	0.01
547.614	0.02
547.96	0.02
548.306	0.01
548.652	0.02
548.998	0.02
549.344	0.02
549.69	0.02
550.036	0.02
550.382	0.02
550.728	0.01
551.074	0.03
551.42	0.02
551.765	0.02
552.111	0.02
552.457	0.02
552.802	0.01
553.148	0.02
553.493	0.02
553.839	0.02
554.184	0.03
554.529	0.01
554.875	0.02
555.22	0.03
555.565	0.03
555.91	0.02
556.255	0.03
556.6	0.03
556.945	0.02
557.29	0.02
557.635	0.03
557.98	0.02
558.325	0.02
558.67	0.02
559.014	0.02
559.359	0.03
559.704	0.02
560.048	0.02
560.393	0.02
560.737	0.01
561.082	0.02
561.426	0.02
561.77	0.01
562.115	0.01
562.459	0.01
562.803	0.02
563.147	0.02
563.491	0.02
563.835	0.02
564.179	0.02
564.523	0.02
564.867	0.02
565.211	0.01
565.555	0.02
565.899	0.02
566.242	0.02
566.586	0.01
566.93	0.02
567.273	0.03
567.617	0.02
567.96	0.02
568.304	0.02
568.647	0.02
568.99	0.02
569.334	0.03
569.677	0.02
570.02	0.03
570.363	0.02
570.706	0.02
571.049	0.02
571.392	0.03
571.735	0.02
572.078	0.02
572.421	0.04
572.764	0.02
573.106	0.02
573.449	0.01
573.792	0.01
574.134	0.02
574.477	0.02
574.819	0.02
575.162	0.01
575.504	0.01
575.847	0.01
576.189	0.02
576.531	0.02
576.873	0.02
577.215	0.02
577.558	0.03
577.9	0.02
578.242	0.02
578.584	0.02
578.926	0.02
579.267	0.02
579.609	0.02
579.951	0.02
580.293	0.01
580.634	0.02
580.976	0.03
581.318	0.02
581.659	0.02
582.001	0.02
582.342	0.02
582.683	0.02
583.025	0.02
583.366	0.02
583.707	0.02
584.049	0.02
584.39	0.02
584.731	0.01
585.072	0.02
585.413	0.02
585.754	0.02
586.095	0.02
586.435	0.03
586.776	0.02
587.117	0.02
587.458	0.02
587.798	0.02
588.139	0.02
588.48	0.02
588.82	0.02
589.161	0.02
589.501	0.02
589.841	0.02
590.182	0.01
590.522	0.02
590.862	0.01
591.202	0.01
591.542	0.01
591.882	0.01
592.222	0.02
592.562	0.02
592.902	0.01
593.242	0.01
593.582	0.03
593.922	0.02
594.261	0.01
594.601	0.02
594.941	0.02
595.28	0.02
595.62	0.02
595.959	0.02
596.299	0.02
596.638	0.02
596.977	0.02
597.317	0.02
597.656	0.02
597.995	0.02
598.334	0.03
598.673	0.02
599.012	0.02
599.351	0.03
599.69	0.01
600.029	0.03
600.368	0.02
600.707	0.02
601.046	0.02
601.384	0.03
601.723	0.02
602.061	0.01
602.4	0.02
602.738	0.02
603.077	0.02
603.415	0.02
603.754	0.02
604.092	0.02
604.43	0.02
604.768	0.02
605.107	0.02
605.445	0.01
605.783	0.01
606.121	0.02
606.459	0.02
606.796	0.02
607.134	0.01
607.472	0.01
607.81	0.02
608.148	0.02
608.485	0.02
608.823	0.02
609.16	0.02
609.498	0.02
609.835	0.02
610.173	0.01
610.51	0.03
610.847	0.02
611.185	0.02
611.522	0.02
611.859	0.03
612.196	0.03
612.533	0.03
612.87	0.03
613.207	0.03
613.544	0.03
613.881	0.04
614.217	0.03
614.554	0.03
614.891	0.03
615.228	0.03
615.564	0.03
615.901	0.03
616.237	0.03
616.574	0.03
616.91	0.04
617.246	0.03
617.583	0.03
617.919	0.04
618.255	0.04
618.591	0.03
618.927	0.03
619.263	0.04
619.599	0.04
619.935	0.04
620.271	0.04
620.607	0.04
620.943	0.03
621.279	0.04
621.614	0.03
621.95	0.03
622.286	0.03
622.621	0.03
622.957	0.03
623.292	0.02
623.627	0.03
623.963	0.02
624.298	0.03
624.633	0.02
624.968	0.02
625.304	0.02
625.639	0.02
625.974	0.02
626.309	0.02
626.644	0.02
626.979	0.02
627.313	0.02
627.648	0.02
627.983	0.03
628.318	0.02
628.652	0.02
628.987	0.02
629.321	0.02
629.656	0.02
629.99	0.02
630.325	0.02
630.659	0.02
630.993	0.02
631.327	0.02
631.662	0.01
631.996	0.02
632.33	0.02
632.664	0.03
632.998	0.02
633.332	0.02
633.666	0.02
633.999	0.02
634.333	0.01
634.667	0.02
635.001	0.01
635.334	0.02
635.668	0.02
636.001	0.02
636.335	0.02
636.668	0.02
637.001	0.02
637.335	0.02
637.668	0.02
638.001	0.02
638.334	0.02
638.668	0.01
639.001	0.01
639.334	0.01
639.667	0.01
639.999	0.01
640.332	0.01
640.665	0.01
640.998	0.01
641.331	0.01
641.663	0.01
641.996	0.02
642.328	0.02
642.661	0.01
642.993	0.01
643.326	0.02
643.658	0.01
643.99	0.01
644.323	0.01
644.655	0.01
644.987	0.01
645.319	0.02
645.651	0.02
645.983	0.01
646.315	0.01
646.647	0.02
646.979	0.02
647.31	0.02
647.642	0.02
647.974	0.02
648.305	0.02
648.637	0.02
648.968	0.02
649.3	0.02
649.631	0.02
649.963	0.02
650.294	0.03
650.625	0.02
650.957	0.03
651.288	0.03
651.619	0.02
651.95	0.02
652.281	0.03
652.612	0.02
652.943	0.02
653.274	0.04
653.604	0.02
653.935	0.02
654.266	0.03
654.596	0.02
654.927	0.02
655.258	0.03
655.588	0.03
655.918	0.03
656.249	0.01
656.579	0.03
656.909	0.02
657.24	0.02
657.57	0.03
657.9	0.03
658.23	0.03
658.56	0.03
658.89	0.04
659.22	0.03
659.55	0.03
659.88	0.03
660.209	0.03
660.539	0.04
660.869	0.04
661.198	0.04
661.528	0.04
661.857	0.03
662.187	0.04
662.516	0.03
662.846	0.03
663.175	0.03
663.504	0.04
663.833	0.03
664.163	0.04
664.492	0.03
664.821	0.03
665.15	0.03
665.479	0.03
665.807	0.02
666.136	0.03
666.465	0.03
666.794	0.03
667.122	0.03
667.451	0.03
667.78	0.03
668.108	0.03
668.437	0.03
668.765	0.03
669.093	0.03
669.422	0.03
669.75	0.03
670.078	0.03
670.406	0.03
670.734	0.03
671.062	0.03
671.39	0.02
671.718	0.03
672.046	0.03
672.374	0.03
672.702	0.03
673.029	0.03
673.357	0.03
673.685	0.04
674.012	0.03
674.34	0.03
674.667	0.04
674.995	0.04
675.322	0.04
675.649	0.03
675.977	0.03
676.304	0.03
676.631	0.03
676.958	0.03
677.285	0.03
677.612	0.02
677.939	0.04
678.266	0.04
678.593	0.03
678.92	0.04
679.246	0.03
679.573	0.03
679.9	0.03
680.226	0.03
680.553	0.03
680.879	0.03
681.206	0.03
681.532	0.03
681.858	0.03
682.184	0.02
682.511	0.03
682.837	0.02
683.163	0.03
683.489	0.03
683.815	0.02
684.141	0.03
684.467	0.03
684.793	0.02
685.118	0.03
685.444	0.03
685.77	0.02
686.095	0.03
686.421	0.03
686.746	0.03
687.072	0.03
687.397	0.03
687.723	0.04
688.048	0.04
688.373	0.03
688.698	0.04
689.023	0.04
689.349	0.03
689.674	0.04
689.999	0.03
690.323	0.03
690.648	0.03
690.973	0.03
691.298	0.03
691.623	0.03
691.947	0.04
692.272	0.03
692.596	0.03
692.921	0.04
693.245	0.03
693.57	0.03
693.894	0.04
694.218	0.03
694.543	0.03
694.867	0.03
695.191	0.02
695.515	0.03
695.839	0.02
696.163	0.03
696.487	0.03
696.811	0.03
697.135	0.03
697.458	0.03
697.782	0.03
698.106	0.03
698.429	0.03
698.753	0.03
699.076	0.03
699.4	0.03
699.723	0.03
700.046	0.02
700.37	0.03
700.693	0.04
701.016	0.03
701.339	0.03
701.662	0.04
701.985	0.03
702.308	0.03
702.631	0.03
702.954	0.03
703.277	0.03
703.599	0.03
703.922	0.03
704.245	0.03
704.567	0.03
704.89	0.02
705.212	0.02
705.535	0.02
705.857	0.02
706.179	0.02
706.502	0.02
706.824	0.02
707.146	0.02
707.468	0.03
707.79	0.02
708.112	0.03
708.434	0.02
708.756	0.03
709.078	0.03
709.399	0.03
709.721	0.02
710.043	0.03
710.364	0.03
710.686	0.03
711.007	0.03
711.329	0.03
711.65	0.03
711.972	0.03
712.293	0.03
712.614	0.03
712.935	0.04
713.256	0.03
713.577	0.04
713.898	0.03
714.219	0.03
714.54	0.03
714.861	0.02
715.182	0.03
715.503	0.03
715.823	0.03
716.144	0.03
716.464	0.02
716.785	0.02
717.105	0.02
717.426	0.03
717.746	0.02
718.066	0.02
718.387	0.02
718.707	0.02
719.027	0.03
719.347	0.01
719.667	0.03
719.987	0.01
720.307	0.02
720.627	0.02
720.947	0.02
721.266	0.02
721.586	0.02
721.906	0.02
722.225	0.01
722.545	0.02
722.864	0.02
723.184	0.02
723.503	0.02
723.823	0.02
724.142	0.01
724.461	0.02
724.78	0.02
725.099	0.02
725.418	0.02
725.737	0.02
726.056	0.02
726.375	0.02
726.694	0.02
727.013	0.02
727.331	0.02
727.65	0.02
727.969	0.02
728.287	0.03
728.606	0.03
728.924	0.02
729.242	0.02
729.561	0.02
729.879	0.02
730.197	0.03
730.515	0.02
730.834	0.02
731.152	0.02
731.47	0.02
731.788	0.03
732.105	0.02
732.423	0.02
732.741	0.02
733.059	0.02
733.376	0.03
733.694	0.02
734.012	0.02
734.329	0.02
734.647	0.02
734.964	0.03
735.281	0.03
735.599	0.03
735.916	0.02
736.233	0.02
736.55	0.03
736.867	0.03
737.184	0.04
737.501	0.03
737.818	0.03
738.135	0.03
738.452	0.02
738.768	0.03
739.085	0.03
739.402	0.02
739.718	0.03
740.035	0.03
740.351	0.03
740.668	0.02
740.984	0.02
741.3	0.03
741.617	0.04
741.933	0.02
742.249	0.03
742.565	0.03
742.881	0.03
743.197	0.03
743.513	0.03
743.829	0.02
744.144	0.03
744.46	0.02
744.776	0.03
745.091	0.03
745.407	0.02
745.722	0.02
746.038	0.02
746.353	0.02
746.669	0.03
746.984	0.01
747.299	0.01
747.614	0.04
747.93	0.03
748.245	0.03
748.56	0.03
748.875	0.03
749.189	0.02
749.504	0.02
749.819	0.03
750.134	0.02
750.448	0.03
750.763	0.02
751.078	0.02
751.392	0.02
751.707	0.04
752.021	0.03
752.335	0.04
752.65	0.04
752.964	0.03
753.278	0.03
753.592	0.03
753.906	0.03
754.22	0.03
754.534	0.03
754.848	0.04
755.162	0.03
755.476	0.03
755.789	0.04
756.103	0.03
756.417	0.03
756.73	0.04
757.044	0.04
757.357	0.03
757.671	0.03
757.984	0.03
758.297	0.05
758.61	0.04
758.924	0.04
759.237	0.03
759.55	0.03
759.863	0.03
760.176	0.03
760.488	0.03
760.801	0.03
761.114	0.03
761.427	0.03
761.739	0.03
762.052	0.03
762.365	0.02
762.677	0.03
762.99	0.03
763.302	0.03
763.614	0.03
763.926	0.04
764.239	0.03
764.551	0.03
764.863	0.03
765.175	0.03
765.487	0.03
765.799	0.02
766.111	0.02
766.423	0.03
766.734	0.03
767.046	0.02
767.358	0.03
767.669	0.03
767.981	0.03
768.292	0.03
768.604	0.03
768.915	0.03
769.226	0.03
769.537	0.02
769.849	0.03
770.16	0.03
770.471	0.02
770.782	0.02
771.093	0.02
771.404	0.01
771.715	0.02
772.025	0.02
772.336	0.02
772.647	0.02
772.957	0.02
773.268	0.02
773.578	0.02
773.889	0.03
774.199	0.03
774.51	0.03
774.82	0.02
775.13	0.02
775.44	0.03
775.75	0.03
776.06	0.02
776.37	0.02
776.68	0.03
776.99	0.02
777.3	0.03
777.61	0.04
777.92	0.03
778.229	0.03
778.539	0.03
778.848	0.03
779.158	0.03
779.467	0.03
779.777	0.03
780.086	0.04
780.395	0.02
780.704	0.03
781.013	0.02
781.323	0.03
781.632	0.03
781.941	0.03
782.249	0.03
782.558	0.03
782.867	0.03
783.176	0.03
783.485	0.02
783.793	0.03
784.102	0.03
784.41	0.02
784.719	0.03
785.027	0.03
785.335	0.03
785.644	0.02
785.952	0.02
786.26	0.03
786.568	0.02
786.876	0.02
787.184	0.02
787.492	0.02
787.8	0.02
788.108	0.02
788.416	0.02
788.723	0.03
789.031	0.02
789.338	0.03
789.646	0.02
789.953	0.03
790.261	0.03
790.568	0.03
790.876	0.03
791.183	0.03
791.49	0.02
791.797	0.03
792.104	0.03
792.411	0.04
792.718	0.02
793.025	0.03
793.332	0.02
793.639	0.04
793.945	0.05
794.252	0.04
794.559	0.03
794.865	0.04
795.172	0.04
795.478	0.04
795.784	0.04
796.091	0.04
796.397	0.04
796.703	0.04
797.009	0.05
797.315	0.05
797.622	0.04
797.927	0.04
798.233	0.03
798.539	0.04
798.845	0.04
799.151	0.04
799.456	0.05
799.762	0.04
800.068	0.04
800.373	0.05
800.679	0.03
800.984	0.04
801.289	0.04
801.595	0.04
801.9	0.04
802.205	0.03
802.51	0.04
802.815	0.04
803.12	0.04
803.425	0.04
803.73	0.03
804.035	0.04
804.339	0.03
804.644	0.03
804.949	0.03
805.253	0.04
805.558	0.03
805.862	0.03
806.167	0.04
806.471	0.03
806.775	0.04
807.08	0.03
807.384	0.03
807.688	0.04
807.992	0.04
808.296	0.03
808.6	0.04
808.904	0.04
809.207	0.04
809.511	0.04
809.815	0.04
810.119	0.04
810.422	0.04
810.726	0.05
811.029	0.06
811.332	0.04
811.636	0.05
811.939	0.05
812.242	0.05
812.546	0.05
812.849	0.05
813.152	0.05
813.455	0.05
813.758	0.05
814.06	0.05
814.363	0.04
814.666	0.05
814.969	0.05
815.271	0.04
815.574	0.04
815.877	0.05
816.179	0.04
816.481	0.04
816.784	0.04
817.086	0.04
817.388	0.03
817.69	0.04
817.993	0.03
818.295	0.04
818.597	0.03
818.899	0.04
819.2	0.03
819.502	0.03
819.804	0.03
820.106	0.03
820.407	0.03
820.709	0.04
821.01	0.04
821.312	0.03
821.613	0.02
821.915	0.03
822.216	0.02
822.517	0.03
822.818	0.03
823.119	0.03
823.42	0.03
823.721	0.02
824.022	0.03
824.323	0.03
824.624	0.03
824.925	0.03
825.226	0.04
825.526	0.02
825.827	0.03
826.127	0.03
826.428	0.03
826.728	0.02
827.028	0.03
827.329	0.03
827.629	0.02
827.929	0.03
828.229	0.03
828.529	0.03
828.829	0.03
829.129	0.03
829.429	0.03
829.729	0.02
830.029	0.02
830.328	0.02
830.628	0.01
830.927	0.01
831.227	0.02
831.526	0.02
831.826	0.02
832.125	0.01
832.424	0.02
832.724	0.01
833.023	0.01
833.322	0.02
833.621	0.02
833.92	0.01
834.219	0.01
834.518	0.02
834.816	0.01
835.115	0
835.414	0.01
835.712	0.01
836.011	0.01
836.309	0
836.608	0
836.906	-0
837.205	-0
837.503	-0
837.801	0
838.099	-0.01
838.397	-0.02
838.695	-0.02
838.993	0
839.291	-0.02
839.589	-0.01
839.887	-0.01
840.184	-0.01
840.482	-0.01
840.78	-0.01
841.077	-0.02
841.375	-0.02
841.672	-0.01
841.969	-0.02
842.267	-0.03
842.564	-0.02
842.861	-0.02
843.158	-0.02
843.455	-0.04
843.752	-0.03
844.049	-0.03
844.346	-0.03
844.643	-0.03
844.94	-0.03
845.236	-0.02
845.533	-0.04
845.83	-0.04
846.126	-0.04
846.423	-0.04
846.719	-0.05
847.015	-0.05
847.312	-0.05
847.608	-0.05
847.904	-0.06
848.2	-0.06
848.496	-0.06
848.792	-0.06
849.088	-0.04
849.384	-0.05
849.68	-0.06
849.975	-0.05
850.271	-0.06
850.567	-0.06
850.862	-0.07
851.158	-0.06
851.453	-0.06
851.748	-0.07
852.044	-0.07
852.339	-0.07
852.634	-0.09
852.929	-0.06
853.224	-0.08
853.519	-0.08
853.814	-0.07
854.109	-0.08
854.404	-0.08
854.699	-0.08
854.994	-0.08
855.288	-0.08
855.583	-0.07
855.877	-0.08
856.172	-0.08
856.466	-0.08
856.76	-0.08
857.055	-0.09
857.349	-0.1
857.643	-0.1
857.937	-0.1
858.231	-0.1
858.525	-0.11
858.819	-0.1
859.113	-0.11
859.407	-0.11
859.701	-0.1
859.994	-0.11
860.288	-0.1
860.581	-0.11
860.875	-0.11
861.168	-0.12
861.462	-0.11
861.755	-0.11
862.048	-0.12
862.341	-0.11
862.634	-0.11
862.928	-0.1
863.221	-0.12
863.513	-0.12
863.806	-0.11
864.099	-0.12
864.392	-0.12
864.685	-0.12
864.977	-0.12
865.27	-0.13
865.562	-0.12
865.855	-0.12
866.147	-0.13
866.44	-0.12
866.732	-0.12
867.024	-0.13
867.316	-0.13
867.608	-0.13
867.9	-0.13
868.192	-0.14
868.484	-0.14
868.776	-0.14
869.068	-0.14
869.359	-0.14
869.651	-0.15
869.943	-0.15
870.234	-0.15
870.526	-0.15
870.817	-0.16
871.108	-0.14
871.4	-0.16
871.691	-0.17
871.982	-0.18
872.273	-0.17
872.564	-0.17
872.855	-0.17
873.146	-0.17
873.437	-0.18
873.728	-0.17
874.019	-0.17
874.309	-0.18
874.6	-0.17
874.89	-0.17
875.181	-0.18
875.471	-0.17
875.762	-0.18
876.052	-0.17
876.342	-0.16
876.632	-0.17
876.922	-0.19
877.213	-0.17
877.503	-0.19
877.792	-0.16
878.082	-0.19
878.372	-0.17
878.662	-0.19
878.952	-0.18
879.241	-0.18
879.531	-0.17
879.82	-0.17
880.11	-0.18
880.399	-0.17
880.688	-0.17
880.978	-0.17
881.267	-0.17
