Data from 12-12-AQDScycling_Absorbance__566__00566.txt Node

Date: Tue Dec 12 13:18:14 EST 2023
User: kyuminlee
Spectrometer: FLMS00943
Trigger mode: 0
Integration Time (sec): 1.000000E-1
Scans to average: 1
Electric dark correction enabled: true
Nonlinearity correction enabled: false
Boxcar width: 0
XAxis mode: Wavelengths
Number of Pixels in Spectrum: 2048
>>>>>Begin Spectral Data<<<<<
179.651	-0
180.037	-0
180.424	-0
180.81	-0
181.197	0.11
181.583	-0
181.97	-0.53
182.356	-0
182.743	-0
183.129	-0
183.515	-0
183.901	-1.99
184.288	0.13
184.674	-0
185.06	-0.54
185.446	-0
185.832	0.03
186.218	0.2
186.604	-0
186.99	-0
187.376	-0
187.762	-0
188.148	-0
188.534	1.07
188.92	0.17
189.305	0.06
189.691	0.14
190.077	0.04
190.463	-0.03
190.848	0.07
191.234	0.18
191.619	0.05
192.005	0.2
192.391	0.16
192.776	0.09
193.161	-0.03
193.547	0.05
193.932	0.15
194.318	0.07
194.703	0.09
195.088	0.11
195.473	0.09
195.859	0.24
196.244	0.22
196.629	-0.02
197.014	0.04
197.399	0.13
197.784	0.14
198.169	0.23
198.554	0.34
198.939	0.07
199.324	0.15
199.709	0.02
200.094	0.06
200.478	0.03
200.863	0.1
201.248	0.05
201.633	0.02
202.017	0.05
202.402	0.27
202.787	0.23
203.171	0.12
203.556	0.12
203.94	0.06
204.325	0.19
204.709	0.31
205.093	0.07
205.478	0.21
205.862	0.37
206.246	0.13
206.631	0.19
207.015	0.13
207.399	0.24
207.783	0.09
208.167	0.22
208.551	0.18
208.935	0.2
209.319	0.2
209.703	0.06
210.087	0.29
210.471	0.06
210.855	0.04
211.239	0.14
211.623	0.21
212.007	0.3
212.39	0.27
212.774	0.12
213.158	0.14
213.541	0.13
213.925	0.23
214.309	0.24
214.692	0.23
215.076	0.33
215.459	0.14
215.842	0.21
216.226	0.08
216.609	0.33
216.993	0.09
217.376	0.56
217.759	0.25
218.142	0.42
218.525	0.47
218.909	0.34
219.292	0.35
219.675	0.33
220.058	0.53
220.441	0.42
220.824	0.58
221.207	0.73
221.59	0.41
221.973	0.5
222.355	0.56
222.738	0.53
223.121	0.45
223.504	0.53
223.886	0.63
224.269	0.63
224.652	0.72
225.034	0.68
225.417	0.73
225.799	0.68
226.182	0.87
226.564	0.85
226.947	0.76
227.329	0.85
227.711	0.89
228.094	0.91
228.476	0.99
228.858	0.87
229.24	0.76
229.623	1.07
230.005	0.72
230.387	0.83
230.769	0.73
231.151	0.81
231.533	0.91
231.915	0.89
232.297	0.95
232.679	0.92
233.061	1.08
233.442	1.09
233.824	0.93
234.206	1.14
234.588	1.09
234.969	0.93
235.351	0.99
235.733	1.07
236.114	1.21
236.496	1.14
236.877	1.01
237.259	0.99
237.64	1.12
238.022	0.98
238.403	1.04
238.784	1.06
239.165	1.03
239.547	1.17
239.928	0.98
240.309	1.02
240.69	1.01
241.071	1.14
241.452	1.06
241.834	1.04
242.215	1.06
242.595	1.1
242.976	1.03
243.357	1.07
243.738	1.11
244.119	1.18
244.5	1.07
244.881	1.18
245.261	1.17
245.642	1.09
246.023	1.17
246.403	1.16
246.784	1.35
247.164	1.27
247.545	1.35
247.925	1.19
248.306	1.16
248.686	1.36
249.067	1.22
249.447	1.29
249.827	1.54
250.207	1.33
250.588	1.22
250.968	1.4
251.348	1.37
251.728	1.49
252.108	1.3
252.488	1.31
252.868	1.35
253.248	1.27
253.628	1.45
254.008	1.32
254.388	1.28
254.768	1.41
255.147	1.29
255.527	1.37
255.907	1.23
256.287	1.4
256.666	1.33
257.046	1.54
257.425	1.48
257.805	1.29
258.184	1.35
258.564	1.37
258.943	1.36
259.323	1.36
259.702	1.41
260.081	1.48
260.461	1.43
260.84	1.37
261.219	1.54
261.598	1.44
261.977	1.38
262.356	1.58
262.736	1.33
263.115	1.54
263.494	1.39
263.873	1.5
264.251	1.46
264.63	1.49
265.009	1.52
265.388	1.44
265.767	1.36
266.145	1.4
266.524	1.35
266.903	1.41
267.281	1.4
267.66	1.62
268.039	1.4
268.417	1.37
268.796	1.44
269.174	1.47
269.552	1.3
269.931	1.45
270.309	1.52
270.687	1.61
271.066	1.45
271.444	1.3
271.822	1.5
272.2	1.46
272.578	1.38
272.956	1.38
273.334	1.39
273.712	1.31
274.09	1.35
274.468	1.25
274.846	1.31
275.224	1.34
275.602	1.44
275.98	1.43
276.357	1.38
276.735	1.43
277.113	1.43
277.49	1.33
277.868	1.44
278.246	1.47
278.623	1.35
279.001	1.25
279.378	1.34
279.756	1.49
280.133	1.51
280.51	1.33
280.888	1.47
281.265	1.26
281.642	1.48
282.019	1.34
282.396	1.42
282.773	1.41
283.151	1.39
283.528	1.43
283.905	1.41
284.282	1.62
284.659	1.63
285.035	1.42
285.412	1.34
285.789	1.53
286.166	1.62
286.543	1.43
286.919	1.49
287.296	1.43
287.673	1.53
288.049	1.48
288.426	1.83
288.802	1.47
289.179	1.59
289.555	1.6
289.932	1.45
290.308	1.34
290.684	1.26
291.061	1.28
291.437	1.21
291.813	1.39
292.189	1.31
292.565	1.31
292.942	1.31
293.318	1.34
293.694	1.59
294.07	1.24
294.446	1.26
294.822	1.79
295.197	1.33
295.573	1.39
295.949	1.43
296.325	1.41
296.701	1.46
297.076	1.48
297.452	1.47
297.828	1.4
298.203	1.52
298.579	1.25
298.954	1.26
299.33	1.31
299.705	1.32
300.081	1.26
300.456	1.41
300.831	1.25
301.206	1.25
301.582	1.29
301.957	1.22
302.332	1.26
302.707	1.15
303.082	1.15
303.457	1.16
303.832	1.15
304.207	1.1
304.582	1.1
304.957	1.09
305.332	1.07
305.707	1.06
306.082	1.06
306.456	1.07
306.831	0.99
307.206	1.04
307.58	1
307.955	0.98
308.33	0.93
308.704	0.94
309.079	0.89
309.453	0.9
309.828	0.93
310.202	0.87
310.576	0.84
310.951	0.82
311.325	0.84
311.699	0.83
312.073	0.81
312.447	0.82
312.821	0.81
313.196	0.8
313.57	0.74
313.944	0.75
314.317	0.73
314.691	0.74
315.065	0.75
315.439	0.76
315.813	0.73
316.187	0.73
316.56	0.72
316.934	0.71
317.308	0.7
317.681	0.7
318.055	0.7
318.428	0.67
318.802	0.72
319.175	0.66
319.549	0.68
319.922	0.67
320.295	0.68
320.669	0.67
321.042	0.69
321.415	0.67
321.788	0.65
322.162	0.63
322.535	0.66
322.908	0.65
323.281	0.64
323.654	0.67
324.027	0.64
324.4	0.64
324.773	0.65
325.145	0.66
325.518	0.64
325.891	0.64
326.264	0.64
326.636	0.68
327.009	0.65
327.382	0.67
327.754	0.65
328.127	0.65
328.499	0.68
328.872	0.65
329.244	0.68
329.616	0.64
329.989	0.67
330.361	0.66
330.733	0.68
331.106	0.69
331.478	0.69
331.85	0.73
332.222	0.7
332.594	0.7
332.966	0.72
333.338	0.75
333.71	0.74
334.082	0.76
334.454	0.74
334.826	0.76
335.197	0.76
335.569	0.77
335.941	0.78
336.312	0.78
336.684	0.79
337.056	0.83
337.427	0.83
337.799	0.87
338.17	0.85
338.542	0.84
338.913	0.86
339.284	0.9
339.656	0.87
340.027	0.89
340.398	0.91
340.769	0.88
341.141	0.94
341.512	0.94
341.883	0.94
342.254	0.99
342.625	0.93
342.996	0.95
343.367	0.99
343.738	0.99
344.108	0.96
344.479	1.09
344.85	0.99
345.221	1.01
345.591	1.02
345.962	1.05
346.333	1.07
346.703	1.01
347.074	1.02
347.444	1.03
347.815	1.13
348.185	1.07
348.556	1.05
348.926	1.16
349.296	1.18
349.666	1.15
350.037	1.14
350.407	1.11
350.777	1.19
351.147	1.15
351.517	1.15
351.887	1.21
352.257	1.21
352.627	1.19
352.997	1.24
353.367	1.36
353.737	1.25
354.106	1.33
354.476	1.28
354.846	1.38
355.216	1.37
355.585	1.39
355.955	1.3
356.324	1.45
356.694	1.37
357.063	1.39
357.433	1.39
357.802	1.41
358.171	1.42
358.541	1.45
358.91	1.41
359.279	1.56
359.648	1.42
360.017	1.57
360.387	1.5
360.756	1.44
361.125	1.46
361.494	1.62
361.863	1.39
362.231	1.51
362.6	1.53
362.969	1.51
363.338	1.48
363.707	1.74
364.075	1.54
364.444	1.38
364.813	1.56
365.181	1.49
365.55	1.45
365.918	1.63
366.287	1.6
366.655	1.7
367.024	1.57
367.392	1.54
367.76	1.58
368.128	1.54
368.497	1.49
368.865	1.56
369.233	1.49
369.601	1.47
369.969	1.42
370.337	1.69
370.705	1.49
371.073	1.54
371.441	1.43
371.809	1.56
372.177	1.41
372.544	1.58
372.912	1.56
373.28	1.46
373.647	1.54
374.015	1.66
374.383	1.78
374.75	1.63
375.118	1.55
375.485	1.71
375.853	1.58
376.22	1.59
376.587	1.65
376.955	1.61
377.322	1.6
377.689	1.61
378.056	1.44
378.423	1.52
378.79	1.64
379.157	1.47
379.524	1.48
379.891	1.45
380.258	1.46
380.625	1.47
380.992	1.52
381.359	1.6
381.726	1.69
382.092	1.49
382.459	1.47
382.826	1.48
383.192	1.5
383.559	1.67
383.925	1.44
384.292	1.44
384.658	1.62
385.025	1.58
385.391	1.72
385.757	1.54
386.123	1.47
386.49	1.51
386.856	1.47
387.222	1.66
387.588	1.52
387.954	1.54
388.32	1.77
388.686	1.59
389.052	1.44
389.418	1.54
389.784	1.49
390.15	1.64
390.515	1.46
390.881	1.62
391.247	1.51
391.613	1.68
391.978	1.46
392.344	1.76
392.709	1.59
393.075	1.69
393.44	1.58
393.806	1.51
394.171	1.47
394.536	1.59
394.902	1.51
395.267	1.57
395.632	1.39
395.997	1.45
396.362	1.52
396.727	1.6
397.092	1.55
397.457	1.45
397.822	1.43
398.187	1.63
398.552	1.48
398.917	1.68
399.282	1.4
399.646	1.72
400.011	1.65
400.376	1.39
400.74	1.42
401.105	1.48
401.47	1.64
401.834	1.7
402.199	1.54
402.563	1.5
402.927	1.45
403.292	1.46
403.656	1.48
404.02	1.61
404.384	1.48
404.749	1.48
405.113	1.6
405.477	1.7
405.841	1.6
406.205	1.66
406.569	1.56
406.933	1.51
407.296	1.58
407.66	1.53
408.024	1.55
408.388	1.83
408.752	1.53
409.115	1.64
409.479	1.57
409.842	1.53
410.206	1.49
410.569	1.56
410.933	1.67
411.296	1.44
411.66	1.87
412.023	1.43
412.386	1.56
412.749	1.38
413.113	1.62
413.476	1.35
413.839	1.44
414.202	1.54
414.565	1.44
414.928	1.53
415.291	1.36
415.654	1.49
416.017	1.73
416.38	1.49
416.742	1.5
417.105	1.3
417.468	1.44
417.83	1.58
418.193	1.51
418.556	1.47
418.918	1.41
419.281	1.62
419.643	1.62
420.005	1.45
420.368	1.48
420.73	1.43
421.092	1.55
421.455	1.45
421.817	1.39
422.179	1.55
422.541	1.48
422.903	1.54
423.265	1.57
423.627	1.47
423.989	1.58
424.351	1.59
424.713	1.45
425.075	1.47
425.436	1.44
425.798	1.42
426.16	1.64
426.521	1.47
426.883	1.56
427.245	1.57
427.606	1.49
427.967	1.39
428.329	1.48
428.69	1.63
429.052	1.52
429.413	1.59
429.774	1.54
430.135	1.56
430.497	1.59
430.858	1.39
431.219	1.54
431.58	1.44
431.941	1.52
432.302	1.54
432.663	1.46
433.024	1.54
433.384	1.57
433.745	1.4
434.106	1.66
434.467	1.55
434.827	1.57
435.188	1.58
435.548	1.7
435.909	1.55
436.269	1.61
436.63	1.51
436.99	1.48
437.351	1.4
437.711	1.46
438.071	1.46
438.431	1.45
438.792	1.54
439.152	1.49
439.512	1.46
439.872	1.4
440.232	1.6
440.592	1.45
440.952	1.54
441.312	1.36
441.671	1.46
442.031	1.58
442.391	1.41
442.751	1.5
443.11	1.46
443.47	1.4
443.83	1.42
444.189	1.41
444.549	1.43
444.908	1.39
445.267	1.37
445.627	1.4
445.986	1.39
446.345	1.33
446.705	1.41
447.064	1.46
447.423	1.36
447.782	1.36
448.141	1.37
448.5	1.29
448.859	1.32
449.218	1.37
449.577	1.41
449.936	1.35
450.295	1.38
450.653	1.31
451.012	1.32
451.371	1.39
451.729	1.3
452.088	1.35
452.447	1.35
452.805	1.29
453.163	1.3
453.522	1.26
453.88	1.29
454.239	1.26
454.597	1.22
454.955	1.2
455.313	1.23
455.671	1.2
456.029	1.24
456.388	1.18
456.746	1.17
457.104	1.15
457.461	1.16
457.819	1.16
458.177	1.12
458.535	1.12
458.893	1.09
459.25	1.08
459.608	1.1
459.966	1.05
460.323	1.05
460.681	1.01
461.038	1.01
461.396	1
461.753	0.99
462.111	0.98
462.468	0.96
462.825	0.95
463.182	0.94
463.54	0.9
463.897	0.92
464.254	0.9
464.611	0.88
464.968	0.87
465.325	0.85
465.682	0.86
466.039	0.84
466.395	0.82
466.752	0.81
467.109	0.79
467.466	0.8
467.822	0.77
468.179	0.75
468.535	0.75
468.892	0.74
469.248	0.72
469.605	0.71
469.961	0.7
470.318	0.7
470.674	0.69
471.03	0.67
471.386	0.65
471.743	0.65
472.099	0.64
472.455	0.63
472.811	0.61
473.167	0.61
473.523	0.59
473.879	0.59
474.235	0.57
474.59	0.56
474.946	0.55
475.302	0.55
475.657	0.53
476.013	0.53
476.369	0.5
476.724	0.51
477.08	0.5
477.435	0.49
477.791	0.47
478.146	0.48
478.501	0.46
478.857	0.45
479.212	0.44
479.567	0.43
479.922	0.41
480.277	0.41
480.632	0.41
480.987	0.41
481.342	0.39
481.697	0.38
482.052	0.38
482.407	0.37
482.762	0.36
483.116	0.35
483.471	0.34
483.826	0.33
484.18	0.33
484.535	0.32
484.89	0.32
485.244	0.31
485.598	0.31
485.953	0.3
486.307	0.29
486.661	0.29
487.016	0.28
487.37	0.28
487.724	0.27
488.078	0.27
488.432	0.26
488.786	0.26
489.14	0.26
489.494	0.25
489.848	0.24
490.202	0.23
490.556	0.23
490.91	0.23
491.263	0.23
491.617	0.22
491.971	0.21
492.324	0.21
492.678	0.21
493.031	0.2
493.385	0.2
493.738	0.19
494.091	0.19
494.445	0.19
494.798	0.18
495.151	0.18
495.504	0.18
495.857	0.18
496.21	0.18
496.564	0.17
496.916	0.17
497.269	0.16
497.622	0.16
497.975	0.15
498.328	0.16
498.681	0.14
499.033	0.14
499.386	0.14
499.739	0.15
500.091	0.14
500.444	0.14
500.796	0.14
501.149	0.13
501.501	0.13
501.854	0.13
502.206	0.13
502.558	0.12
502.91	0.12
503.263	0.12
503.615	0.12
503.967	0.12
504.319	0.12
504.671	0.11
505.023	0.1
505.375	0.11
505.726	0.11
506.078	0.1
506.43	0.1
506.782	0.1
507.133	0.1
507.485	0.1
507.837	0.11
508.188	0.1
508.54	0.1
508.891	0.1
509.243	0.09
509.594	0.09
509.945	0.1
510.296	0.08
510.648	0.09
510.999	0.09
511.35	0.09
511.701	0.08
512.052	0.09
512.403	0.09
512.754	0.08
513.105	0.08
513.456	0.08
513.807	0.08
514.157	0.08
514.508	0.08
514.859	0.08
515.209	0.07
515.56	0.08
515.91	0.08
516.261	0.08
516.611	0.07
516.962	0.08
517.312	0.08
517.662	0.07
518.013	0.07
518.363	0.08
518.713	0.08
519.063	0.08
519.413	0.08
519.763	0.07
520.113	0.08
520.463	0.08
520.813	0.08
521.163	0.08
521.512	0.08
521.862	0.07
522.212	0.07
522.562	0.08
522.911	0.07
523.261	0.07
523.61	0.08
523.96	0.07
524.309	0.07
524.658	0.07
525.008	0.07
525.357	0.07
525.706	0.07
526.056	0.07
526.405	0.07
526.754	0.07
527.103	0.06
527.452	0.07
527.801	0.07
528.15	0.07
528.499	0.07
528.847	0.07
529.196	0.08
529.545	0.07
529.893	0.07
530.242	0.07
530.591	0.08
530.939	0.08
531.288	0.07
531.636	0.07
531.985	0.07
532.333	0.07
532.681	0.07
533.029	0.07
533.378	0.07
533.726	0.07
534.074	0.08
534.422	0.07
534.77	0.08
535.118	0.07
535.466	0.06
535.814	0.06
536.162	0.07
536.509	0.08
536.857	0.07
537.205	0.08
537.552	0.07
537.9	0.07
538.248	0.06
538.595	0.07
538.943	0.07
539.29	0.07
539.637	0.07
539.985	0.07
540.332	0.07
540.679	0.07
541.026	0.06
541.373	0.07
541.721	0.06
542.068	0.07
542.415	0.07
542.762	0.06
543.108	0.06
543.455	0.05
543.802	0.05
544.149	0.06
544.496	0.06
544.842	0.05
545.189	0.04
545.535	0.05
545.882	0.05
546.228	0.04
546.575	0.05
546.921	0.05
547.267	0.05
547.614	0.06
547.96	0.05
548.306	0.05
548.652	0.06
548.998	0.06
549.344	0.06
549.69	0.06
550.036	0.05
550.382	0.05
550.728	0.05
551.074	0.06
551.42	0.06
551.765	0.06
552.111	0.06
552.457	0.06
552.802	0.05
553.148	0.05
553.493	0.05
553.839	0.06
554.184	0.06
554.529	0.05
554.875	0.06
555.22	0.07
555.565	0.06
555.91	0.06
556.255	0.07
556.6	0.06
556.945	0.05
557.29	0.05
557.635	0.06
557.98	0.06
558.325	0.06
558.67	0.06
559.014	0.06
559.359	0.06
559.704	0.06
560.048	0.05
560.393	0.06
560.737	0.05
561.082	0.05
561.426	0.05
561.77	0.05
562.115	0.05
562.459	0.05
562.803	0.05
563.147	0.06
563.491	0.05
563.835	0.06
564.179	0.06
564.523	0.05
564.867	0.06
565.211	0.06
565.555	0.06
565.899	0.07
566.242	0.05
566.586	0.05
566.93	0.05
567.273	0.06
567.617	0.06
567.96	0.06
568.304	0.06
568.647	0.05
568.99	0.06
569.334	0.07
569.677	0.05
570.02	0.06
570.363	0.06
570.706	0.05
571.049	0.06
571.392	0.07
571.735	0.06
572.078	0.06
572.421	0.06
572.764	0.06
573.106	0.07
573.449	0.06
573.792	0.06
574.134	0.05
574.477	0.06
574.819	0.05
575.162	0.05
575.504	0.05
575.847	0.06
576.189	0.06
576.531	0.05
576.873	0.05
577.215	0.06
577.558	0.06
577.9	0.05
578.242	0.06
578.584	0.05
578.926	0.06
579.267	0.06
579.609	0.06
579.951	0.05
580.293	0.06
580.634	0.06
580.976	0.06
581.318	0.06
581.659	0.05
582.001	0.06
582.342	0.05
582.683	0.05
583.025	0.04
583.366	0.04
583.707	0.05
584.049	0.05
584.39	0.05
584.731	0.04
585.072	0.04
585.413	0.05
585.754	0.05
586.095	0.05
586.435	0.06
586.776	0.06
587.117	0.05
587.458	0.05
587.798	0.04
588.139	0.06
588.48	0.05
588.82	0.05
589.161	0.05
589.501	0.05
589.841	0.05
590.182	0.05
590.522	0.05
590.862	0.05
591.202	0.05
591.542	0.05
591.882	0.05
592.222	0.05
592.562	0.05
592.902	0.05
593.242	0.05
593.582	0.05
593.922	0.05
594.261	0.05
594.601	0.05
594.941	0.05
595.28	0.05
595.62	0.05
595.959	0.04
596.299	0.05
596.638	0.05
596.977	0.05
597.317	0.06
597.656	0.06
597.995	0.05
598.334	0.06
598.673	0.05
599.012	0.05
599.351	0.06
599.69	0.05
600.029	0.06
600.368	0.05
600.707	0.05
601.046	0.05
601.384	0.06
601.723	0.06
602.061	0.05
602.4	0.06
602.738	0.06
603.077	0.06
603.415	0.05
603.754	0.05
604.092	0.05
604.43	0.06
604.768	0.06
605.107	0.06
605.445	0.05
605.783	0.05
606.121	0.05
606.459	0.05
606.796	0.05
607.134	0.05
607.472	0.05
607.81	0.06
608.148	0.05
608.485	0.05
608.823	0.05
609.16	0.05
609.498	0.06
609.835	0.05
610.173	0.05
610.51	0.05
610.847	0.05
611.185	0.05
611.522	0.06
611.859	0.06
612.196	0.06
612.533	0.06
612.87	0.06
613.207	0.06
613.544	0.06
613.881	0.07
614.217	0.06
614.554	0.06
614.891	0.06
615.228	0.06
615.564	0.06
615.901	0.06
616.237	0.06
616.574	0.06
616.91	0.07
617.246	0.07
617.583	0.07
617.919	0.07
618.255	0.07
618.591	0.06
618.927	0.06
619.263	0.06
619.599	0.06
619.935	0.06
620.271	0.07
620.607	0.06
620.943	0.06
621.279	0.07
621.614	0.06
621.95	0.07
622.286	0.06
622.621	0.06
622.957	0.06
623.292	0.06
623.627	0.06
623.963	0.06
624.298	0.06
624.633	0.06
624.968	0.05
625.304	0.06
625.639	0.05
625.974	0.06
626.309	0.06
626.644	0.06
626.979	0.06
627.313	0.06
627.648	0.06
627.983	0.06
628.318	0.05
628.652	0.05
628.987	0.05
629.321	0.05
629.656	0.05
629.99	0.05
630.325	0.05
630.659	0.05
630.993	0.05
631.327	0.05
631.662	0.05
631.996	0.05
632.33	0.05
632.664	0.05
632.998	0.05
633.332	0.05
633.666	0.05
633.999	0.05
634.333	0.05
634.667	0.05
635.001	0.04
635.334	0.05
635.668	0.04
636.001	0.05
636.335	0.05
636.668	0.05
637.001	0.04
637.335	0.05
637.668	0.05
638.001	0.04
638.334	0.05
638.668	0.04
639.001	0.04
639.334	0.04
639.667	0.05
639.999	0.05
640.332	0.05
640.665	0.04
640.998	0.05
641.331	0.05
641.663	0.05
641.996	0.05
642.328	0.05
642.661	0.05
642.993	0.04
643.326	0.05
643.658	0.04
643.99	0.04
644.323	0.04
644.655	0.04
644.987	0.05
645.319	0.05
645.651	0.05
645.983	0.05
646.315	0.04
646.647	0.05
646.979	0.06
647.31	0.04
647.642	0.05
647.974	0.05
648.305	0.05
648.637	0.05
648.968	0.05
649.3	0.05
649.631	0.05
649.963	0.05
650.294	0.05
650.625	0.05
650.957	0.06
651.288	0.06
651.619	0.05
651.95	0.05
652.281	0.05
652.612	0.05
652.943	0.06
653.274	0.06
653.604	0.06
653.935	0.05
654.266	0.05
654.596	0.05
654.927	0.05
655.258	0.05
655.588	0.05
655.918	0.05
656.249	0.03
656.579	0.05
656.909	0.05
657.24	0.04
657.57	0.05
657.9	0.05
658.23	0.05
658.56	0.06
658.89	0.06
659.22	0.05
659.55	0.05
659.88	0.06
660.209	0.05
660.539	0.06
660.869	0.06
661.198	0.05
661.528	0.06
661.857	0.05
662.187	0.06
662.516	0.05
662.846	0.05
663.175	0.05
663.504	0.05
663.833	0.05
664.163	0.06
664.492	0.05
664.821	0.06
665.15	0.05
665.479	0.06
665.807	0.05
666.136	0.06
666.465	0.05
666.794	0.05
667.122	0.06
667.451	0.06
667.78	0.06
668.108	0.06
668.437	0.06
668.765	0.06
669.093	0.06
669.422	0.05
669.75	0.05
670.078	0.05
670.406	0.06
670.734	0.06
671.062	0.05
671.39	0.05
671.718	0.05
672.046	0.05
672.374	0.05
672.702	0.05
673.029	0.05
673.357	0.05
673.685	0.06
674.012	0.05
674.34	0.05
674.667	0.05
674.995	0.06
675.322	0.05
675.649	0.05
675.977	0.05
676.304	0.05
676.631	0.05
676.958	0.05
677.285	0.04
677.612	0.05
677.939	0.05
678.266	0.06
678.593	0.05
678.92	0.06
679.246	0.05
679.573	0.05
679.9	0.05
680.226	0.05
680.553	0.05
680.879	0.05
681.206	0.05
681.532	0.05
681.858	0.06
682.184	0.05
682.511	0.05
682.837	0.05
683.163	0.05
683.489	0.05
683.815	0.05
684.141	0.05
684.467	0.05
684.793	0.05
685.118	0.05
685.444	0.05
685.77	0.05
686.095	0.05
686.421	0.05
686.746	0.05
687.072	0.05
687.397	0.05
687.723	0.05
688.048	0.06
688.373	0.05
688.698	0.05
689.023	0.05
689.349	0.06
689.674	0.05
689.999	0.05
690.323	0.05
690.648	0.04
690.973	0.05
691.298	0.05
691.623	0.05
691.947	0.05
692.272	0.05
692.596	0.05
692.921	0.06
693.245	0.05
693.57	0.06
693.894	0.05
694.218	0.06
694.543	0.05
694.867	0.05
695.191	0.05
695.515	0.06
695.839	0.05
696.163	0.05
696.487	0.05
696.811	0.05
697.135	0.05
697.458	0.05
697.782	0.06
698.106	0.05
698.429	0.05
698.753	0.05
699.076	0.06
699.4	0.05
699.723	0.05
700.046	0.05
700.37	0.06
700.693	0.05
701.016	0.04
701.339	0.05
701.662	0.05
701.985	0.05
702.308	0.05
702.631	0.05
702.954	0.06
703.277	0.05
703.599	0.05
703.922	0.05
704.245	0.05
704.567	0.04
704.89	0.05
705.212	0.05
705.535	0.04
705.857	0.05
706.179	0.04
706.502	0.04
706.824	0.04
707.146	0.04
707.468	0.05
707.79	0.05
708.112	0.05
708.434	0.05
708.756	0.05
709.078	0.05
709.399	0.05
709.721	0.05
710.043	0.05
710.364	0.05
710.686	0.05
711.007	0.05
711.329	0.06
711.65	0.06
711.972	0.05
712.293	0.05
712.614	0.05
712.935	0.06
713.256	0.06
713.577	0.06
713.898	0.05
714.219	0.05
714.54	0.04
714.861	0.05
715.182	0.05
715.503	0.05
715.823	0.04
716.144	0.04
716.464	0.04
716.785	0.05
717.105	0.04
717.426	0.05
717.746	0.04
718.066	0.04
718.387	0.04
718.707	0.04
719.027	0.05
719.347	0.03
719.667	0.05
719.987	0.04
720.307	0.03
720.627	0.04
720.947	0.05
721.266	0.05
721.586	0.04
721.906	0.04
722.225	0.04
722.545	0.04
722.864	0.04
723.184	0.05
723.503	0.04
723.823	0.05
724.142	0.04
724.461	0.04
724.78	0.04
725.099	0.04
725.418	0.04
725.737	0.04
726.056	0.05
726.375	0.04
726.694	0.04
727.013	0.04
727.331	0.04
727.65	0.04
727.969	0.03
728.287	0.04
728.606	0.05
728.924	0.03
729.242	0.05
729.561	0.04
729.879	0.04
730.197	0.04
730.515	0.04
730.834	0.04
731.152	0.04
731.47	0.04
731.788	0.04
732.105	0.04
732.423	0.04
732.741	0.05
733.059	0.05
733.376	0.05
733.694	0.04
734.012	0.05
734.329	0.05
734.647	0.04
734.964	0.05
735.281	0.05
735.599	0.06
735.916	0.06
736.233	0.05
736.55	0.04
736.867	0.04
737.184	0.05
737.501	0.04
737.818	0.05
738.135	0.05
738.452	0.05
738.768	0.05
739.085	0.05
739.402	0.03
739.718	0.04
740.035	0.04
740.351	0.05
740.668	0.04
740.984	0.05
741.3	0.03
741.617	0.05
741.933	0.05
742.249	0.04
742.565	0.05
742.881	0.06
743.197	0.04
743.513	0.04
743.829	0.04
744.144	0.04
744.46	0.04
744.776	0.04
745.091	0.04
745.407	0.04
745.722	0.04
746.038	0.03
746.353	0.03
746.669	0.04
746.984	0.03
747.299	0.04
747.614	0.04
747.93	0.04
748.245	0.03
748.56	0.04
748.875	0.04
749.189	0.04
749.504	0.04
749.819	0.04
750.134	0.04
750.448	0.04
750.763	0.03
751.078	0.03
751.392	0.04
751.707	0.05
752.021	0.05
752.335	0.05
752.65	0.05
752.964	0.05
753.278	0.05
753.592	0.05
753.906	0.04
754.22	0.04
754.534	0.05
754.848	0.04
755.162	0.05
755.476	0.05
755.789	0.05
756.103	0.04
756.417	0.05
756.73	0.05
757.044	0.05
757.357	0.05
757.671	0.05
757.984	0.04
758.297	0.05
758.61	0.05
758.924	0.04
759.237	0.04
759.55	0.05
759.863	0.04
760.176	0.04
760.488	0.05
760.801	0.04
761.114	0.04
761.427	0.04
761.739	0.04
762.052	0.04
762.365	0.05
762.677	0.04
762.99	0.04
763.302	0.04
763.614	0.05
763.926	0.04
764.239	0.04
764.551	0.04
764.863	0.05
765.175	0.05
765.487	0.05
765.799	0.04
766.111	0.04
766.423	0.04
766.734	0.04
767.046	0.04
767.358	0.04
767.669	0.04
767.981	0.05
768.292	0.04
768.604	0.05
768.915	0.04
769.226	0.04
769.537	0.03
769.849	0.04
770.16	0.05
770.471	0.04
770.782	0.04
771.093	0.04
771.404	0.03
771.715	0.04
772.025	0.04
772.336	0.03
772.647	0.03
772.957	0.04
773.268	0.04
773.578	0.04
773.889	0.04
774.199	0.04
774.51	0.04
774.82	0.04
775.13	0.05
775.44	0.05
775.75	0.04
776.06	0.04
776.37	0.04
776.68	0.05
776.99	0.05
777.3	0.04
777.61	0.05
777.92	0.05
778.229	0.04
778.539	0.04
778.848	0.04
779.158	0.04
779.467	0.05
779.777	0.04
780.086	0.05
780.395	0.03
780.704	0.04
781.013	0.03
781.323	0.03
781.632	0.04
781.941	0.04
782.249	0.04
782.558	0.03
782.867	0.04
783.176	0.02
783.485	0.03
783.793	0.04
784.102	0.04
784.41	0.03
784.719	0.03
785.027	0.03
785.335	0.03
785.644	0.04
785.952	0.03
786.26	0.05
786.568	0.03
786.876	0.03
787.184	0.04
787.492	0.03
787.8	0.04
788.108	0.04
788.416	0.04
788.723	0.03
789.031	0.04
789.338	0.04
789.646	0.03
789.953	0.04
790.261	0.04
790.568	0.04
790.876	0.03
791.183	0.04
791.49	0.03
791.797	0.04
792.104	0.02
792.411	0.05
792.718	0.04
793.025	0.04
793.332	0.04
793.639	0.05
793.945	0.05
794.252	0.05
794.559	0.04
794.865	0.05
795.172	0.04
795.478	0.04
795.784	0.05
796.091	0.05
796.397	0.04
796.703	0.04
797.009	0.05
797.315	0.05
797.622	0.05
797.927	0.05
798.233	0.04
798.539	0.05
798.845	0.05
799.151	0.05
799.456	0.06
799.762	0.05
800.068	0.05
800.373	0.06
800.679	0.05
800.984	0.05
801.289	0.05
801.595	0.05
801.9	0.06
802.205	0.05
802.51	0.05
802.815	0.05
803.12	0.05
803.425	0.05
803.73	0.04
804.035	0.05
804.339	0.05
804.644	0.05
804.949	0.04
805.253	0.05
805.558	0.04
805.862	0.05
806.167	0.04
806.471	0.04
806.775	0.05
807.08	0.04
807.384	0.04
807.688	0.05
807.992	0.05
808.296	0.05
808.6	0.05
808.904	0.05
809.207	0.04
809.511	0.05
809.815	0.06
810.119	0.04
810.422	0.05
810.726	0.06
811.029	0.06
811.332	0.06
811.636	0.06
811.939	0.06
812.242	0.06
812.546	0.06
812.849	0.06
813.152	0.06
813.455	0.06
813.758	0.06
814.06	0.06
814.363	0.06
814.666	0.07
814.969	0.06
815.271	0.07
815.574	0.06
815.877	0.06
816.179	0.06
816.481	0.05
816.784	0.05
817.086	0.06
817.388	0.05
817.69	0.05
817.993	0.04
818.295	0.04
818.597	0.05
818.899	0.03
819.2	0.04
819.502	0.04
819.804	0.04
820.106	0.03
820.407	0.04
820.709	0.04
821.01	0.04
821.312	0.04
821.613	0.03
821.915	0.03
822.216	0.03
822.517	0.03
822.818	0.03
823.119	0.04
823.42	0.04
823.721	0.03
824.022	0.03
824.323	0.04
824.624	0.04
824.925	0.04
825.226	0.05
825.526	0.03
825.827	0.03
826.127	0.03
826.428	0.04
826.728	0.04
827.028	0.03
827.329	0.03
827.629	0.03
827.929	0.02
828.229	0.04
828.529	0.04
828.829	0.03
829.129	0.04
829.429	0.04
829.729	0.03
830.029	0.03
830.328	0.03
830.628	0.02
830.927	0.02
831.227	0.03
831.526	0.02
831.826	0.03
832.125	0.03
832.424	0.03
832.724	0.03
833.023	0.03
833.322	0.03
833.621	0.02
833.92	0.02
834.219	0.02
834.518	0.02
834.816	0.02
835.115	0.01
835.414	0.02
835.712	0.01
836.011	0.01
836.309	0.01
836.608	0.01
836.906	0.01
837.205	0
837.503	0
837.801	0
838.099	0
838.397	-0
838.695	-0.01
838.993	-0.01
839.291	-0.01
839.589	-0.01
839.887	-0.01
840.184	-0.02
840.482	-0.01
840.78	-0.01
841.077	-0.01
841.375	-0.01
841.672	-0.01
841.969	-0.01
842.267	-0.01
842.564	-0.02
842.861	-0.01
843.158	-0.02
843.455	-0.03
843.752	-0.03
844.049	-0.03
844.346	-0.02
844.643	-0.03
844.94	-0.03
845.236	-0.02
845.533	-0.02
845.83	-0.03
846.126	-0.04
846.423	-0.03
846.719	-0.04
847.015	-0.03
847.312	-0.03
847.608	-0.04
847.904	-0.04
848.2	-0.04
848.496	-0.04
848.792	-0.03
849.088	-0.03
849.384	-0.05
849.68	-0.04
849.975	-0.04
850.271	-0.05
850.567	-0.05
850.862	-0.05
851.158	-0.05
851.453	-0.04
851.748	-0.05
852.044	-0.05
852.339	-0.06
852.634	-0.07
852.929	-0.05
853.224	-0.06
853.519	-0.06
853.814	-0.05
854.109	-0.06
854.404	-0.06
854.699	-0.07
854.994	-0.06
855.288	-0.06
855.583	-0.06
855.877	-0.07
856.172	-0.06
856.466	-0.07
856.76	-0.08
857.055	-0.07
857.349	-0.09
857.643	-0.09
857.937	-0.09
858.231	-0.08
858.525	-0.11
858.819	-0.1
859.113	-0.1
859.407	-0.11
859.701	-0.1
859.994	-0.12
860.288	-0.1
860.581	-0.11
860.875	-0.1
861.168	-0.11
861.462	-0.11
861.755	-0.11
862.048	-0.11
862.341	-0.11
862.634	-0.1
862.928	-0.1
863.221	-0.1
863.513	-0.11
863.806	-0.11
864.099	-0.13
864.392	-0.11
864.685	-0.11
864.977	-0.11
865.27	-0.12
865.562	-0.12
865.855	-0.12
866.147	-0.12
866.44	-0.12
866.732	-0.12
867.024	-0.13
867.316	-0.12
867.608	-0.13
867.9	-0.13
868.192	-0.13
868.484	-0.13
868.776	-0.12
869.068	-0.13
869.359	-0.13
869.651	-0.13
869.943	-0.14
870.234	-0.15
870.526	-0.14
870.817	-0.15
871.108	-0.13
871.4	-0.14
871.691	-0.15
871.982	-0.15
872.273	-0.17
872.564	-0.16
872.855	-0.16
873.146	-0.15
873.437	-0.16
873.728	-0.17
874.019	-0.16
874.309	-0.17
874.6	-0.16
874.89	-0.17
875.181	-0.17
875.471	-0.16
875.762	-0.17
876.052	-0.16
876.342	-0.16
876.632	-0.16
876.922	-0.18
877.213	-0.18
877.503	-0.18
877.792	-0.17
878.082	-0.17
878.372	-0.16
878.662	-0.18
878.952	-0.16
879.241	-0.16
879.531	-0.16
879.82	-0.15
880.11	-0.17
880.399	-0.16
880.688	-0.14
880.978	-0.14
881.267	-0.14
