Data from 12-12-AQDScycling_Absorbance__410__00410.txt Node

Date: Tue Dec 12 12:39:14 EST 2023
User: kyuminlee
Spectrometer: FLMS00943
Trigger mode: 0
Integration Time (sec): 1.000000E-1
Scans to average: 1
Electric dark correction enabled: true
Nonlinearity correction enabled: false
Boxcar width: 0
XAxis mode: Wavelengths
Number of Pixels in Spectrum: 2048
>>>>>Begin Spectral Data<<<<<
179.651	0.09
180.037	0.09
180.424	0.09
180.81	0.11
181.197	0.23
181.583	1.21
181.97	0.03
182.356	-0
182.743	-1.05
183.129	-0
183.515	-0
183.901	-2.64
184.288	0.37
184.674	-0
185.06	-0
185.446	-0.26
185.832	-0
186.218	0.64
186.604	-0
186.99	-0
187.376	-0
187.762	-0.02
188.148	-0
188.534	-0.25
188.92	0.07
189.305	-0
189.691	0.09
190.077	0.18
190.463	0.17
190.848	0.08
191.234	0.1
191.619	0.11
192.005	0.13
192.391	0.25
192.776	0.13
193.161	0.28
193.547	0.16
193.932	0.03
194.318	0.07
194.703	0.17
195.088	0.08
195.473	0.36
195.859	0.14
196.244	0.29
196.629	0.15
197.014	0.02
197.399	0.2
197.784	0.26
198.169	0.07
198.554	0.22
198.939	0.15
199.324	0.15
199.709	0.13
200.094	0.19
200.478	0.01
200.863	0.28
201.248	0.16
201.633	0.15
202.017	0.28
202.402	0.2
202.787	0.45
203.171	0.04
203.556	0.07
203.94	0.12
204.325	0.17
204.709	0.07
205.093	0.09
205.478	0.25
205.862	0.19
206.246	0.27
206.631	0.06
207.015	0.27
207.399	0.16
207.783	0.08
208.167	0.13
208.551	0.25
208.935	0.23
209.319	0.39
209.703	0.22
210.087	0.24
210.471	0.13
210.855	0.19
211.239	0.24
211.623	0.22
212.007	0.21
212.39	0.36
212.774	0.08
213.158	0.18
213.541	0.19
213.925	0.31
214.309	0.29
214.692	0.31
215.076	0.23
215.459	0.16
215.842	0.29
216.226	0.22
216.609	0.31
216.993	0.31
217.376	0.48
217.759	0.23
218.142	0.36
218.525	0.68
218.909	0.52
219.292	0.3
219.675	0.59
220.058	0.49
220.441	0.64
220.824	0.53
221.207	0.55
221.59	0.61
221.973	0.63
222.355	0.69
222.738	0.73
223.121	0.56
223.504	0.56
223.886	0.65
224.269	0.72
224.652	0.54
225.034	0.81
225.417	0.78
225.799	0.96
226.182	0.92
226.564	0.87
226.947	0.79
227.329	0.84
227.711	0.85
228.094	1.12
228.476	1.02
228.858	0.86
229.24	0.8
229.623	0.9
230.005	0.89
230.387	0.9
230.769	0.91
231.151	0.92
231.533	0.9
231.915	0.96
232.297	1.22
232.679	0.93
233.061	1.07
233.442	1.04
233.824	1
234.206	1.03
234.588	1.07
234.969	1.16
235.351	1
235.733	1.15
236.114	1.31
236.496	1.01
236.877	1.13
237.259	0.99
237.64	0.93
238.022	0.98
238.403	1.08
238.784	1.08
239.165	0.97
239.547	1.08
239.928	1.04
240.309	1.08
240.69	1.2
241.071	1.17
241.452	1.23
241.834	1.11
242.215	1.1
242.595	1.21
242.976	1.07
243.357	1.08
243.738	1
244.119	1.39
244.5	1.04
244.881	1.23
245.261	1.34
245.642	1.11
246.023	1.14
246.403	1.17
246.784	1.25
247.164	1.28
247.545	1.36
247.925	1.33
248.306	1.24
248.686	1.32
249.067	1.28
249.447	1.31
249.827	1.49
250.207	1.37
250.588	1.33
250.968	1.53
251.348	1.45
251.728	1.47
252.108	1.46
252.488	1.44
252.868	1.36
253.248	1.44
253.628	1.39
254.008	1.51
254.388	1.43
254.768	1.28
255.147	1.43
255.527	1.47
255.907	1.28
256.287	1.38
256.666	1.42
257.046	1.43
257.425	1.34
257.805	1.37
258.184	1.34
258.564	1.46
258.943	1.32
259.323	1.56
259.702	1.53
260.081	1.47
260.461	1.41
260.84	1.51
261.219	1.61
261.598	1.49
261.977	1.46
262.356	1.55
262.736	1.45
263.115	1.61
263.494	1.34
263.873	1.36
264.251	1.52
264.63	1.55
265.009	1.42
265.388	1.43
265.767	1.39
266.145	1.41
266.524	1.41
266.903	1.5
267.281	1.4
267.66	1.48
268.039	1.61
268.417	1.45
268.796	1.41
269.174	1.36
269.552	1.35
269.931	1.57
270.309	1.47
270.687	1.56
271.066	1.58
271.444	1.35
271.822	1.52
272.2	1.39
272.578	1.36
272.956	1.44
273.334	1.43
273.712	1.52
274.09	1.43
274.468	1.45
274.846	1.4
275.224	1.39
275.602	1.47
275.98	1.67
276.357	1.35
276.735	1.44
277.113	1.41
277.49	1.43
277.868	1.24
278.246	1.53
278.623	1.44
279.001	1.3
279.378	1.46
279.756	1.42
280.133	1.77
280.51	1.52
280.888	1.46
281.265	1.33
281.642	1.52
282.019	1.6
282.396	1.73
282.773	1.56
283.151	1.67
283.528	1.56
283.905	1.45
284.282	1.59
284.659	1.55
285.035	1.31
285.412	1.42
285.789	1.51
286.166	1.45
286.543	1.46
286.919	1.52
287.296	1.48
287.673	1.75
288.049	1.59
288.426	1.61
288.802	1.44
289.179	1.42
289.555	1.7
289.932	1.45
290.308	1.35
290.684	1.35
291.061	1.28
291.437	1.47
291.813	1.42
292.189	1.33
292.565	1.37
292.942	1.35
293.318	1.46
293.694	1.39
294.07	1.38
294.446	1.49
294.822	1.54
295.197	1.48
295.573	1.48
295.949	1.6
296.325	1.52
296.701	1.4
297.076	1.56
297.452	1.63
297.828	1.64
298.203	1.49
298.579	1.38
298.954	1.47
299.33	1.51
299.705	1.57
300.081	1.39
300.456	1.53
300.831	1.37
301.206	1.38
301.582	1.59
301.957	1.4
302.332	1.63
302.707	1.36
303.082	1.45
303.457	1.45
303.832	1.33
304.207	1.41
304.582	1.38
304.957	1.44
305.332	1.4
305.707	1.39
306.082	1.36
306.456	1.49
306.831	1.33
307.206	1.39
307.58	1.37
307.955	1.3
308.33	1.34
308.704	1.35
309.079	1.36
309.453	1.43
309.828	1.31
310.202	1.3
310.576	1.28
310.951	1.41
311.325	1.36
311.699	1.36
312.073	1.21
312.447	1.3
312.821	1.3
313.196	1.39
313.57	1.33
313.944	1.32
314.317	1.27
314.691	1.35
315.065	1.33
315.439	1.34
315.813	1.38
316.187	1.34
316.56	1.41
316.934	1.43
317.308	1.32
317.681	1.29
318.055	1.24
318.428	1.28
318.802	1.4
319.175	1.32
319.549	1.46
319.922	1.28
320.295	1.32
320.669	1.4
321.042	1.33
321.415	1.47
321.788	1.35
322.162	1.34
322.535	1.41
322.908	1.37
323.281	1.36
323.654	1.42
324.027	1.3
324.4	1.41
324.773	1.31
325.145	1.38
325.518	1.23
325.891	1.26
326.264	1.48
326.636	1.31
327.009	1.3
327.382	1.34
327.754	1.43
328.127	1.35
328.499	1.38
328.872	1.36
329.244	1.31
329.616	1.35
329.989	1.36
330.361	1.35
330.733	1.32
331.106	1.35
331.478	1.48
331.85	1.44
332.222	1.29
332.594	1.45
332.966	1.42
333.338	1.43
333.71	1.38
334.082	1.48
334.454	1.38
334.826	1.4
335.197	1.4
335.569	1.61
335.941	1.37
336.312	1.47
336.684	1.37
337.056	1.35
337.427	1.4
337.799	1.41
338.17	1.52
338.542	1.35
338.913	1.44
339.284	1.44
339.656	1.43
340.027	1.42
340.398	1.48
340.769	1.43
341.141	1.52
341.512	1.41
341.883	1.48
342.254	1.39
342.625	1.37
342.996	1.36
343.367	1.45
343.738	1.36
344.108	1.46
344.479	1.56
344.85	1.27
345.221	1.39
345.591	1.29
345.962	1.35
346.333	1.29
346.703	1.26
347.074	1.35
347.444	1.24
347.815	1.22
348.185	1.3
348.556	1.26
348.926	1.24
349.296	1.4
349.666	1.37
350.037	1.24
350.407	1.22
350.777	1.38
351.147	1.27
351.517	1.34
351.887	1.26
352.257	1.58
352.627	1.28
352.997	1.38
353.367	1.42
353.737	1.45
354.106	1.41
354.476	1.31
354.846	1.38
355.216	1.33
355.585	1.42
355.955	1.43
356.324	1.39
356.694	1.39
357.063	1.35
357.433	1.38
357.802	1.33
358.171	1.39
358.541	1.34
358.91	1.44
359.279	1.37
359.648	1.38
360.017	1.38
360.387	1.37
360.756	1.29
361.125	1.4
361.494	1.49
361.863	1.45
362.231	1.5
362.6	1.47
362.969	1.39
363.338	1.28
363.707	1.48
364.075	1.52
364.444	1.3
364.813	1.43
365.181	1.41
365.55	1.4
365.918	1.48
366.287	1.43
366.655	1.36
367.024	1.47
367.392	1.44
367.76	1.32
368.128	1.49
368.497	1.45
368.865	1.44
369.233	1.51
369.601	1.4
369.969	1.45
370.337	1.44
370.705	1.59
371.073	1.43
371.441	1.44
371.809	1.42
372.177	1.42
372.544	1.54
372.912	1.44
373.28	1.43
373.647	1.52
374.015	1.52
374.383	1.73
374.75	1.63
375.118	1.48
375.485	1.6
375.853	1.52
376.22	1.47
376.587	1.45
376.955	1.59
377.322	1.59
377.689	1.52
378.056	1.51
378.423	1.41
378.79	1.57
379.157	1.62
379.524	1.52
379.891	1.48
380.258	1.59
380.625	1.46
380.992	1.57
381.359	1.61
381.726	1.62
382.092	1.51
382.459	1.52
382.826	1.47
383.192	1.55
383.559	1.54
383.925	1.67
384.292	1.44
384.658	1.64
385.025	1.59
385.391	1.82
385.757	1.71
386.123	1.54
386.49	1.46
386.856	1.53
387.222	1.66
387.588	1.57
387.954	1.69
388.32	1.68
388.686	1.66
389.052	1.52
389.418	1.68
389.784	1.6
390.15	1.91
390.515	1.39
390.881	1.78
391.247	1.56
391.613	1.63
391.978	1.61
392.344	1.81
392.709	1.6
393.075	1.62
393.44	1.59
393.806	1.6
394.171	1.51
394.536	1.45
394.902	1.53
395.267	1.48
395.632	1.42
395.997	1.51
396.362	1.48
396.727	1.52
397.092	1.62
397.457	1.54
397.822	1.47
398.187	1.54
398.552	1.56
398.917	1.74
399.282	1.52
399.646	1.49
400.011	1.64
400.376	1.48
400.74	1.51
401.105	1.55
401.47	1.55
401.834	1.53
402.199	1.53
402.563	1.49
402.927	1.5
403.292	1.58
403.656	1.58
404.02	1.5
404.384	1.69
404.749	1.52
405.113	1.61
405.477	1.57
405.841	1.59
406.205	1.45
406.569	1.43
406.933	1.48
407.296	1.64
407.66	1.41
408.024	1.53
408.388	1.5
408.752	1.51
409.115	1.55
409.479	1.5
409.842	1.58
410.206	1.4
410.569	1.51
410.933	1.57
411.296	1.37
411.66	1.46
412.023	1.32
412.386	1.36
412.749	1.35
413.113	1.5
413.476	1.43
413.839	1.53
414.202	1.36
414.565	1.34
414.928	1.34
415.291	1.31
415.654	1.37
416.017	1.56
416.38	1.43
416.742	1.28
417.105	1.37
417.468	1.33
417.83	1.28
418.193	1.46
418.556	1.33
418.918	1.27
419.281	1.28
419.643	1.39
420.005	1.39
420.368	1.34
420.73	1.33
421.092	1.39
421.455	1.39
421.817	1.27
422.179	1.32
422.541	1.38
422.903	1.38
423.265	1.44
423.627	1.39
423.989	1.28
424.351	1.29
424.713	1.31
425.075	1.34
425.436	1.27
425.798	1.3
426.16	1.31
426.521	1.36
426.883	1.32
427.245	1.28
427.606	1.27
427.967	1.27
428.329	1.28
428.69	1.3
429.052	1.24
429.413	1.33
429.774	1.3
430.135	1.3
430.497	1.33
430.858	1.24
431.219	1.3
431.58	1.18
431.941	1.3
432.302	1.26
432.663	1.22
433.024	1.29
433.384	1.27
433.745	1.25
434.106	1.32
434.467	1.28
434.827	1.24
435.188	1.15
435.548	1.31
435.909	1.25
436.269	1.22
436.63	1.19
436.99	1.22
437.351	1.18
437.711	1.22
438.071	1.15
438.431	1.21
438.792	1.17
439.152	1.17
439.512	1.17
439.872	1.14
440.232	1.18
440.592	1.18
440.952	1.15
441.312	1.11
441.671	1.18
442.031	1.14
442.391	1.12
442.751	1.11
443.11	1.11
443.47	1.09
443.83	1.12
444.189	1.1
444.549	1.09
444.908	1.06
445.267	1.04
445.627	1.07
445.986	1.03
446.345	1.02
446.705	1.05
447.064	1.03
447.423	1.01
447.782	1.04
448.141	1
448.5	0.99
448.859	1.01
449.218	0.99
449.577	1
449.936	1
450.295	0.97
450.653	0.98
451.012	0.99
451.371	0.96
451.729	0.95
452.088	0.96
452.447	0.95
452.805	0.94
453.163	0.94
453.522	0.94
453.88	0.91
454.239	0.91
454.597	0.9
454.955	0.87
455.313	0.89
455.671	0.88
456.029	0.88
456.388	0.85
456.746	0.84
457.104	0.84
457.461	0.83
457.819	0.83
458.177	0.82
458.535	0.8
458.893	0.8
459.25	0.8
459.608	0.78
459.966	0.76
460.323	0.76
460.681	0.74
461.038	0.73
461.396	0.72
461.753	0.72
462.111	0.71
462.468	0.69
462.825	0.69
463.182	0.68
463.54	0.67
463.897	0.67
464.254	0.65
464.611	0.66
464.968	0.65
465.325	0.64
465.682	0.63
466.039	0.63
466.395	0.61
466.752	0.61
467.109	0.6
467.466	0.59
467.822	0.58
468.179	0.56
468.535	0.57
468.892	0.57
469.248	0.54
469.605	0.54
469.961	0.54
470.318	0.53
470.674	0.53
471.03	0.51
471.386	0.51
471.743	0.5
472.099	0.48
472.455	0.49
472.811	0.48
473.167	0.48
473.523	0.46
473.879	0.46
474.235	0.45
474.59	0.45
474.946	0.44
475.302	0.44
475.657	0.43
476.013	0.42
476.369	0.41
476.724	0.41
477.08	0.41
477.435	0.4
477.791	0.39
478.146	0.39
478.501	0.39
478.857	0.38
479.212	0.38
479.567	0.36
479.922	0.36
480.277	0.36
480.632	0.35
480.987	0.35
481.342	0.35
481.697	0.33
482.052	0.33
482.407	0.33
482.762	0.32
483.116	0.31
483.471	0.31
483.826	0.3
484.18	0.3
484.535	0.3
484.89	0.29
485.244	0.29
485.598	0.29
485.953	0.29
486.307	0.28
486.661	0.28
487.016	0.27
487.37	0.27
487.724	0.27
488.078	0.27
488.432	0.26
488.786	0.26
489.14	0.25
489.494	0.25
489.848	0.24
490.202	0.24
490.556	0.25
490.91	0.25
491.263	0.23
491.617	0.24
491.971	0.23
492.324	0.23
492.678	0.23
493.031	0.23
493.385	0.23
493.738	0.23
494.091	0.22
494.445	0.22
494.798	0.21
495.151	0.22
495.504	0.21
495.857	0.21
496.21	0.21
496.564	0.2
496.916	0.2
497.269	0.2
497.622	0.21
497.975	0.2
498.328	0.21
498.681	0.2
499.033	0.2
499.386	0.19
499.739	0.19
500.091	0.19
500.444	0.19
500.796	0.19
501.149	0.19
501.501	0.18
501.854	0.19
502.206	0.18
502.558	0.19
502.91	0.18
503.263	0.18
503.615	0.18
503.967	0.18
504.319	0.18
504.671	0.18
505.023	0.17
505.375	0.18
505.726	0.17
506.078	0.18
506.43	0.17
506.782	0.17
507.133	0.17
507.485	0.18
507.837	0.18
508.188	0.18
508.54	0.17
508.891	0.17
509.243	0.17
509.594	0.17
509.945	0.17
510.296	0.16
510.648	0.17
510.999	0.17
511.35	0.16
511.701	0.17
512.052	0.17
512.403	0.17
512.754	0.16
513.105	0.15
513.456	0.17
513.807	0.16
514.157	0.17
514.508	0.16
514.859	0.16
515.209	0.16
515.56	0.17
515.91	0.16
516.261	0.16
516.611	0.16
516.962	0.16
517.312	0.17
517.662	0.17
518.013	0.17
518.363	0.17
518.713	0.16
519.063	0.16
519.413	0.16
519.763	0.17
520.113	0.16
520.463	0.17
520.813	0.17
521.163	0.17
521.512	0.17
521.862	0.17
522.212	0.17
522.562	0.17
522.911	0.17
523.261	0.17
523.61	0.16
523.96	0.16
524.309	0.17
524.658	0.17
525.008	0.16
525.357	0.16
525.706	0.17
526.056	0.16
526.405	0.16
526.754	0.16
527.103	0.16
527.452	0.16
527.801	0.17
528.15	0.17
528.499	0.17
528.847	0.16
529.196	0.17
529.545	0.17
529.893	0.17
530.242	0.17
530.591	0.17
530.939	0.18
531.288	0.18
531.636	0.18
531.985	0.18
532.333	0.17
532.681	0.17
533.029	0.17
533.378	0.18
533.726	0.17
534.074	0.18
534.422	0.17
534.77	0.17
535.118	0.17
535.466	0.18
535.814	0.17
536.162	0.18
536.509	0.18
536.857	0.18
537.205	0.17
537.552	0.17
537.9	0.18
538.248	0.17
538.595	0.17
538.943	0.17
539.29	0.18
539.637	0.17
539.985	0.18
540.332	0.17
540.679	0.18
541.026	0.17
541.373	0.18
541.721	0.16
542.068	0.17
542.415	0.18
542.762	0.17
543.108	0.17
543.455	0.16
543.802	0.17
544.149	0.16
544.496	0.17
544.842	0.16
545.189	0.16
545.535	0.16
545.882	0.16
546.228	0.16
546.575	0.16
546.921	0.16
547.267	0.16
547.614	0.16
547.96	0.17
548.306	0.16
548.652	0.16
548.998	0.17
549.344	0.17
549.69	0.16
550.036	0.17
550.382	0.17
550.728	0.17
551.074	0.17
551.42	0.17
551.765	0.17
552.111	0.17
552.457	0.18
552.802	0.17
553.148	0.17
553.493	0.17
553.839	0.17
554.184	0.17
554.529	0.16
554.875	0.18
555.22	0.17
555.565	0.17
555.91	0.17
556.255	0.18
556.6	0.18
556.945	0.17
557.29	0.17
557.635	0.18
557.98	0.17
558.325	0.18
558.67	0.17
559.014	0.18
559.359	0.18
559.704	0.18
560.048	0.17
560.393	0.18
560.737	0.17
561.082	0.17
561.426	0.17
561.77	0.17
562.115	0.17
562.459	0.17
562.803	0.17
563.147	0.17
563.491	0.17
563.835	0.17
564.179	0.18
564.523	0.17
564.867	0.17
565.211	0.17
565.555	0.18
565.899	0.18
566.242	0.18
566.586	0.17
566.93	0.17
567.273	0.18
567.617	0.18
567.96	0.18
568.304	0.18
568.647	0.17
568.99	0.18
569.334	0.18
569.677	0.18
570.02	0.18
570.363	0.18
570.706	0.18
571.049	0.18
571.392	0.18
571.735	0.17
572.078	0.18
572.421	0.19
572.764	0.18
573.106	0.18
573.449	0.17
573.792	0.17
574.134	0.17
574.477	0.18
574.819	0.17
575.162	0.17
575.504	0.16
575.847	0.17
576.189	0.18
576.531	0.18
576.873	0.18
577.215	0.17
577.558	0.18
577.9	0.17
578.242	0.18
578.584	0.17
578.926	0.17
579.267	0.18
579.609	0.18
579.951	0.18
580.293	0.17
580.634	0.18
580.976	0.18
581.318	0.18
581.659	0.17
582.001	0.17
582.342	0.18
582.683	0.18
583.025	0.17
583.366	0.17
583.707	0.18
584.049	0.18
584.39	0.17
584.731	0.17
585.072	0.17
585.413	0.18
585.754	0.17
586.095	0.17
586.435	0.17
586.776	0.18
587.117	0.17
587.458	0.17
587.798	0.17
588.139	0.17
588.48	0.17
588.82	0.17
589.161	0.18
589.501	0.18
589.841	0.17
590.182	0.17
590.522	0.17
590.862	0.18
591.202	0.18
591.542	0.17
591.882	0.17
592.222	0.17
592.562	0.17
592.902	0.18
593.242	0.17
593.582	0.18
593.922	0.17
594.261	0.17
594.601	0.18
594.941	0.17
595.28	0.18
595.62	0.17
595.959	0.17
596.299	0.17
596.638	0.17
596.977	0.17
597.317	0.18
597.656	0.17
597.995	0.17
598.334	0.18
598.673	0.17
599.012	0.17
599.351	0.18
599.69	0.17
600.029	0.18
600.368	0.17
600.707	0.17
601.046	0.17
601.384	0.18
601.723	0.18
602.061	0.17
602.4	0.17
602.738	0.17
603.077	0.17
603.415	0.17
603.754	0.18
604.092	0.17
604.43	0.17
604.768	0.17
605.107	0.18
605.445	0.17
605.783	0.16
606.121	0.16
606.459	0.17
606.796	0.17
607.134	0.16
607.472	0.16
607.81	0.17
608.148	0.17
608.485	0.17
608.823	0.17
609.16	0.17
609.498	0.17
609.835	0.17
610.173	0.16
610.51	0.17
610.847	0.17
611.185	0.18
611.522	0.17
611.859	0.18
612.196	0.17
612.533	0.18
612.87	0.18
613.207	0.18
613.544	0.18
613.881	0.19
614.217	0.18
614.554	0.17
614.891	0.18
615.228	0.18
615.564	0.18
615.901	0.18
616.237	0.18
616.574	0.17
616.91	0.18
617.246	0.17
617.583	0.18
617.919	0.18
618.255	0.18
618.591	0.18
618.927	0.18
619.263	0.18
619.599	0.18
619.935	0.18
620.271	0.17
620.607	0.19
620.943	0.17
621.279	0.18
621.614	0.18
621.95	0.17
622.286	0.17
622.621	0.17
622.957	0.17
623.292	0.16
623.627	0.17
623.963	0.16
624.298	0.16
624.633	0.16
624.968	0.16
625.304	0.16
625.639	0.16
625.974	0.16
626.309	0.16
626.644	0.16
626.979	0.16
627.313	0.17
627.648	0.16
627.983	0.16
628.318	0.15
628.652	0.15
628.987	0.16
629.321	0.16
629.656	0.16
629.99	0.15
630.325	0.16
630.659	0.15
630.993	0.15
631.327	0.16
631.662	0.15
631.996	0.16
632.33	0.15
632.664	0.15
632.998	0.15
633.332	0.15
633.666	0.16
633.999	0.15
634.333	0.16
634.667	0.15
635.001	0.15
635.334	0.15
635.668	0.15
636.001	0.14
636.335	0.15
636.668	0.15
637.001	0.15
637.335	0.15
637.668	0.15
638.001	0.15
638.334	0.15
638.668	0.15
639.001	0.15
639.334	0.15
639.667	0.14
639.999	0.14
640.332	0.14
640.665	0.14
640.998	0.14
641.331	0.14
641.663	0.14
641.996	0.14
642.328	0.14
642.661	0.14
642.993	0.14
643.326	0.15
643.658	0.13
643.99	0.14
644.323	0.14
644.655	0.14
644.987	0.14
645.319	0.15
645.651	0.14
645.983	0.14
646.315	0.14
646.647	0.13
646.979	0.15
647.31	0.14
647.642	0.13
647.974	0.13
648.305	0.14
648.637	0.14
648.968	0.14
649.3	0.14
649.631	0.15
649.963	0.14
650.294	0.14
650.625	0.14
650.957	0.14
651.288	0.15
651.619	0.15
651.95	0.15
652.281	0.15
652.612	0.14
652.943	0.14
653.274	0.14
653.604	0.14
653.935	0.14
654.266	0.14
654.596	0.14
654.927	0.14
655.258	0.14
655.588	0.15
655.918	0.14
656.249	0.12
656.579	0.13
656.909	0.13
657.24	0.14
657.57	0.14
657.9	0.14
658.23	0.14
658.56	0.15
658.89	0.14
659.22	0.13
659.55	0.14
659.88	0.15
660.209	0.14
660.539	0.15
660.869	0.14
661.198	0.15
661.528	0.14
661.857	0.14
662.187	0.15
662.516	0.14
662.846	0.14
663.175	0.14
663.504	0.14
663.833	0.14
664.163	0.14
664.492	0.13
664.821	0.13
665.15	0.14
665.479	0.14
665.807	0.14
666.136	0.14
666.465	0.13
666.794	0.14
667.122	0.13
667.451	0.13
667.78	0.13
668.108	0.13
668.437	0.13
668.765	0.13
669.093	0.14
669.422	0.13
669.75	0.13
670.078	0.13
670.406	0.13
670.734	0.13
671.062	0.13
671.39	0.12
671.718	0.13
672.046	0.13
672.374	0.12
672.702	0.13
673.029	0.12
673.357	0.13
673.685	0.13
674.012	0.13
674.34	0.13
674.667	0.13
674.995	0.13
675.322	0.13
675.649	0.12
675.977	0.12
676.304	0.13
676.631	0.13
676.958	0.13
677.285	0.12
677.612	0.12
677.939	0.13
678.266	0.13
678.593	0.13
678.92	0.13
679.246	0.12
679.573	0.12
679.9	0.12
680.226	0.12
680.553	0.12
680.879	0.12
681.206	0.13
681.532	0.12
681.858	0.12
682.184	0.12
682.511	0.12
682.837	0.11
683.163	0.12
683.489	0.12
683.815	0.12
684.141	0.12
684.467	0.11
684.793	0.11
685.118	0.11
685.444	0.12
685.77	0.12
686.095	0.12
686.421	0.12
686.746	0.12
687.072	0.12
687.397	0.12
687.723	0.12
688.048	0.12
688.373	0.12
688.698	0.12
689.023	0.12
689.349	0.12
689.674	0.12
689.999	0.12
690.323	0.11
690.648	0.11
690.973	0.11
691.298	0.11
691.623	0.11
691.947	0.11
692.272	0.11
692.596	0.12
692.921	0.12
693.245	0.12
693.57	0.12
693.894	0.12
694.218	0.12
694.543	0.11
694.867	0.12
695.191	0.1
695.515	0.11
695.839	0.11
696.163	0.11
696.487	0.12
696.811	0.11
697.135	0.11
697.458	0.11
697.782	0.11
698.106	0.11
698.429	0.11
698.753	0.11
699.076	0.11
699.4	0.11
699.723	0.11
700.046	0.1
700.37	0.12
700.693	0.11
701.016	0.1
701.339	0.11
701.662	0.11
701.985	0.11
702.308	0.1
702.631	0.11
702.954	0.11
703.277	0.11
703.599	0.1
703.922	0.1
704.245	0.1
704.567	0.09
704.89	0.1
705.212	0.1
705.535	0.09
705.857	0.1
706.179	0.09
706.502	0.08
706.824	0.09
707.146	0.09
707.468	0.1
707.79	0.09
708.112	0.09
708.434	0.09
708.756	0.1
709.078	0.09
709.399	0.09
709.721	0.1
710.043	0.1
710.364	0.1
710.686	0.09
711.007	0.09
711.329	0.1
711.65	0.1
711.972	0.09
712.293	0.1
712.614	0.1
712.935	0.1
713.256	0.1
713.577	0.11
713.898	0.1
714.219	0.09
714.54	0.09
714.861	0.08
715.182	0.09
715.503	0.09
715.823	0.09
716.144	0.08
716.464	0.09
716.785	0.08
717.105	0.08
717.426	0.09
717.746	0.09
718.066	0.08
718.387	0.08
718.707	0.08
719.027	0.08
719.347	0.07
719.667	0.08
719.987	0.07
720.307	0.08
720.627	0.08
720.947	0.08
721.266	0.08
721.586	0.08
721.906	0.08
722.225	0.08
722.545	0.08
722.864	0.07
723.184	0.08
723.503	0.08
723.823	0.08
724.142	0.07
724.461	0.08
724.78	0.08
725.099	0.08
725.418	0.08
725.737	0.07
726.056	0.08
726.375	0.08
726.694	0.07
727.013	0.08
727.331	0.07
727.65	0.07
727.969	0.07
728.287	0.08
728.606	0.08
728.924	0.07
729.242	0.08
729.561	0.08
729.879	0.08
730.197	0.08
730.515	0.07
730.834	0.07
731.152	0.08
731.47	0.07
731.788	0.08
732.105	0.07
732.423	0.07
732.741	0.07
733.059	0.07
733.376	0.08
733.694	0.07
734.012	0.07
734.329	0.08
734.647	0.08
734.964	0.08
735.281	0.07
735.599	0.08
735.916	0.08
736.233	0.07
736.55	0.07
736.867	0.08
737.184	0.08
737.501	0.07
737.818	0.08
738.135	0.08
738.452	0.07
738.768	0.07
739.085	0.07
739.402	0.06
739.718	0.07
740.035	0.08
740.351	0.08
740.668	0.07
740.984	0.07
741.3	0.07
741.617	0.08
741.933	0.07
742.249	0.08
742.565	0.08
742.881	0.08
743.197	0.08
743.513	0.07
743.829	0.07
744.144	0.07
744.46	0.06
744.776	0.07
745.091	0.06
745.407	0.07
745.722	0.07
746.038	0.07
746.353	0.06
746.669	0.07
746.984	0.06
747.299	0.07
747.614	0.07
747.93	0.07
748.245	0.07
748.56	0.06
748.875	0.06
749.189	0.06
749.504	0.07
749.819	0.07
750.134	0.06
750.448	0.07
750.763	0.07
751.078	0.06
751.392	0.06
751.707	0.07
752.021	0.07
752.335	0.08
752.65	0.07
752.964	0.07
753.278	0.07
753.592	0.07
753.906	0.06
754.22	0.07
754.534	0.07
754.848	0.07
755.162	0.08
755.476	0.07
755.789	0.07
756.103	0.06
756.417	0.07
756.73	0.07
757.044	0.07
757.357	0.07
757.671	0.07
757.984	0.07
758.297	0.08
758.61	0.08
758.924	0.06
759.237	0.07
759.55	0.07
759.863	0.07
760.176	0.07
760.488	0.07
760.801	0.06
761.114	0.06
761.427	0.06
761.739	0.07
762.052	0.07
762.365	0.06
762.677	0.07
762.99	0.06
763.302	0.06
763.614	0.06
763.926	0.07
764.239	0.06
764.551	0.06
764.863	0.06
765.175	0.07
765.487	0.06
765.799	0.06
766.111	0.05
766.423	0.06
766.734	0.06
767.046	0.06
767.358	0.06
767.669	0.06
767.981	0.06
768.292	0.06
768.604	0.06
768.915	0.06
769.226	0.05
769.537	0.05
769.849	0.06
770.16	0.05
770.471	0.05
770.782	0.05
771.093	0.05
771.404	0.05
771.715	0.05
772.025	0.06
772.336	0.05
772.647	0.05
772.957	0.05
773.268	0.05
773.578	0.05
773.889	0.06
774.199	0.06
774.51	0.06
774.82	0.06
775.13	0.06
775.44	0.06
775.75	0.06
776.06	0.06
776.37	0.05
776.68	0.06
776.99	0.06
777.3	0.05
777.61	0.06
777.92	0.06
778.229	0.05
778.539	0.06
778.848	0.06
779.158	0.06
779.467	0.06
779.777	0.06
780.086	0.05
780.395	0.06
780.704	0.05
781.013	0.05
781.323	0.05
781.632	0.05
781.941	0.05
782.249	0.06
782.558	0.05
782.867	0.05
783.176	0.05
783.485	0.05
783.793	0.06
784.102	0.05
784.41	0.05
784.719	0.05
785.027	0.04
785.335	0.05
785.644	0.05
785.952	0.05
786.26	0.05
786.568	0.04
786.876	0.04
787.184	0.04
787.492	0.05
787.8	0.05
788.108	0.05
788.416	0.04
788.723	0.05
789.031	0.04
789.338	0.05
789.646	0.04
789.953	0.05
790.261	0.05
790.568	0.05
790.876	0.04
791.183	0.06
791.49	0.05
791.797	0.05
792.104	0.05
792.411	0.06
792.718	0.05
793.025	0.06
793.332	0.05
793.639	0.06
793.945	0.06
794.252	0.05
794.559	0.05
794.865	0.06
795.172	0.06
795.478	0.06
795.784	0.06
796.091	0.06
796.397	0.07
796.703	0.06
797.009	0.07
797.315	0.06
797.622	0.06
797.927	0.06
798.233	0.05
798.539	0.06
798.845	0.07
799.151	0.06
799.456	0.07
799.762	0.06
800.068	0.06
800.373	0.07
800.679	0.06
800.984	0.06
801.289	0.06
801.595	0.06
801.9	0.05
802.205	0.05
802.51	0.06
802.815	0.06
803.12	0.05
803.425	0.05
803.73	0.05
804.035	0.06
804.339	0.04
804.644	0.05
804.949	0.05
805.253	0.05
805.558	0.05
805.862	0.05
806.167	0.05
806.471	0.05
806.775	0.05
807.08	0.05
807.384	0.05
807.688	0.05
807.992	0.05
808.296	0.05
808.6	0.05
808.904	0.06
809.207	0.05
809.511	0.06
809.815	0.06
810.119	0.06
810.422	0.06
810.726	0.07
811.029	0.07
811.332	0.07
811.636	0.07
811.939	0.06
812.242	0.07
812.546	0.06
812.849	0.07
813.152	0.07
813.455	0.07
813.758	0.07
814.06	0.07
814.363	0.07
814.666	0.07
814.969	0.06
815.271	0.07
815.574	0.06
815.877	0.06
816.179	0.06
816.481	0.06
816.784	0.06
817.086	0.05
817.388	0.05
817.69	0.04
817.993	0.04
818.295	0.05
818.597	0.05
818.899	0.04
819.2	0.04
819.502	0.04
819.804	0.04
820.106	0.04
820.407	0.04
820.709	0.05
821.01	0.04
821.312	0.05
821.613	0.04
821.915	0.04
822.216	0.04
822.517	0.04
822.818	0.05
823.119	0.04
823.42	0.04
823.721	0.03
824.022	0.04
824.323	0.04
824.624	0.04
824.925	0.04
825.226	0.05
825.526	0.04
825.827	0.04
826.127	0.04
826.428	0.04
826.728	0.03
827.028	0.04
827.329	0.03
827.629	0.03
827.929	0.03
828.229	0.05
828.529	0.05
828.829	0.03
829.129	0.04
829.429	0.04
829.729	0.04
830.029	0.03
830.328	0.04
830.628	0.03
830.927	0.02
831.227	0.03
831.526	0.03
831.826	0.03
832.125	0.03
832.424	0.03
832.724	0.03
833.023	0.03
833.322	0.04
833.621	0.02
833.92	0.02
834.219	0.02
834.518	0.02
834.816	0.02
835.115	0.01
835.414	0.02
835.712	0.01
836.011	0.01
836.309	0.02
836.608	0.01
836.906	0
837.205	0.01
837.503	0.01
837.801	0
838.099	0
838.397	-0.01
838.695	0.01
838.993	0.01
839.291	0
839.589	-0
839.887	-0
840.184	-0.01
840.482	-0.01
840.78	-0
841.077	-0
841.375	-0.01
841.672	-0
841.969	-0.01
842.267	-0.01
842.564	-0.01
842.861	-0
843.158	-0.02
843.455	-0.02
843.752	-0.02
844.049	-0.02
844.346	-0.02
844.643	-0.03
844.94	-0.03
845.236	-0.02
845.533	-0.03
845.83	-0.03
846.126	-0.04
846.423	-0.02
846.719	-0.04
847.015	-0.04
847.312	-0.04
847.608	-0.05
847.904	-0.04
848.2	-0.04
848.496	-0.04
848.792	-0.03
849.088	-0.03
849.384	-0.04
849.68	-0.04
849.975	-0.05
850.271	-0.05
850.567	-0.05
850.862	-0.05
851.158	-0.05
851.453	-0.05
851.748	-0.06
852.044	-0.06
852.339	-0.05
852.634	-0.07
852.929	-0.05
853.224	-0.07
853.519	-0.07
853.814	-0.06
854.109	-0.07
854.404	-0.07
854.699	-0.07
854.994	-0.07
855.288	-0.07
855.583	-0.06
855.877	-0.07
856.172	-0.07
856.466	-0.07
856.76	-0.08
857.055	-0.09
857.349	-0.08
857.643	-0.09
857.937	-0.09
858.231	-0.09
858.525	-0.1
858.819	-0.1
859.113	-0.11
859.407	-0.1
859.701	-0.11
859.994	-0.1
860.288	-0.09
860.581	-0.11
860.875	-0.1
861.168	-0.1
861.462	-0.11
861.755	-0.09
862.048	-0.1
862.341	-0.11
862.634	-0.11
862.928	-0.1
863.221	-0.1
863.513	-0.11
863.806	-0.11
864.099	-0.11
864.392	-0.11
864.685	-0.11
864.977	-0.12
865.27	-0.11
865.562	-0.12
865.855	-0.11
866.147	-0.11
866.44	-0.11
866.732	-0.12
867.024	-0.12
867.316	-0.13
867.608	-0.12
867.9	-0.12
868.192	-0.13
868.484	-0.13
868.776	-0.13
869.068	-0.14
869.359	-0.13
869.651	-0.15
869.943	-0.15
870.234	-0.14
870.526	-0.15
870.817	-0.14
871.108	-0.14
871.4	-0.14
871.691	-0.15
871.982	-0.16
872.273	-0.17
872.564	-0.16
872.855	-0.16
873.146	-0.17
873.437	-0.16
873.728	-0.17
874.019	-0.16
874.309	-0.16
874.6	-0.16
874.89	-0.17
875.181	-0.17
875.471	-0.17
875.762	-0.16
876.052	-0.16
876.342	-0.16
876.632	-0.16
876.922	-0.17
877.213	-0.15
877.503	-0.18
877.792	-0.16
878.082	-0.17
878.372	-0.17
878.662	-0.17
878.952	-0.16
879.241	-0.16
879.531	-0.16
879.82	-0.18
880.11	-0.16
880.399	-0.16
880.688	-0.15
880.978	-0.15
881.267	-0.15
