Data from 12-12-AQDScycling_Absorbance__971__00971.txt Node

Date: Tue Dec 12 14:59:29 EST 2023
User: kyuminlee
Spectrometer: FLMS00943
Trigger mode: 0
Integration Time (sec): 1.000000E-1
Scans to average: 1
Electric dark correction enabled: true
Nonlinearity correction enabled: false
Boxcar width: 0
XAxis mode: Wavelengths
Number of Pixels in Spectrum: 2048
>>>>>Begin Spectral Data<<<<<
179.651	0.37
180.037	0.37
180.424	0.37
180.81	-0
181.197	0.09
181.583	-0
181.97	0.35
182.356	-0
182.743	-0
183.129	-0
183.515	0.33
183.901	-2.22
184.288	0.45
184.674	-0
185.06	-1.18
185.446	-0
185.832	0.18
186.218	0.14
186.604	1.01
186.99	-0
187.376	-0
187.762	0.08
188.148	0.04
188.534	0.24
188.92	0.09
189.305	-0.05
189.691	0.01
190.077	0.1
190.463	0.16
190.848	-0.05
191.234	0.09
191.619	0.16
192.005	0.05
192.391	0.15
192.776	0.03
193.161	0.05
193.547	0.2
193.932	-0.07
194.318	-0.02
194.703	0.06
195.088	0.05
195.473	0.15
195.859	0.08
196.244	0.09
196.629	0.03
197.014	0.03
197.399	0.2
197.784	0.23
198.169	0.1
198.554	0.1
198.939	0.04
199.324	0.08
199.709	0.07
200.094	0.11
200.478	0.01
200.863	0.15
201.248	0.19
201.633	0.04
202.017	0.09
202.402	0.19
202.787	0.04
203.171	0.04
203.556	0.27
203.94	0.15
204.325	0.19
204.709	0.16
205.093	0.09
205.478	0.05
205.862	-0.01
206.246	0.2
206.631	0.2
207.015	0.16
207.399	0.18
207.783	0.07
208.167	0.14
208.551	0.14
208.935	0.12
209.319	0.15
209.703	0.12
210.087	0.15
210.471	0.05
210.855	0.03
211.239	0.22
211.623	0.14
212.007	0.32
212.39	0.19
212.774	0.1
213.158	0.05
213.541	0.17
213.925	0.13
214.309	0.35
214.692	0.28
215.076	0.17
215.459	0.22
215.842	0.12
216.226	0.16
216.609	0.23
216.993	0.11
217.376	0.37
217.759	0.13
218.142	0.28
218.525	0.54
218.909	0.34
219.292	0.31
219.675	0.33
220.058	0.39
220.441	0.46
220.824	0.31
221.207	0.47
221.59	0.56
221.973	0.45
222.355	0.53
222.738	0.52
223.121	0.59
223.504	0.52
223.886	0.56
224.269	0.63
224.652	0.67
225.034	0.74
225.417	0.7
225.799	0.76
226.182	0.87
226.564	0.86
226.947	0.74
227.329	0.73
227.711	0.89
228.094	1.02
228.476	0.91
228.858	0.76
229.24	0.82
229.623	0.84
230.005	0.86
230.387	0.87
230.769	0.78
231.151	0.97
231.533	0.93
231.915	0.95
232.297	0.98
232.679	0.98
233.061	0.96
233.442	1.02
233.824	0.94
234.206	1.08
234.588	1.08
234.969	1.03
235.351	0.94
235.733	1.1
236.114	1.02
236.496	1.09
236.877	0.94
237.259	1.07
237.64	0.95
238.022	1.01
238.403	0.93
238.784	0.98
239.165	0.97
239.547	1.02
239.928	1.02
240.309	1.05
240.69	1.07
241.071	1.1
241.452	1.14
241.834	0.92
242.215	1.1
242.595	1.01
242.976	1.11
243.357	1.04
243.738	1.02
244.119	1.24
244.5	1.15
244.881	1.19
245.261	1.13
245.642	1.16
246.023	1.08
246.403	1.2
246.784	1.21
247.164	1.22
247.545	1.13
247.925	1.26
248.306	1.17
248.686	1.31
249.067	1.28
249.447	1.36
249.827	1.41
250.207	1.44
250.588	1.27
250.968	1.36
251.348	1.28
251.728	1.46
252.108	1.36
252.488	1.31
252.868	1.29
253.248	1.24
253.628	1.36
254.008	1.39
254.388	1.24
254.768	1.4
255.147	1.39
255.527	1.34
255.907	1.31
256.287	1.27
256.666	1.33
257.046	1.51
257.425	1.34
257.805	1.36
258.184	1.26
258.564	1.37
258.943	1.34
259.323	1.47
259.702	1.37
260.081	1.35
260.461	1.39
260.84	1.41
261.219	1.77
261.598	1.42
261.977	1.44
262.356	1.44
262.736	1.56
263.115	1.47
263.494	1.42
263.873	1.39
264.251	1.5
264.63	1.55
265.009	1.33
265.388	1.41
265.767	1.43
266.145	1.5
266.524	1.3
266.903	1.36
267.281	1.31
267.66	1.49
268.039	1.4
268.417	1.39
268.796	1.34
269.174	1.37
269.552	1.24
269.931	1.43
270.309	1.2
270.687	1.44
271.066	1.6
271.444	1.3
271.822	1.44
272.2	1.32
272.578	1.34
272.956	1.45
273.334	1.43
273.712	1.46
274.09	1.37
274.468	1.4
274.846	1.28
275.224	1.32
275.602	1.4
275.98	1.5
276.357	1.31
276.735	1.44
277.113	1.38
277.49	1.32
277.868	1.32
278.246	1.46
278.623	1.32
279.001	1.26
279.378	1.37
279.756	1.47
280.133	1.55
280.51	1.33
280.888	1.37
281.265	1.39
281.642	1.47
282.019	1.63
282.396	1.45
282.773	1.49
283.151	1.42
283.528	1.39
283.905	1.32
284.282	1.55
284.659	1.46
285.035	1.36
285.412	1.3
285.789	1.6
286.166	1.42
286.543	1.34
286.919	1.45
287.296	1.4
287.673	1.65
288.049	1.65
288.426	1.42
288.802	1.41
289.179	1.39
289.555	1.69
289.932	1.41
290.308	1.39
290.684	1.39
291.061	1.32
291.437	1.4
291.813	1.32
292.189	1.3
292.565	1.32
292.942	1.36
293.318	1.27
293.694	1.33
294.07	1.38
294.446	1.44
294.822	1.43
295.197	1.48
295.573	1.43
295.949	1.43
296.325	1.43
296.701	1.42
297.076	1.53
297.452	1.51
297.828	1.34
298.203	1.64
298.579	1.35
298.954	1.5
299.33	1.43
299.705	1.41
300.081	1.55
300.456	1.45
300.831	1.49
301.206	1.38
301.582	1.76
301.957	1.46
302.332	1.49
302.707	1.43
303.082	1.47
303.457	1.53
303.832	1.41
304.207	1.38
304.582	1.5
304.957	1.4
305.332	1.72
305.707	1.48
306.082	1.61
306.456	1.57
306.831	1.45
307.206	1.4
307.58	1.44
307.955	1.42
308.33	1.44
308.704	1.47
309.079	1.4
309.453	1.73
309.828	1.45
310.202	1.6
310.576	1.45
310.951	1.6
311.325	1.46
311.699	1.46
312.073	1.44
312.447	1.45
312.821	1.4
313.196	1.42
313.57	1.46
313.944	1.5
314.317	1.48
314.691	1.58
315.065	1.56
315.439	1.44
315.813	1.45
316.187	1.35
316.56	1.58
316.934	1.6
317.308	1.47
317.681	1.46
318.055	1.59
318.428	1.51
318.802	1.58
319.175	1.46
319.549	1.49
319.922	1.39
320.295	1.45
320.669	1.6
321.042	1.47
321.415	1.61
321.788	1.51
322.162	1.43
322.535	1.54
322.908	1.54
323.281	1.48
323.654	1.61
324.027	1.44
324.4	1.63
324.773	1.64
325.145	1.59
325.518	1.46
325.891	1.37
326.264	1.5
326.636	1.41
327.009	1.34
327.382	1.42
327.754	1.5
328.127	1.42
328.499	1.47
328.872	1.52
329.244	1.45
329.616	1.38
329.989	1.44
330.361	1.49
330.733	1.55
331.106	1.4
331.478	1.54
331.85	1.47
332.222	1.39
332.594	1.5
332.966	1.51
333.338	1.56
333.71	1.48
334.082	1.62
334.454	1.48
334.826	1.39
335.197	1.62
335.569	1.5
335.941	1.42
336.312	1.39
336.684	1.44
337.056	1.5
337.427	1.44
337.799	1.59
338.17	1.55
338.542	1.41
338.913	1.54
339.284	1.69
339.656	1.47
340.027	1.5
340.398	1.52
340.769	1.62
341.141	1.72
341.512	1.52
341.883	1.56
342.254	1.45
342.625	1.52
342.996	1.46
343.367	1.42
343.738	1.48
344.108	1.38
344.479	1.52
344.85	1.33
345.221	1.48
345.591	1.34
345.962	1.43
346.333	1.43
346.703	1.36
347.074	1.33
347.444	1.29
347.815	1.45
348.185	1.51
348.556	1.4
348.926	1.3
349.296	1.33
349.666	1.42
350.037	1.19
350.407	1.25
350.777	1.38
351.147	1.29
351.517	1.34
351.887	1.38
352.257	1.37
352.627	1.23
352.997	1.35
353.367	1.34
353.737	1.36
354.106	1.51
354.476	1.38
354.846	1.39
355.216	1.32
355.585	1.37
355.955	1.33
356.324	1.34
356.694	1.28
357.063	1.32
357.433	1.2
357.802	1.23
358.171	1.27
358.541	1.23
358.91	1.24
359.279	1.18
359.648	1.17
360.017	1.24
360.387	1.24
360.756	1.14
361.125	1.1
361.494	1.14
361.863	1.07
362.231	1.08
362.6	1.06
362.969	1.09
363.338	1.04
363.707	1.05
364.075	1.03
364.444	0.96
364.813	1
365.181	0.97
365.55	0.96
365.918	1
366.287	0.94
366.655	0.96
367.024	0.92
367.392	0.96
367.76	0.93
368.128	0.91
368.497	0.89
368.865	0.9
369.233	0.87
369.601	0.87
369.969	0.86
370.337	0.89
370.705	0.88
371.073	0.86
371.441	0.84
371.809	0.82
372.177	0.84
372.544	0.82
372.912	0.84
373.28	0.84
373.647	0.8
374.015	0.84
374.383	0.84
374.75	0.84
375.118	0.78
375.485	0.77
375.853	0.78
376.22	0.77
376.587	0.77
376.955	0.78
377.322	0.77
377.689	0.77
378.056	0.74
378.423	0.76
378.79	0.79
379.157	0.76
379.524	0.76
379.891	0.76
380.258	0.75
380.625	0.76
380.992	0.74
381.359	0.73
381.726	0.77
382.092	0.75
382.459	0.75
382.826	0.75
383.192	0.77
383.559	0.76
383.925	0.79
384.292	0.78
384.658	0.81
385.025	0.78
385.391	0.79
385.757	0.79
386.123	0.77
386.49	0.78
386.856	0.8
387.222	0.8
387.588	0.81
387.954	0.84
388.32	0.83
388.686	0.81
389.052	0.8
389.418	0.78
389.784	0.79
390.15	0.79
390.515	0.75
390.881	0.86
391.247	0.78
391.613	0.84
391.978	0.79
392.344	0.82
392.709	0.8
393.075	0.79
393.44	0.78
393.806	0.8
394.171	0.8
394.536	0.78
394.902	0.81
395.267	0.78
395.632	0.77
395.997	0.75
396.362	0.77
396.727	0.8
397.092	0.77
397.457	0.79
397.822	0.77
398.187	0.76
398.552	0.76
398.917	0.76
399.282	0.74
399.646	0.72
400.011	0.76
400.376	0.72
400.74	0.71
401.105	0.71
401.47	0.72
401.834	0.72
402.199	0.72
402.563	0.69
402.927	0.66
403.292	0.68
403.656	0.68
404.02	0.69
404.384	0.69
404.749	0.69
405.113	0.68
405.477	0.66
405.841	0.64
406.205	0.64
406.569	0.63
406.933	0.65
407.296	0.63
407.66	0.63
408.024	0.65
408.388	0.63
408.752	0.63
409.115	0.63
409.479	0.61
409.842	0.61
410.206	0.57
410.569	0.6
410.933	0.62
411.296	0.59
411.66	0.59
412.023	0.57
412.386	0.58
412.749	0.56
413.113	0.59
413.476	0.56
413.839	0.57
414.202	0.55
414.565	0.55
414.928	0.55
415.291	0.54
415.654	0.55
416.017	0.57
416.38	0.54
416.742	0.54
417.105	0.52
417.468	0.55
417.83	0.53
418.193	0.56
418.556	0.54
418.918	0.52
419.281	0.54
419.643	0.55
420.005	0.53
420.368	0.52
420.73	0.52
421.092	0.52
421.455	0.51
421.817	0.48
422.179	0.51
422.541	0.49
422.903	0.52
423.265	0.49
423.627	0.49
423.989	0.49
424.351	0.48
424.713	0.49
425.075	0.47
425.436	0.48
425.798	0.49
426.16	0.48
426.521	0.5
426.883	0.49
427.245	0.48
427.606	0.47
427.967	0.47
428.329	0.46
428.69	0.48
429.052	0.47
429.413	0.5
429.774	0.49
430.135	0.47
430.497	0.45
430.858	0.46
431.219	0.47
431.58	0.46
431.941	0.45
432.302	0.47
432.663	0.46
433.024	0.48
433.384	0.46
433.745	0.45
434.106	0.46
434.467	0.47
434.827	0.45
435.188	0.45
435.548	0.45
435.909	0.44
436.269	0.47
436.63	0.45
436.99	0.43
437.351	0.43
437.711	0.45
438.071	0.43
438.431	0.41
438.792	0.41
439.152	0.42
439.512	0.42
439.872	0.41
440.232	0.43
440.592	0.43
440.952	0.43
441.312	0.42
441.671	0.4
442.031	0.41
442.391	0.41
442.751	0.42
443.11	0.42
443.47	0.39
443.83	0.4
444.189	0.4
444.549	0.4
444.908	0.4
445.267	0.4
445.627	0.39
445.986	0.38
446.345	0.37
446.705	0.37
447.064	0.38
447.423	0.37
447.782	0.37
448.141	0.37
448.5	0.37
448.859	0.38
449.218	0.37
449.577	0.37
449.936	0.37
450.295	0.37
450.653	0.36
451.012	0.36
451.371	0.36
451.729	0.36
452.088	0.36
452.447	0.36
452.805	0.37
453.163	0.34
453.522	0.36
453.88	0.35
454.239	0.34
454.597	0.35
454.955	0.34
455.313	0.33
455.671	0.34
456.029	0.33
456.388	0.33
456.746	0.33
457.104	0.32
457.461	0.32
457.819	0.32
458.177	0.32
458.535	0.3
458.893	0.3
459.25	0.3
459.608	0.3
459.966	0.29
460.323	0.3
460.681	0.28
461.038	0.29
461.396	0.29
461.753	0.29
462.111	0.28
462.468	0.28
462.825	0.27
463.182	0.27
463.54	0.26
463.897	0.27
464.254	0.27
464.611	0.26
464.968	0.26
465.325	0.26
465.682	0.26
466.039	0.25
466.395	0.25
466.752	0.26
467.109	0.25
467.466	0.25
467.822	0.25
468.179	0.24
468.535	0.24
468.892	0.24
469.248	0.23
469.605	0.23
469.961	0.22
470.318	0.23
470.674	0.24
471.03	0.23
471.386	0.22
471.743	0.22
472.099	0.22
472.455	0.21
472.811	0.21
473.167	0.21
473.523	0.2
473.879	0.21
474.235	0.21
474.59	0.2
474.946	0.2
475.302	0.2
475.657	0.2
476.013	0.2
476.369	0.19
476.724	0.19
477.08	0.19
477.435	0.19
477.791	0.19
478.146	0.19
478.501	0.18
478.857	0.19
479.212	0.18
479.567	0.18
479.922	0.17
480.277	0.17
480.632	0.17
480.987	0.17
481.342	0.16
481.697	0.16
482.052	0.16
482.407	0.16
482.762	0.15
483.116	0.15
483.471	0.14
483.826	0.14
484.18	0.15
484.535	0.14
484.89	0.15
485.244	0.15
485.598	0.15
485.953	0.14
486.307	0.14
486.661	0.14
487.016	0.13
487.37	0.13
487.724	0.13
488.078	0.14
488.432	0.13
488.786	0.14
489.14	0.13
489.494	0.13
489.848	0.13
490.202	0.13
490.556	0.13
490.91	0.13
491.263	0.13
491.617	0.12
491.971	0.13
492.324	0.12
492.678	0.12
493.031	0.12
493.385	0.12
493.738	0.12
494.091	0.12
494.445	0.12
494.798	0.11
495.151	0.12
495.504	0.11
495.857	0.12
496.21	0.12
496.564	0.11
496.916	0.12
497.269	0.11
497.622	0.12
497.975	0.12
498.328	0.12
498.681	0.11
499.033	0.11
499.386	0.11
499.739	0.1
500.091	0.11
500.444	0.1
500.796	0.1
501.149	0.1
501.501	0.1
501.854	0.1
502.206	0.1
502.558	0.1
502.91	0.1
503.263	0.1
503.615	0.1
503.967	0.1
504.319	0.1
504.671	0.1
505.023	0.1
505.375	0.1
505.726	0.09
506.078	0.09
506.43	0.09
506.782	0.09
507.133	0.1
507.485	0.1
507.837	0.11
508.188	0.1
508.54	0.1
508.891	0.11
509.243	0.1
509.594	0.11
509.945	0.11
510.296	0.09
510.648	0.1
510.999	0.09
511.35	0.1
511.701	0.1
512.052	0.1
512.403	0.1
512.754	0.1
513.105	0.1
513.456	0.1
513.807	0.1
514.157	0.1
514.508	0.1
514.859	0.09
515.209	0.1
515.56	0.1
515.91	0.1
516.261	0.1
516.611	0.09
516.962	0.1
517.312	0.1
517.662	0.1
518.013	0.1
518.363	0.1
518.713	0.11
519.063	0.1
519.413	0.1
519.763	0.1
520.113	0.1
520.463	0.1
520.813	0.1
521.163	0.11
521.512	0.1
521.862	0.1
522.212	0.1
522.562	0.11
522.911	0.1
523.261	0.1
523.61	0.1
523.96	0.1
524.309	0.11
524.658	0.11
525.008	0.1
525.357	0.1
525.706	0.11
526.056	0.1
526.405	0.1
526.754	0.1
527.103	0.09
527.452	0.1
527.801	0.1
528.15	0.1
528.499	0.1
528.847	0.11
529.196	0.11
529.545	0.11
529.893	0.11
530.242	0.11
530.591	0.12
530.939	0.11
531.288	0.11
531.636	0.11
531.985	0.11
532.333	0.11
532.681	0.11
533.029	0.11
533.378	0.11
533.726	0.1
534.074	0.11
534.422	0.1
534.77	0.11
535.118	0.11
535.466	0.1
535.814	0.1
536.162	0.1
536.509	0.12
536.857	0.11
537.205	0.11
537.552	0.11
537.9	0.11
538.248	0.1
538.595	0.11
538.943	0.11
539.29	0.11
539.637	0.11
539.985	0.11
540.332	0.11
540.679	0.11
541.026	0.1
541.373	0.11
541.721	0.1
542.068	0.1
542.415	0.11
542.762	0.11
543.108	0.1
543.455	0.1
543.802	0.1
544.149	0.1
544.496	0.11
544.842	0.1
545.189	0.09
545.535	0.1
545.882	0.11
546.228	0.1
546.575	0.1
546.921	0.09
547.267	0.1
547.614	0.09
547.96	0.1
548.306	0.1
548.652	0.1
548.998	0.1
549.344	0.1
549.69	0.1
550.036	0.1
550.382	0.1
550.728	0.1
551.074	0.1
551.42	0.11
551.765	0.1
552.111	0.11
552.457	0.11
552.802	0.11
553.148	0.1
553.493	0.11
553.839	0.11
554.184	0.1
554.529	0.1
554.875	0.11
555.22	0.11
555.565	0.11
555.91	0.11
556.255	0.11
556.6	0.12
556.945	0.1
557.29	0.11
557.635	0.11
557.98	0.1
558.325	0.11
558.67	0.11
559.014	0.1
559.359	0.11
559.704	0.1
560.048	0.1
560.393	0.1
560.737	0.09
561.082	0.1
561.426	0.1
561.77	0.1
562.115	0.1
562.459	0.11
562.803	0.11
563.147	0.11
563.491	0.1
563.835	0.11
564.179	0.1
564.523	0.1
564.867	0.1
565.211	0.1
565.555	0.11
565.899	0.11
566.242	0.11
566.586	0.09
566.93	0.11
567.273	0.11
567.617	0.11
567.96	0.11
568.304	0.11
568.647	0.11
568.99	0.11
569.334	0.11
569.677	0.11
570.02	0.12
570.363	0.11
570.706	0.11
571.049	0.12
571.392	0.11
571.735	0.11
572.078	0.12
572.421	0.12
572.764	0.11
573.106	0.11
573.449	0.11
573.792	0.11
574.134	0.11
574.477	0.11
574.819	0.11
575.162	0.1
575.504	0.1
575.847	0.11
576.189	0.11
576.531	0.11
576.873	0.11
577.215	0.11
577.558	0.1
577.9	0.1
578.242	0.1
578.584	0.1
578.926	0.1
579.267	0.1
579.609	0.11
579.951	0.1
580.293	0.11
580.634	0.11
580.976	0.11
581.318	0.11
581.659	0.1
582.001	0.1
582.342	0.1
582.683	0.11
583.025	0.1
583.366	0.1
583.707	0.1
584.049	0.1
584.39	0.1
584.731	0.1
585.072	0.1
585.413	0.11
585.754	0.11
586.095	0.1
586.435	0.11
586.776	0.11
587.117	0.11
587.458	0.1
587.798	0.1
588.139	0.1
588.48	0.1
588.82	0.1
589.161	0.1
589.501	0.1
589.841	0.1
590.182	0.1
590.522	0.09
590.862	0.11
591.202	0.1
591.542	0.1
591.882	0.1
592.222	0.1
592.562	0.1
592.902	0.1
593.242	0.1
593.582	0.11
593.922	0.1
594.261	0.1
594.601	0.1
594.941	0.1
595.28	0.1
595.62	0.11
595.959	0.1
596.299	0.1
596.638	0.1
596.977	0.1
597.317	0.11
597.656	0.1
597.995	0.11
598.334	0.11
598.673	0.1
599.012	0.1
599.351	0.12
599.69	0.11
600.029	0.11
600.368	0.1
600.707	0.11
601.046	0.11
601.384	0.12
601.723	0.11
602.061	0.11
602.4	0.11
602.738	0.11
603.077	0.1
603.415	0.1
603.754	0.1
604.092	0.1
604.43	0.11
604.768	0.11
605.107	0.11
605.445	0.1
605.783	0.1
606.121	0.1
606.459	0.1
606.796	0.1
607.134	0.09
607.472	0.1
607.81	0.1
608.148	0.1
608.485	0.1
608.823	0.1
609.16	0.1
609.498	0.11
609.835	0.11
610.173	0.1
610.51	0.11
610.847	0.11
611.185	0.11
611.522	0.11
611.859	0.11
612.196	0.11
612.533	0.11
612.87	0.11
613.207	0.11
613.544	0.11
613.881	0.12
614.217	0.11
614.554	0.11
614.891	0.12
615.228	0.1
615.564	0.11
615.901	0.11
616.237	0.11
616.574	0.1
616.91	0.12
617.246	0.11
617.583	0.12
617.919	0.11
618.255	0.12
618.591	0.11
618.927	0.12
619.263	0.12
619.599	0.13
619.935	0.12
620.271	0.12
620.607	0.11
620.943	0.11
621.279	0.12
621.614	0.11
621.95	0.12
622.286	0.11
622.621	0.11
622.957	0.11
623.292	0.1
623.627	0.1
623.963	0.1
624.298	0.11
624.633	0.11
624.968	0.1
625.304	0.1
625.639	0.1
625.974	0.1
626.309	0.1
626.644	0.11
626.979	0.11
627.313	0.11
627.648	0.11
627.983	0.11
628.318	0.1
628.652	0.1
628.987	0.1
629.321	0.1
629.656	0.1
629.99	0.09
630.325	0.1
630.659	0.1
630.993	0.09
631.327	0.1
631.662	0.09
631.996	0.09
632.33	0.1
632.664	0.09
632.998	0.09
633.332	0.09
633.666	0.1
633.999	0.09
634.333	0.09
634.667	0.09
635.001	0.09
635.334	0.09
635.668	0.09
636.001	0.09
636.335	0.09
636.668	0.09
637.001	0.08
637.335	0.09
637.668	0.09
638.001	0.08
638.334	0.08
638.668	0.08
639.001	0.09
639.334	0.08
639.667	0.08
639.999	0.09
640.332	0.09
640.665	0.09
640.998	0.09
641.331	0.08
641.663	0.09
641.996	0.09
642.328	0.1
642.661	0.09
642.993	0.1
643.326	0.09
643.658	0.09
643.99	0.09
644.323	0.09
644.655	0.09
644.987	0.1
645.319	0.1
645.651	0.1
645.983	0.1
646.315	0.09
646.647	0.1
646.979	0.11
647.31	0.11
647.642	0.1
647.974	0.1
648.305	0.11
648.637	0.09
648.968	0.1
649.3	0.1
649.631	0.1
649.963	0.09
650.294	0.1
650.625	0.1
650.957	0.1
651.288	0.1
651.619	0.1
651.95	0.1
652.281	0.09
652.612	0.09
652.943	0.09
653.274	0.1
653.604	0.09
653.935	0.1
654.266	0.1
654.596	0.1
654.927	0.1
655.258	0.1
655.588	0.11
655.918	0.1
656.249	0.08
656.579	0.09
656.909	0.1
657.24	0.09
657.57	0.1
657.9	0.09
658.23	0.09
658.56	0.1
658.89	0.09
659.22	0.09
659.55	0.1
659.88	0.09
660.209	0.09
660.539	0.1
660.869	0.09
661.198	0.09
661.528	0.1
661.857	0.09
662.187	0.1
662.516	0.1
662.846	0.09
663.175	0.09
663.504	0.09
663.833	0.09
664.163	0.1
664.492	0.09
664.821	0.09
665.15	0.09
665.479	0.09
665.807	0.08
666.136	0.09
666.465	0.09
666.794	0.09
667.122	0.09
667.451	0.09
667.78	0.09
668.108	0.1
668.437	0.09
668.765	0.09
669.093	0.1
669.422	0.1
669.75	0.1
670.078	0.09
670.406	0.1
670.734	0.1
671.062	0.09
671.39	0.09
671.718	0.1
672.046	0.09
672.374	0.1
672.702	0.09
673.029	0.09
673.357	0.1
673.685	0.11
674.012	0.09
674.34	0.09
674.667	0.1
674.995	0.09
675.322	0.1
675.649	0.1
675.977	0.09
676.304	0.09
676.631	0.09
676.958	0.09
677.285	0.09
677.612	0.09
677.939	0.08
678.266	0.09
678.593	0.09
678.92	0.1
679.246	0.09
679.573	0.09
679.9	0.08
680.226	0.09
680.553	0.08
680.879	0.09
681.206	0.09
681.532	0.09
681.858	0.1
682.184	0.09
682.511	0.09
682.837	0.08
683.163	0.09
683.489	0.1
683.815	0.09
684.141	0.09
684.467	0.1
684.793	0.09
685.118	0.09
685.444	0.09
685.77	0.08
686.095	0.09
686.421	0.09
686.746	0.09
687.072	0.09
687.397	0.08
687.723	0.09
688.048	0.09
688.373	0.08
688.698	0.09
689.023	0.09
689.349	0.08
689.674	0.08
689.999	0.08
690.323	0.08
690.648	0.08
690.973	0.07
691.298	0.08
691.623	0.07
691.947	0.08
692.272	0.07
692.596	0.08
692.921	0.08
693.245	0.08
693.57	0.08
693.894	0.09
694.218	0.08
694.543	0.08
694.867	0.08
695.191	0.07
695.515	0.09
695.839	0.08
696.163	0.09
696.487	0.08
696.811	0.08
697.135	0.08
697.458	0.08
697.782	0.08
698.106	0.08
698.429	0.08
698.753	0.08
699.076	0.09
699.4	0.08
699.723	0.08
700.046	0.07
700.37	0.08
700.693	0.08
701.016	0.08
701.339	0.08
701.662	0.08
701.985	0.09
702.308	0.08
702.631	0.08
702.954	0.09
703.277	0.08
703.599	0.08
703.922	0.07
704.245	0.07
704.567	0.07
704.89	0.08
705.212	0.07
705.535	0.06
705.857	0.07
706.179	0.07
706.502	0.07
706.824	0.06
707.146	0.07
707.468	0.08
707.79	0.07
708.112	0.07
708.434	0.07
708.756	0.07
709.078	0.07
709.399	0.07
709.721	0.07
710.043	0.07
710.364	0.07
710.686	0.07
711.007	0.07
711.329	0.08
711.65	0.08
711.972	0.07
712.293	0.08
712.614	0.07
712.935	0.08
713.256	0.08
713.577	0.09
713.898	0.08
714.219	0.08
714.54	0.08
714.861	0.08
715.182	0.07
715.503	0.08
715.823	0.08
716.144	0.07
716.464	0.07
716.785	0.07
717.105	0.07
717.426	0.08
717.746	0.08
718.066	0.07
718.387	0.07
718.707	0.06
719.027	0.07
719.347	0.06
719.667	0.07
719.987	0.06
720.307	0.06
720.627	0.07
720.947	0.06
721.266	0.07
721.586	0.06
721.906	0.06
722.225	0.05
722.545	0.06
722.864	0.05
723.184	0.07
723.503	0.06
723.823	0.07
724.142	0.06
724.461	0.06
724.78	0.06
725.099	0.06
725.418	0.06
725.737	0.06
726.056	0.07
726.375	0.07
726.694	0.07
727.013	0.07
727.331	0.06
727.65	0.06
727.969	0.07
728.287	0.06
728.606	0.06
728.924	0.07
729.242	0.06
729.561	0.06
729.879	0.05
730.197	0.06
730.515	0.06
730.834	0.06
731.152	0.06
731.47	0.07
731.788	0.07
732.105	0.06
732.423	0.06
732.741	0.06
733.059	0.06
733.376	0.07
733.694	0.06
734.012	0.06
734.329	0.07
734.647	0.07
734.964	0.07
735.281	0.07
735.599	0.07
735.916	0.07
736.233	0.07
736.55	0.07
736.867	0.07
737.184	0.07
737.501	0.07
737.818	0.08
738.135	0.08
738.452	0.07
738.768	0.08
739.085	0.08
739.402	0.06
739.718	0.07
740.035	0.07
740.351	0.08
740.668	0.08
740.984	0.06
741.3	0.06
741.617	0.07
741.933	0.06
742.249	0.07
742.565	0.06
742.881	0.07
743.197	0.07
743.513	0.05
743.829	0.06
744.144	0.06
744.46	0.06
744.776	0.06
745.091	0.06
745.407	0.06
745.722	0.07
746.038	0.06
746.353	0.05
746.669	0.06
746.984	0.05
747.299	0.06
747.614	0.06
747.93	0.06
748.245	0.06
748.56	0.06
748.875	0.05
749.189	0.06
749.504	0.06
749.819	0.06
750.134	0.05
750.448	0.06
750.763	0.06
751.078	0.05
751.392	0.06
751.707	0.07
752.021	0.07
752.335	0.07
752.65	0.06
752.964	0.06
753.278	0.06
753.592	0.05
753.906	0.05
754.22	0.06
754.534	0.06
754.848	0.05
755.162	0.06
755.476	0.06
755.789	0.06
756.103	0.06
756.417	0.06
756.73	0.06
757.044	0.06
757.357	0.06
757.671	0.06
757.984	0.06
758.297	0.06
758.61	0.06
758.924	0.06
759.237	0.05
759.55	0.05
759.863	0.05
760.176	0.06
760.488	0.06
760.801	0.05
761.114	0.05
761.427	0.04
761.739	0.05
762.052	0.05
762.365	0.05
762.677	0.05
762.99	0.05
763.302	0.06
763.614	0.06
763.926	0.06
764.239	0.06
764.551	0.05
764.863	0.06
765.175	0.06
765.487	0.06
765.799	0.05
766.111	0.05
766.423	0.06
766.734	0.06
767.046	0.05
767.358	0.06
767.669	0.05
767.981	0.05
768.292	0.05
768.604	0.05
768.915	0.04
769.226	0.05
769.537	0.05
769.849	0.05
770.16	0.05
770.471	0.04
770.782	0.05
771.093	0.05
771.404	0.03
771.715	0.03
772.025	0.05
772.336	0.04
772.647	0.03
772.957	0.05
773.268	0.05
773.578	0.05
773.889	0.05
774.199	0.05
774.51	0.05
774.82	0.05
775.13	0.05
775.44	0.04
775.75	0.06
776.06	0.06
776.37	0.05
776.68	0.06
776.99	0.06
777.3	0.05
777.61	0.06
777.92	0.06
778.229	0.05
778.539	0.06
778.848	0.06
779.158	0.07
779.467	0.06
779.777	0.05
780.086	0.06
780.395	0.05
780.704	0.06
781.013	0.05
781.323	0.05
781.632	0.06
781.941	0.06
782.249	0.05
782.558	0.05
782.867	0.05
783.176	0.05
783.485	0.04
783.793	0.06
784.102	0.05
784.41	0.05
784.719	0.05
785.027	0.05
785.335	0.05
785.644	0.05
785.952	0.05
786.26	0.05
786.568	0.05
786.876	0.05
787.184	0.06
787.492	0.06
787.8	0.06
788.108	0.05
788.416	0.05
788.723	0.06
789.031	0.04
789.338	0.05
789.646	0.06
789.953	0.06
790.261	0.06
790.568	0.06
790.876	0.06
791.183	0.06
791.49	0.05
791.797	0.06
792.104	0.05
792.411	0.06
792.718	0.05
793.025	0.05
793.332	0.05
793.639	0.06
793.945	0.06
794.252	0.05
794.559	0.05
794.865	0.06
795.172	0.06
795.478	0.05
795.784	0.06
796.091	0.06
796.397	0.05
796.703	0.06
797.009	0.06
797.315	0.06
797.622	0.06
797.927	0.05
798.233	0.05
798.539	0.06
798.845	0.06
799.151	0.06
799.456	0.06
799.762	0.05
800.068	0.06
800.373	0.07
800.679	0.05
800.984	0.06
801.289	0.06
801.595	0.05
801.9	0.06
802.205	0.05
802.51	0.06
802.815	0.05
803.12	0.06
803.425	0.06
803.73	0.05
804.035	0.06
804.339	0.05
804.644	0.05
804.949	0.05
805.253	0.05
805.558	0.05
805.862	0.05
806.167	0.06
806.471	0.05
806.775	0.06
807.08	0.06
807.384	0.05
807.688	0.05
807.992	0.06
808.296	0.05
808.6	0.06
808.904	0.07
809.207	0.06
809.511	0.06
809.815	0.06
810.119	0.06
810.422	0.07
810.726	0.07
811.029	0.06
811.332	0.06
811.636	0.06
811.939	0.06
812.242	0.06
812.546	0.06
812.849	0.06
813.152	0.06
813.455	0.06
813.758	0.06
814.06	0.06
814.363	0.05
814.666	0.06
814.969	0.06
815.271	0.05
815.574	0.06
815.877	0.06
816.179	0.05
816.481	0.05
816.784	0.05
817.086	0.05
817.388	0.04
817.69	0.04
817.993	0.04
818.295	0.04
818.597	0.05
818.899	0.04
819.2	0.05
819.502	0.05
819.804	0.05
820.106	0.04
820.407	0.04
820.709	0.05
821.01	0.04
821.312	0.05
821.613	0.04
821.915	0.04
822.216	0.04
822.517	0.03
822.818	0.03
823.119	0.04
823.42	0.04
823.721	0.03
824.022	0.03
824.323	0.04
824.624	0.04
824.925	0.04
825.226	0.05
825.526	0.04
825.827	0.03
826.127	0.05
826.428	0.04
826.728	0.04
827.028	0.03
827.329	0.03
827.629	0.02
827.929	0.03
828.229	0.03
828.529	0.04
828.829	0.03
829.129	0.03
829.429	0.03
829.729	0.03
830.029	0.03
830.328	0.03
830.628	0.02
830.927	0.02
831.227	0.03
831.526	0.03
831.826	0.03
832.125	0.03
832.424	0.02
832.724	0.03
833.023	0.02
833.322	0.03
833.621	0.03
833.92	0.02
834.219	0.03
834.518	0.02
834.816	0.01
835.115	0.03
835.414	0.02
835.712	0.02
836.011	0.01
836.309	0.01
836.608	0.02
836.906	0.01
837.205	0
837.503	0
837.801	0.01
838.099	-0
838.397	-0.01
838.695	-0
838.993	-0.01
839.291	-0.01
839.589	-0.01
839.887	-0
840.184	-0.01
840.482	-0.01
840.78	-0.01
841.077	-0.02
841.375	-0.02
841.672	-0.02
841.969	-0.01
842.267	-0.02
842.564	-0.02
842.861	-0.01
843.158	-0.02
843.455	-0.03
843.752	-0.01
844.049	-0.01
844.346	-0.02
844.643	-0.03
844.94	-0.03
845.236	-0.01
845.533	-0.02
845.83	-0.02
846.126	-0.03
846.423	-0.03
846.719	-0.03
847.015	-0.03
847.312	-0.03
847.608	-0.04
847.904	-0.03
848.2	-0.04
848.496	-0.04
848.792	-0.04
849.088	-0.03
849.384	-0.04
849.68	-0.05
849.975	-0.05
850.271	-0.05
850.567	-0.05
850.862	-0.05
851.158	-0.05
851.453	-0.06
851.748	-0.06
852.044	-0.06
852.339	-0.06
852.634	-0.07
852.929	-0.06
853.224	-0.07
853.519	-0.06
853.814	-0.06
854.109	-0.07
854.404	-0.07
854.699	-0.07
854.994	-0.07
855.288	-0.06
855.583	-0.06
855.877	-0.07
856.172	-0.06
856.466	-0.07
856.76	-0.06
857.055	-0.07
857.349	-0.08
857.643	-0.08
857.937	-0.09
858.231	-0.08
858.525	-0.08
858.819	-0.08
859.113	-0.1
859.407	-0.09
859.701	-0.1
859.994	-0.1
860.288	-0.08
860.581	-0.1
860.875	-0.09
861.168	-0.09
861.462	-0.11
861.755	-0.1
862.048	-0.11
862.341	-0.1
862.634	-0.11
862.928	-0.1
863.221	-0.11
863.513	-0.12
863.806	-0.11
864.099	-0.12
864.392	-0.11
864.685	-0.12
864.977	-0.11
865.27	-0.11
865.562	-0.12
865.855	-0.11
866.147	-0.12
866.44	-0.11
866.732	-0.13
867.024	-0.13
867.316	-0.13
867.608	-0.13
867.9	-0.12
868.192	-0.13
868.484	-0.13
868.776	-0.13
869.068	-0.13
869.359	-0.13
869.651	-0.13
869.943	-0.15
870.234	-0.15
870.526	-0.15
870.817	-0.15
871.108	-0.13
871.4	-0.14
871.691	-0.15
871.982	-0.14
872.273	-0.16
872.564	-0.16
872.855	-0.15
873.146	-0.16
873.437	-0.15
873.728	-0.16
874.019	-0.15
874.309	-0.16
874.6	-0.16
874.89	-0.16
875.181	-0.16
875.471	-0.15
875.762	-0.15
876.052	-0.15
876.342	-0.14
876.632	-0.15
876.922	-0.17
877.213	-0.16
877.503	-0.18
877.792	-0.18
878.082	-0.18
878.372	-0.15
878.662	-0.2
878.952	-0.16
879.241	-0.17
879.531	-0.16
879.82	-0.17
880.11	-0.16
880.399	-0.17
880.688	-0.16
880.978	-0.16
881.267	-0.16
