Data from 12-12-AQDScycling_Absorbance__935__00935.txt Node

Date: Tue Dec 12 14:50:29 EST 2023
User: kyuminlee
Spectrometer: FLMS00943
Trigger mode: 0
Integration Time (sec): 1.000000E-1
Scans to average: 1
Electric dark correction enabled: true
Nonlinearity correction enabled: false
Boxcar width: 0
XAxis mode: Wavelengths
Number of Pixels in Spectrum: 2048
>>>>>Begin Spectral Data<<<<<
179.651	0.02
180.037	0.02
180.424	0.02
180.81	-0.21
181.197	0.37
181.583	-0.02
181.97	-0.31
182.356	-0
182.743	-0.69
183.129	0.38
183.515	-0
183.901	-2.26
184.288	0.15
184.674	1.81
185.06	-0.9
185.446	0.28
185.832	-0
186.218	0.24
186.604	-0
186.99	-0
187.376	-0
187.762	-0.17
188.148	0.29
188.534	-0.25
188.92	-0.02
189.305	0.15
189.691	0.14
190.077	0.16
190.463	0.19
190.848	0.14
191.234	0.17
191.619	0.08
192.005	0.04
192.391	0.09
192.776	0.12
193.161	0.11
193.547	0.08
193.932	0.19
194.318	-0.03
194.703	0.17
195.088	0.3
195.473	0.13
195.859	0.09
196.244	0.11
196.629	0.09
197.014	0.11
197.399	0.12
197.784	0.09
198.169	0.08
198.554	0.1
198.939	-0
199.324	0.1
199.709	0.06
200.094	0.09
200.478	0.18
200.863	0.16
201.248	0.07
201.633	0.1
202.017	0.03
202.402	0.17
202.787	0.02
203.171	-0.03
203.556	0.25
203.94	0.18
204.325	0.14
204.709	0.17
205.093	0.06
205.478	0.11
205.862	0.04
206.246	0.2
206.631	0.15
207.015	0.1
207.399	0.16
207.783	0.17
208.167	0.1
208.551	0.26
208.935	0.13
209.319	0.16
209.703	0.11
210.087	0.11
210.471	-0.01
210.855	0.29
211.239	0.16
211.623	0.15
212.007	0.24
212.39	0.33
212.774	0.19
213.158	0.04
213.541	0.35
213.925	0.16
214.309	0.27
214.692	0.34
215.076	0.38
215.459	0.22
215.842	0.14
216.226	0.25
216.609	0.3
216.993	0.2
217.376	0.37
217.759	0.21
218.142	0.22
218.525	0.32
218.909	0.22
219.292	0.28
219.675	0.44
220.058	0.46
220.441	0.51
220.824	0.42
221.207	0.7
221.59	0.44
221.973	0.5
222.355	0.68
222.738	0.76
223.121	0.58
223.504	0.59
223.886	0.68
224.269	0.65
224.652	0.61
225.034	0.77
225.417	0.66
225.799	0.8
226.182	0.95
226.564	0.72
226.947	0.83
227.329	0.76
227.711	0.91
228.094	0.9
228.476	0.77
228.858	0.83
229.24	0.79
229.623	0.87
230.005	0.75
230.387	0.82
230.769	0.8
231.151	0.96
231.533	0.9
231.915	1
232.297	0.89
232.679	0.99
233.061	1.09
233.442	0.9
233.824	1.02
234.206	1.02
234.588	1.09
234.969	0.98
235.351	1.12
235.733	1.03
236.114	1.13
236.496	1.05
236.877	1.06
237.259	1.02
237.64	1.05
238.022	1.04
238.403	0.91
238.784	1.05
239.165	0.98
239.547	0.95
239.928	1.16
240.309	1.14
240.69	0.91
241.071	1.02
241.452	1.13
241.834	1.09
242.215	1.17
242.595	1.08
242.976	1.15
243.357	0.99
243.738	1.07
244.119	1.2
244.5	1.1
244.881	1.24
245.261	1.18
245.642	1.09
246.023	1.03
246.403	1.07
246.784	1.18
247.164	1.24
247.545	1.16
247.925	1.21
248.306	1.22
248.686	1.38
249.067	1.28
249.447	1.38
249.827	1.51
250.207	1.42
250.588	1.28
250.968	1.44
251.348	1.32
251.728	1.5
252.108	1.34
252.488	1.31
252.868	1.32
253.248	1.24
253.628	1.41
254.008	1.35
254.388	1.35
254.768	1.27
255.147	1.39
255.527	1.45
255.907	1.36
256.287	1.29
256.666	1.43
257.046	1.4
257.425	1.44
257.805	1.32
258.184	1.36
258.564	1.41
258.943	1.3
259.323	1.51
259.702	1.41
260.081	1.46
260.461	1.47
260.84	1.4
261.219	1.62
261.598	1.48
261.977	1.37
262.356	1.46
262.736	1.44
263.115	1.62
263.494	1.44
263.873	1.35
264.251	1.64
264.63	1.48
265.009	1.43
265.388	1.33
265.767	1.4
266.145	1.35
266.524	1.45
266.903	1.33
267.281	1.26
267.66	1.44
268.039	1.38
268.417	1.51
268.796	1.33
269.174	1.53
269.552	1.26
269.931	1.45
270.309	1.39
270.687	1.54
271.066	1.62
271.444	1.42
271.822	1.44
272.2	1.43
272.578	1.38
272.956	1.44
273.334	1.36
273.712	1.49
274.09	1.37
274.468	1.41
274.846	1.37
275.224	1.39
275.602	1.36
275.98	1.54
276.357	1.41
276.735	1.43
277.113	1.35
277.49	1.33
277.868	1.28
278.246	1.44
278.623	1.3
279.001	1.23
279.378	1.36
279.756	1.42
280.133	1.62
280.51	1.36
280.888	1.52
281.265	1.32
281.642	1.45
282.019	1.45
282.396	1.55
282.773	1.49
283.151	1.43
283.528	1.47
283.905	1.48
284.282	1.48
284.659	1.47
285.035	1.25
285.412	1.28
285.789	1.64
286.166	1.51
286.543	1.42
286.919	1.36
287.296	1.46
287.673	1.89
288.049	1.46
288.426	1.6
288.802	1.48
289.179	1.46
289.555	1.78
289.932	1.46
290.308	1.34
290.684	1.4
291.061	1.34
291.437	1.42
291.813	1.51
292.189	1.25
292.565	1.34
292.942	1.3
293.318	1.31
293.694	1.52
294.07	1.28
294.446	1.36
294.822	1.47
295.197	1.4
295.573	1.49
295.949	1.45
296.325	1.45
296.701	1.5
297.076	1.5
297.452	1.6
297.828	1.47
298.203	1.61
298.579	1.37
298.954	1.41
299.33	1.5
299.705	1.48
300.081	1.54
300.456	1.61
300.831	1.42
301.206	1.47
301.582	1.53
301.957	1.56
302.332	1.71
302.707	1.39
303.082	1.37
303.457	1.4
303.832	1.56
304.207	1.38
304.582	1.52
304.957	1.5
305.332	1.49
305.707	1.48
306.082	1.51
306.456	1.7
306.831	1.41
307.206	1.48
307.58	1.55
307.955	1.45
308.33	1.47
308.704	1.48
309.079	1.41
309.453	1.63
309.828	1.52
310.202	1.46
310.576	1.55
310.951	1.55
311.325	1.52
311.699	1.41
312.073	1.36
312.447	1.46
312.821	1.41
313.196	1.59
313.57	1.45
313.944	1.37
314.317	1.31
314.691	1.45
315.065	1.47
315.439	1.59
315.813	1.5
316.187	1.39
316.56	1.59
316.934	1.55
317.308	1.48
317.681	1.57
318.055	1.57
318.428	1.57
318.802	1.54
319.175	1.42
319.549	1.45
319.922	1.37
320.295	1.51
320.669	1.74
321.042	1.5
321.415	1.74
321.788	1.56
322.162	1.6
322.535	1.71
322.908	1.58
323.281	1.38
323.654	1.73
324.027	1.39
324.4	1.61
324.773	1.66
325.145	1.7
325.518	1.48
325.891	1.42
326.264	1.5
326.636	1.46
327.009	1.42
327.382	1.56
327.754	1.44
328.127	1.49
328.499	1.51
328.872	1.41
329.244	1.5
329.616	1.4
329.989	1.44
330.361	1.52
330.733	1.38
331.106	1.45
331.478	1.67
331.85	1.46
332.222	1.43
332.594	1.49
332.966	1.4
333.338	1.62
333.71	1.53
334.082	1.75
334.454	1.4
334.826	1.59
335.197	1.47
335.569	1.52
335.941	1.39
336.312	1.48
336.684	1.54
337.056	1.4
337.427	1.53
337.799	1.51
338.17	1.56
338.542	1.44
338.913	1.59
339.284	1.59
339.656	1.51
340.027	1.56
340.398	1.45
340.769	1.43
341.141	1.67
341.512	1.64
341.883	1.53
342.254	1.48
342.625	1.54
342.996	1.53
343.367	1.54
343.738	1.47
344.108	1.45
344.479	1.57
344.85	1.46
345.221	1.48
345.591	1.34
345.962	1.59
346.333	1.39
346.703	1.39
347.074	1.3
347.444	1.27
347.815	1.4
348.185	1.4
348.556	1.33
348.926	1.34
349.296	1.28
349.666	1.41
350.037	1.21
350.407	1.23
350.777	1.36
351.147	1.46
351.517	1.37
351.887	1.26
352.257	1.38
352.627	1.23
352.997	1.33
353.367	1.29
353.737	1.4
354.106	1.34
354.476	1.25
354.846	1.36
355.216	1.4
355.585	1.37
355.955	1.34
356.324	1.3
356.694	1.35
357.063	1.28
357.433	1.21
357.802	1.35
358.171	1.26
358.541	1.25
358.91	1.25
359.279	1.29
359.648	1.18
360.017	1.24
360.387	1.16
360.756	1.1
361.125	1.16
361.494	1.15
361.863	1.08
362.231	1.09
362.6	1.05
362.969	1.11
363.338	1.03
363.707	1.08
364.075	1.06
364.444	0.99
364.813	1
365.181	1
365.55	1
365.918	0.99
366.287	0.98
366.655	0.99
367.024	1
367.392	0.93
367.76	0.93
368.128	0.9
368.497	0.92
368.865	0.91
369.233	0.9
369.601	0.87
369.969	0.87
370.337	0.86
370.705	0.85
371.073	0.82
371.441	0.83
371.809	0.82
372.177	0.83
372.544	0.82
372.912	0.83
373.28	0.84
373.647	0.83
374.015	0.84
374.383	0.82
374.75	0.86
375.118	0.78
375.485	0.79
375.853	0.81
376.22	0.8
376.587	0.8
376.955	0.82
377.322	0.79
377.689	0.79
378.056	0.76
378.423	0.76
378.79	0.8
379.157	0.77
379.524	0.79
379.891	0.78
380.258	0.79
380.625	0.78
380.992	0.76
381.359	0.78
381.726	0.83
382.092	0.79
382.459	0.76
382.826	0.78
383.192	0.81
383.559	0.79
383.925	0.79
384.292	0.78
384.658	0.78
385.025	0.81
385.391	0.81
385.757	0.84
386.123	0.8
386.49	0.8
386.856	0.8
387.222	0.81
387.588	0.82
387.954	0.83
388.32	0.83
388.686	0.84
389.052	0.81
389.418	0.82
389.784	0.83
390.15	0.83
390.515	0.79
390.881	0.86
391.247	0.8
391.613	0.86
391.978	0.86
392.344	0.83
392.709	0.84
393.075	0.81
393.44	0.85
393.806	0.85
394.171	0.81
394.536	0.82
394.902	0.82
395.267	0.82
395.632	0.77
395.997	0.81
396.362	0.83
396.727	0.8
397.092	0.81
397.457	0.8
397.822	0.8
398.187	0.81
398.552	0.77
398.917	0.76
399.282	0.77
399.646	0.75
400.011	0.77
400.376	0.73
400.74	0.74
401.105	0.77
401.47	0.74
401.834	0.75
402.199	0.73
402.563	0.72
402.927	0.72
403.292	0.7
403.656	0.72
404.02	0.7
404.384	0.71
404.749	0.7
405.113	0.71
405.477	0.7
405.841	0.67
406.205	0.66
406.569	0.65
406.933	0.66
407.296	0.64
407.66	0.67
408.024	0.65
408.388	0.67
408.752	0.64
409.115	0.65
409.479	0.64
409.842	0.62
410.206	0.62
410.569	0.62
410.933	0.64
411.296	0.61
411.66	0.64
412.023	0.59
412.386	0.6
412.749	0.61
413.113	0.61
413.476	0.57
413.839	0.59
414.202	0.58
414.565	0.57
414.928	0.59
415.291	0.56
415.654	0.56
416.017	0.57
416.38	0.56
416.742	0.54
417.105	0.54
417.468	0.55
417.83	0.56
418.193	0.57
418.556	0.57
418.918	0.55
419.281	0.53
419.643	0.55
420.005	0.52
420.368	0.55
420.73	0.54
421.092	0.54
421.455	0.51
421.817	0.53
422.179	0.51
422.541	0.54
422.903	0.51
423.265	0.53
423.627	0.52
423.989	0.5
424.351	0.51
424.713	0.5
425.075	0.5
425.436	0.49
425.798	0.51
426.16	0.52
426.521	0.51
426.883	0.51
427.245	0.5
427.606	0.48
427.967	0.48
428.329	0.5
428.69	0.5
429.052	0.49
429.413	0.5
429.774	0.5
430.135	0.48
430.497	0.48
430.858	0.47
431.219	0.47
431.58	0.47
431.941	0.47
432.302	0.49
432.663	0.48
433.024	0.48
433.384	0.49
433.745	0.45
434.106	0.47
434.467	0.47
434.827	0.45
435.188	0.47
435.548	0.48
435.909	0.45
436.269	0.47
436.63	0.45
436.99	0.45
437.351	0.46
437.711	0.45
438.071	0.44
438.431	0.46
438.792	0.45
439.152	0.43
439.512	0.43
439.872	0.43
440.232	0.44
440.592	0.45
440.952	0.44
441.312	0.43
441.671	0.44
442.031	0.44
442.391	0.43
442.751	0.43
443.11	0.42
443.47	0.4
443.83	0.41
444.189	0.42
444.549	0.42
444.908	0.41
445.267	0.41
445.627	0.41
445.986	0.39
446.345	0.4
446.705	0.39
447.064	0.38
447.423	0.41
447.782	0.38
448.141	0.4
448.5	0.37
448.859	0.4
449.218	0.38
449.577	0.37
449.936	0.38
450.295	0.37
450.653	0.37
451.012	0.39
451.371	0.38
451.729	0.38
452.088	0.37
452.447	0.38
452.805	0.38
453.163	0.38
453.522	0.37
453.88	0.37
454.239	0.36
454.597	0.35
454.955	0.35
455.313	0.35
455.671	0.35
456.029	0.35
456.388	0.33
456.746	0.34
457.104	0.34
457.461	0.32
457.819	0.33
458.177	0.32
458.535	0.32
458.893	0.32
459.25	0.31
459.608	0.31
459.966	0.31
460.323	0.3
460.681	0.3
461.038	0.31
461.396	0.3
461.753	0.29
462.111	0.3
462.468	0.28
462.825	0.28
463.182	0.28
463.54	0.27
463.897	0.29
464.254	0.28
464.611	0.27
464.968	0.27
465.325	0.27
465.682	0.26
466.039	0.27
466.395	0.26
466.752	0.26
467.109	0.26
467.466	0.26
467.822	0.25
468.179	0.25
468.535	0.25
468.892	0.24
469.248	0.24
469.605	0.23
469.961	0.23
470.318	0.24
470.674	0.24
471.03	0.23
471.386	0.23
471.743	0.22
472.099	0.22
472.455	0.23
472.811	0.21
473.167	0.22
473.523	0.21
473.879	0.22
474.235	0.21
474.59	0.21
474.946	0.2
475.302	0.21
475.657	0.2
476.013	0.21
476.369	0.2
476.724	0.2
477.08	0.2
477.435	0.19
477.791	0.2
478.146	0.19
478.501	0.2
478.857	0.19
479.212	0.19
479.567	0.19
479.922	0.17
480.277	0.18
480.632	0.17
480.987	0.18
481.342	0.17
481.697	0.17
482.052	0.17
482.407	0.16
482.762	0.16
483.116	0.16
483.471	0.16
483.826	0.14
484.18	0.16
484.535	0.15
484.89	0.15
485.244	0.15
485.598	0.16
485.953	0.15
486.307	0.14
486.661	0.14
487.016	0.14
487.37	0.14
487.724	0.14
488.078	0.14
488.432	0.14
488.786	0.13
489.14	0.14
489.494	0.13
489.848	0.13
490.202	0.13
490.556	0.13
490.91	0.13
491.263	0.13
491.617	0.13
491.971	0.12
492.324	0.12
492.678	0.13
493.031	0.13
493.385	0.13
493.738	0.12
494.091	0.13
494.445	0.12
494.798	0.12
495.151	0.12
495.504	0.12
495.857	0.12
496.21	0.13
496.564	0.12
496.916	0.12
497.269	0.11
497.622	0.12
497.975	0.12
498.328	0.11
498.681	0.12
499.033	0.11
499.386	0.11
499.739	0.11
500.091	0.11
500.444	0.1
500.796	0.1
501.149	0.1
501.501	0.1
501.854	0.11
502.206	0.1
502.558	0.11
502.91	0.11
503.263	0.11
503.615	0.11
503.967	0.11
504.319	0.11
504.671	0.1
505.023	0.1
505.375	0.1
505.726	0.1
506.078	0.1
506.43	0.1
506.782	0.1
507.133	0.1
507.485	0.1
507.837	0.11
508.188	0.11
508.54	0.11
508.891	0.11
509.243	0.1
509.594	0.1
509.945	0.11
510.296	0.1
510.648	0.1
510.999	0.1
511.35	0.1
511.701	0.1
512.052	0.1
512.403	0.1
512.754	0.1
513.105	0.1
513.456	0.09
513.807	0.09
514.157	0.1
514.508	0.1
514.859	0.1
515.209	0.1
515.56	0.11
515.91	0.1
516.261	0.11
516.611	0.09
516.962	0.1
517.312	0.1
517.662	0.1
518.013	0.1
518.363	0.1
518.713	0.1
519.063	0.1
519.413	0.11
519.763	0.1
520.113	0.11
520.463	0.1
520.813	0.11
521.163	0.11
521.512	0.1
521.862	0.11
522.212	0.11
522.562	0.1
522.911	0.1
523.261	0.1
523.61	0.1
523.96	0.1
524.309	0.11
524.658	0.11
525.008	0.1
525.357	0.11
525.706	0.11
526.056	0.1
526.405	0.1
526.754	0.1
527.103	0.1
527.452	0.1
527.801	0.1
528.15	0.11
528.499	0.1
528.847	0.11
529.196	0.11
529.545	0.11
529.893	0.11
530.242	0.11
530.591	0.12
530.939	0.12
531.288	0.11
531.636	0.11
531.985	0.11
532.333	0.11
532.681	0.11
533.029	0.11
533.378	0.11
533.726	0.12
534.074	0.12
534.422	0.11
534.77	0.12
535.118	0.11
535.466	0.11
535.814	0.11
536.162	0.11
536.509	0.11
536.857	0.11
537.205	0.12
537.552	0.11
537.9	0.11
538.248	0.11
538.595	0.12
538.943	0.11
539.29	0.11
539.637	0.11
539.985	0.11
540.332	0.11
540.679	0.11
541.026	0.1
541.373	0.12
541.721	0.1
542.068	0.11
542.415	0.11
542.762	0.1
543.108	0.1
543.455	0.1
543.802	0.1
544.149	0.11
544.496	0.11
544.842	0.11
545.189	0.1
545.535	0.09
545.882	0.1
546.228	0.1
546.575	0.1
546.921	0.1
547.267	0.1
547.614	0.1
547.96	0.1
548.306	0.09
548.652	0.09
548.998	0.1
549.344	0.1
549.69	0.1
550.036	0.1
550.382	0.1
550.728	0.1
551.074	0.11
551.42	0.1
551.765	0.11
552.111	0.11
552.457	0.12
552.802	0.1
553.148	0.11
553.493	0.11
553.839	0.11
554.184	0.11
554.529	0.1
554.875	0.11
555.22	0.11
555.565	0.11
555.91	0.11
556.255	0.12
556.6	0.12
556.945	0.11
557.29	0.11
557.635	0.11
557.98	0.11
558.325	0.11
558.67	0.11
559.014	0.11
559.359	0.11
559.704	0.1
560.048	0.1
560.393	0.11
560.737	0.1
561.082	0.1
561.426	0.1
561.77	0.1
562.115	0.1
562.459	0.1
562.803	0.1
563.147	0.1
563.491	0.11
563.835	0.11
564.179	0.1
564.523	0.11
564.867	0.11
565.211	0.1
565.555	0.1
565.899	0.11
566.242	0.11
566.586	0.1
566.93	0.11
567.273	0.12
567.617	0.11
567.96	0.12
568.304	0.11
568.647	0.11
568.99	0.12
569.334	0.12
569.677	0.11
570.02	0.12
570.363	0.12
570.706	0.11
571.049	0.11
571.392	0.12
571.735	0.11
572.078	0.11
572.421	0.12
572.764	0.12
573.106	0.11
573.449	0.11
573.792	0.11
574.134	0.11
574.477	0.11
574.819	0.11
575.162	0.11
575.504	0.1
575.847	0.11
576.189	0.11
576.531	0.1
576.873	0.11
577.215	0.11
577.558	0.11
577.9	0.11
578.242	0.11
578.584	0.11
578.926	0.11
579.267	0.11
579.609	0.11
579.951	0.1
580.293	0.11
580.634	0.11
580.976	0.11
581.318	0.11
581.659	0.1
582.001	0.11
582.342	0.11
582.683	0.12
583.025	0.11
583.366	0.1
583.707	0.11
584.049	0.11
584.39	0.11
584.731	0.11
585.072	0.11
585.413	0.11
585.754	0.11
586.095	0.11
586.435	0.11
586.776	0.11
587.117	0.11
587.458	0.1
587.798	0.11
588.139	0.11
588.48	0.11
588.82	0.1
589.161	0.11
589.501	0.1
589.841	0.11
590.182	0.1
590.522	0.1
590.862	0.11
591.202	0.1
591.542	0.1
591.882	0.1
592.222	0.11
592.562	0.1
592.902	0.1
593.242	0.1
593.582	0.11
593.922	0.11
594.261	0.1
594.601	0.1
594.941	0.1
595.28	0.11
595.62	0.1
595.959	0.1
596.299	0.11
596.638	0.1
596.977	0.11
597.317	0.11
597.656	0.11
597.995	0.11
598.334	0.11
598.673	0.11
599.012	0.11
599.351	0.11
599.69	0.11
600.029	0.12
600.368	0.12
600.707	0.12
601.046	0.12
601.384	0.11
601.723	0.11
602.061	0.11
602.4	0.12
602.738	0.11
603.077	0.11
603.415	0.11
603.754	0.1
604.092	0.11
604.43	0.11
604.768	0.11
605.107	0.11
605.445	0.11
605.783	0.1
606.121	0.1
606.459	0.11
606.796	0.11
607.134	0.1
607.472	0.1
607.81	0.11
608.148	0.1
608.485	0.11
608.823	0.11
609.16	0.1
609.498	0.11
609.835	0.11
610.173	0.11
610.51	0.11
610.847	0.1
611.185	0.11
611.522	0.11
611.859	0.11
612.196	0.11
612.533	0.11
612.87	0.12
613.207	0.11
613.544	0.11
613.881	0.12
614.217	0.12
614.554	0.11
614.891	0.12
615.228	0.11
615.564	0.11
615.901	0.12
616.237	0.12
616.574	0.11
616.91	0.12
617.246	0.12
617.583	0.12
617.919	0.12
618.255	0.12
618.591	0.11
618.927	0.12
619.263	0.13
619.599	0.12
619.935	0.12
620.271	0.12
620.607	0.12
620.943	0.12
621.279	0.12
621.614	0.12
621.95	0.12
622.286	0.11
622.621	0.11
622.957	0.11
623.292	0.11
623.627	0.11
623.963	0.11
624.298	0.11
624.633	0.11
624.968	0.1
625.304	0.11
625.639	0.11
625.974	0.11
626.309	0.1
626.644	0.11
626.979	0.11
627.313	0.11
627.648	0.11
627.983	0.11
628.318	0.11
628.652	0.1
628.987	0.11
629.321	0.1
629.656	0.1
629.99	0.1
630.325	0.1
630.659	0.1
630.993	0.1
631.327	0.11
631.662	0.09
631.996	0.09
632.33	0.1
632.664	0.1
632.998	0.09
633.332	0.09
633.666	0.09
633.999	0.09
634.333	0.09
634.667	0.09
635.001	0.09
635.334	0.09
635.668	0.09
636.001	0.09
636.335	0.09
636.668	0.09
637.001	0.08
637.335	0.09
637.668	0.09
638.001	0.09
638.334	0.09
638.668	0.09
639.001	0.09
639.334	0.08
639.667	0.09
639.999	0.08
640.332	0.1
640.665	0.09
640.998	0.09
641.331	0.09
641.663	0.09
641.996	0.09
642.328	0.09
642.661	0.1
642.993	0.09
643.326	0.1
643.658	0.1
643.99	0.09
644.323	0.1
644.655	0.1
644.987	0.1
645.319	0.1
645.651	0.11
645.983	0.1
646.315	0.09
646.647	0.1
646.979	0.11
647.31	0.11
647.642	0.11
647.974	0.1
648.305	0.11
648.637	0.11
648.968	0.11
649.3	0.1
649.631	0.1
649.963	0.09
650.294	0.1
650.625	0.1
650.957	0.11
651.288	0.09
651.619	0.1
651.95	0.1
652.281	0.1
652.612	0.1
652.943	0.1
653.274	0.1
653.604	0.1
653.935	0.1
654.266	0.1
654.596	0.1
654.927	0.1
655.258	0.1
655.588	0.11
655.918	0.1
656.249	0.08
656.579	0.09
656.909	0.09
657.24	0.09
657.57	0.1
657.9	0.1
658.23	0.1
658.56	0.1
658.89	0.1
659.22	0.1
659.55	0.09
659.88	0.1
660.209	0.1
660.539	0.1
660.869	0.1
661.198	0.1
661.528	0.09
661.857	0.1
662.187	0.1
662.516	0.1
662.846	0.1
663.175	0.1
663.504	0.1
663.833	0.09
664.163	0.1
664.492	0.09
664.821	0.09
665.15	0.09
665.479	0.09
665.807	0.09
666.136	0.09
666.465	0.09
666.794	0.09
667.122	0.09
667.451	0.1
667.78	0.09
668.108	0.09
668.437	0.1
668.765	0.1
669.093	0.09
669.422	0.1
669.75	0.1
670.078	0.1
670.406	0.1
670.734	0.1
671.062	0.1
671.39	0.09
671.718	0.1
672.046	0.1
672.374	0.1
672.702	0.1
673.029	0.09
673.357	0.1
673.685	0.1
674.012	0.1
674.34	0.1
674.667	0.1
674.995	0.1
675.322	0.1
675.649	0.09
675.977	0.1
676.304	0.1
676.631	0.1
676.958	0.09
677.285	0.09
677.612	0.08
677.939	0.09
678.266	0.1
678.593	0.09
678.92	0.1
679.246	0.09
679.573	0.09
679.9	0.09
680.226	0.09
680.553	0.09
680.879	0.09
681.206	0.09
681.532	0.09
681.858	0.09
682.184	0.09
682.511	0.09
682.837	0.09
683.163	0.1
683.489	0.1
683.815	0.09
684.141	0.09
684.467	0.09
684.793	0.09
685.118	0.1
685.444	0.09
685.77	0.09
686.095	0.1
686.421	0.09
686.746	0.09
687.072	0.09
687.397	0.08
687.723	0.09
688.048	0.09
688.373	0.08
688.698	0.09
689.023	0.08
689.349	0.09
689.674	0.09
689.999	0.08
690.323	0.08
690.648	0.08
690.973	0.08
691.298	0.08
691.623	0.08
691.947	0.08
692.272	0.08
692.596	0.08
692.921	0.08
693.245	0.08
693.57	0.08
693.894	0.09
694.218	0.08
694.543	0.08
694.867	0.08
695.191	0.08
695.515	0.09
695.839	0.08
696.163	0.08
696.487	0.09
696.811	0.09
697.135	0.09
697.458	0.08
697.782	0.09
698.106	0.08
698.429	0.09
698.753	0.08
699.076	0.08
699.4	0.09
699.723	0.09
700.046	0.08
700.37	0.09
700.693	0.09
701.016	0.08
701.339	0.09
701.662	0.09
701.985	0.09
702.308	0.08
702.631	0.09
702.954	0.09
703.277	0.08
703.599	0.08
703.922	0.07
704.245	0.08
704.567	0.07
704.89	0.07
705.212	0.08
705.535	0.07
705.857	0.07
706.179	0.07
706.502	0.07
706.824	0.06
707.146	0.07
707.468	0.08
707.79	0.07
708.112	0.07
708.434	0.07
708.756	0.07
709.078	0.08
709.399	0.07
709.721	0.07
710.043	0.07
710.364	0.07
710.686	0.07
711.007	0.07
711.329	0.08
711.65	0.07
711.972	0.07
712.293	0.09
712.614	0.08
712.935	0.08
713.256	0.08
713.577	0.09
713.898	0.08
714.219	0.08
714.54	0.08
714.861	0.07
715.182	0.08
715.503	0.08
715.823	0.08
716.144	0.07
716.464	0.07
716.785	0.07
717.105	0.07
717.426	0.08
717.746	0.07
718.066	0.07
718.387	0.07
718.707	0.07
719.027	0.08
719.347	0.06
719.667	0.07
719.987	0.06
720.307	0.07
720.627	0.07
720.947	0.06
721.266	0.06
721.586	0.06
721.906	0.06
722.225	0.06
722.545	0.06
722.864	0.07
723.184	0.07
723.503	0.06
723.823	0.07
724.142	0.06
724.461	0.06
724.78	0.07
725.099	0.06
725.418	0.07
725.737	0.07
726.056	0.07
726.375	0.07
726.694	0.06
727.013	0.08
727.331	0.06
727.65	0.07
727.969	0.07
728.287	0.06
728.606	0.06
728.924	0.06
729.242	0.06
729.561	0.06
729.879	0.06
730.197	0.07
730.515	0.06
730.834	0.07
731.152	0.06
731.47	0.07
731.788	0.06
732.105	0.06
732.423	0.07
732.741	0.06
733.059	0.06
733.376	0.07
733.694	0.07
734.012	0.06
734.329	0.07
734.647	0.07
734.964	0.07
735.281	0.07
735.599	0.08
735.916	0.08
736.233	0.06
736.55	0.07
736.867	0.08
737.184	0.08
737.501	0.07
737.818	0.08
738.135	0.08
738.452	0.07
738.768	0.07
739.085	0.07
739.402	0.06
739.718	0.07
740.035	0.07
740.351	0.07
740.668	0.08
740.984	0.07
741.3	0.06
741.617	0.07
741.933	0.06
742.249	0.07
742.565	0.07
742.881	0.07
743.197	0.07
743.513	0.06
743.829	0.06
744.144	0.06
744.46	0.06
744.776	0.07
745.091	0.06
745.407	0.06
745.722	0.06
746.038	0.06
746.353	0.05
746.669	0.06
746.984	0.05
747.299	0.06
747.614	0.06
747.93	0.06
748.245	0.06
748.56	0.06
748.875	0.05
749.189	0.05
749.504	0.06
749.819	0.06
750.134	0.06
750.448	0.06
750.763	0.06
751.078	0.05
751.392	0.06
751.707	0.06
752.021	0.06
752.335	0.07
752.65	0.06
752.964	0.06
753.278	0.06
753.592	0.05
753.906	0.06
754.22	0.06
754.534	0.06
754.848	0.06
755.162	0.06
755.476	0.06
755.789	0.06
756.103	0.06
756.417	0.06
756.73	0.06
757.044	0.06
757.357	0.06
757.671	0.06
757.984	0.05
758.297	0.06
758.61	0.06
758.924	0.06
759.237	0.05
759.55	0.06
759.863	0.05
760.176	0.06
760.488	0.05
760.801	0.05
761.114	0.05
761.427	0.05
761.739	0.06
762.052	0.04
762.365	0.05
762.677	0.06
762.99	0.05
763.302	0.05
763.614	0.05
763.926	0.06
764.239	0.06
764.551	0.05
764.863	0.06
765.175	0.06
765.487	0.06
765.799	0.05
766.111	0.05
766.423	0.06
766.734	0.05
767.046	0.05
767.358	0.06
767.669	0.05
767.981	0.06
768.292	0.05
768.604	0.06
768.915	0.05
769.226	0.05
769.537	0.04
769.849	0.05
770.16	0.05
770.471	0.04
770.782	0.04
771.093	0.05
771.404	0.04
771.715	0.04
772.025	0.04
772.336	0.05
772.647	0.04
772.957	0.05
773.268	0.05
773.578	0.04
773.889	0.05
774.199	0.06
774.51	0.06
774.82	0.05
775.13	0.05
775.44	0.06
775.75	0.06
776.06	0.06
776.37	0.05
776.68	0.06
776.99	0.06
777.3	0.06
777.61	0.07
777.92	0.06
778.229	0.05
778.539	0.06
778.848	0.05
779.158	0.06
779.467	0.06
779.777	0.06
780.086	0.06
780.395	0.06
780.704	0.05
781.013	0.05
781.323	0.06
781.632	0.06
781.941	0.06
782.249	0.06
782.558	0.05
782.867	0.06
783.176	0.05
783.485	0.05
783.793	0.05
784.102	0.06
784.41	0.05
784.719	0.05
785.027	0.05
785.335	0.06
785.644	0.05
785.952	0.05
786.26	0.06
786.568	0.05
786.876	0.04
787.184	0.07
787.492	0.06
787.8	0.06
788.108	0.05
788.416	0.05
788.723	0.05
789.031	0.05
789.338	0.05
789.646	0.05
789.953	0.05
790.261	0.06
790.568	0.06
790.876	0.06
791.183	0.06
791.49	0.05
791.797	0.05
792.104	0.05
792.411	0.06
792.718	0.05
793.025	0.06
793.332	0.05
793.639	0.05
793.945	0.06
794.252	0.06
794.559	0.05
794.865	0.06
795.172	0.05
795.478	0.05
795.784	0.05
796.091	0.05
796.397	0.06
796.703	0.05
797.009	0.07
797.315	0.05
797.622	0.06
797.927	0.06
798.233	0.05
798.539	0.07
798.845	0.06
799.151	0.06
799.456	0.07
799.762	0.05
800.068	0.06
800.373	0.07
800.679	0.05
800.984	0.06
801.289	0.06
801.595	0.06
801.9	0.05
802.205	0.05
802.51	0.06
802.815	0.05
803.12	0.06
803.425	0.05
803.73	0.06
804.035	0.06
804.339	0.05
804.644	0.05
804.949	0.06
805.253	0.05
805.558	0.05
805.862	0.05
806.167	0.05
806.471	0.05
806.775	0.05
807.08	0.05
807.384	0.06
807.688	0.05
807.992	0.06
808.296	0.06
808.6	0.06
808.904	0.06
809.207	0.05
809.511	0.07
809.815	0.07
810.119	0.06
810.422	0.06
810.726	0.07
811.029	0.06
811.332	0.07
811.636	0.07
811.939	0.06
812.242	0.06
812.546	0.07
812.849	0.06
813.152	0.06
813.455	0.07
813.758	0.06
814.06	0.06
814.363	0.05
814.666	0.07
814.969	0.06
815.271	0.06
815.574	0.05
815.877	0.05
816.179	0.05
816.481	0.05
816.784	0.05
817.086	0.05
817.388	0.05
817.69	0.04
817.993	0.04
818.295	0.05
818.597	0.05
818.899	0.04
819.2	0.04
819.502	0.04
819.804	0.05
820.106	0.04
820.407	0.04
820.709	0.04
821.01	0.04
821.312	0.05
821.613	0.04
821.915	0.03
822.216	0.03
822.517	0.03
822.818	0.04
823.119	0.04
823.42	0.05
823.721	0.03
824.022	0.04
824.323	0.04
824.624	0.04
824.925	0.05
825.226	0.05
825.526	0.04
825.827	0.04
826.127	0.04
826.428	0.05
826.728	0.04
827.028	0.04
827.329	0.04
827.629	0.02
827.929	0.04
828.229	0.04
828.529	0.04
828.829	0.04
829.129	0.04
829.429	0.03
829.729	0.03
830.029	0.03
830.328	0.03
830.628	0.03
830.927	0.02
831.227	0.03
831.526	0.03
831.826	0.03
832.125	0.03
832.424	0.03
832.724	0.03
833.023	0.02
833.322	0.03
833.621	0.03
833.92	0.02
834.219	0.02
834.518	0.02
834.816	0.01
835.115	0.02
835.414	0.02
835.712	0.01
836.011	0.02
836.309	0.02
836.608	0.01
836.906	0.01
837.205	0.01
837.503	0.01
837.801	0.01
838.099	-0
838.397	-0.01
838.695	-0.01
838.993	-0
839.291	-0.01
839.589	-0.01
839.887	-0.01
840.184	-0.02
840.482	-0.01
840.78	-0
841.077	-0.01
841.375	-0.01
841.672	-0.01
841.969	-0.01
842.267	-0.01
842.564	-0.02
842.861	-0.01
843.158	-0.01
843.455	-0.02
843.752	-0.02
844.049	-0.02
844.346	-0.02
844.643	-0.03
844.94	-0.02
845.236	-0.01
845.533	-0.01
845.83	-0.02
846.126	-0.02
846.423	-0.02
846.719	-0.04
847.015	-0.02
847.312	-0.03
847.608	-0.03
847.904	-0.04
848.2	-0.04
848.496	-0.04
848.792	-0.03
849.088	-0.03
849.384	-0.04
849.68	-0.05
849.975	-0.04
850.271	-0.05
850.567	-0.05
850.862	-0.06
851.158	-0.05
851.453	-0.05
851.748	-0.06
852.044	-0.06
852.339	-0.06
852.634	-0.07
852.929	-0.06
853.224	-0.07
853.519	-0.06
853.814	-0.06
854.109	-0.07
854.404	-0.06
854.699	-0.07
854.994	-0.06
855.288	-0.06
855.583	-0.06
855.877	-0.07
856.172	-0.06
856.466	-0.06
856.76	-0.06
857.055	-0.06
857.349	-0.08
857.643	-0.07
857.937	-0.07
858.231	-0.07
858.525	-0.08
858.819	-0.08
859.113	-0.09
859.407	-0.09
859.701	-0.1
859.994	-0.09
860.288	-0.09
860.581	-0.09
860.875	-0.11
861.168	-0.1
861.462	-0.11
861.755	-0.09
862.048	-0.11
862.341	-0.11
862.634	-0.1
862.928	-0.1
863.221	-0.1
863.513	-0.12
863.806	-0.11
864.099	-0.11
864.392	-0.12
864.685	-0.11
864.977	-0.11
865.27	-0.12
865.562	-0.11
865.855	-0.11
866.147	-0.12
866.44	-0.12
866.732	-0.11
867.024	-0.12
867.316	-0.12
867.608	-0.12
867.9	-0.12
868.192	-0.13
868.484	-0.13
868.776	-0.12
869.068	-0.14
869.359	-0.13
869.651	-0.14
869.943	-0.14
870.234	-0.14
870.526	-0.15
870.817	-0.15
871.108	-0.14
871.4	-0.14
871.691	-0.15
871.982	-0.15
872.273	-0.16
872.564	-0.15
872.855	-0.15
873.146	-0.16
873.437	-0.15
873.728	-0.16
874.019	-0.16
874.309	-0.16
874.6	-0.15
874.89	-0.16
875.181	-0.16
875.471	-0.15
875.762	-0.16
876.052	-0.15
876.342	-0.15
876.632	-0.15
876.922	-0.18
877.213	-0.16
877.503	-0.17
877.792	-0.16
878.082	-0.18
878.372	-0.16
878.662	-0.18
878.952	-0.18
879.241	-0.17
879.531	-0.16
879.82	-0.17
880.11	-0.16
880.399	-0.16
880.688	-0.16
880.978	-0.16
881.267	-0.16
