Data from 12-12-AQDScycling_Absorbance__167__00167.txt Node

Date: Tue Dec 12 11:39:02 EST 2023
User: kyuminlee
Spectrometer: FLMS00943
Trigger mode: 0
Integration Time (sec): 1.000000E-1
Scans to average: 1
Electric dark correction enabled: true
Nonlinearity correction enabled: false
Boxcar width: 0
XAxis mode: Wavelengths
Number of Pixels in Spectrum: 2048
>>>>>Begin Spectral Data<<<<<
179.651	-0
180.037	-0
180.424	-0
180.81	-0.41
181.197	0.13
181.583	-0.26
181.97	-0.32
182.356	-0
182.743	-0
183.129	0.32
183.515	0.28
183.901	-0
184.288	0.68
184.674	-0
185.06	-0.17
185.446	-0
185.832	-0.98
186.218	-0
186.604	0.15
186.99	-0
187.376	-0
187.762	-0
188.148	-0
188.534	-0.32
188.92	0.17
189.305	0.13
189.691	0.2
190.077	0.17
190.463	0.16
190.848	0.23
191.234	0.11
191.619	0.15
192.005	0.03
192.391	0.14
192.776	0.27
193.161	0.09
193.547	0.18
193.932	0.09
194.318	0.02
194.703	0.19
195.088	0.19
195.473	0.12
195.859	0.24
196.244	0.2
196.629	0.15
197.014	0.12
197.399	0.04
197.784	0.34
198.169	0.28
198.554	0.3
198.939	0.26
199.324	0.26
199.709	0.15
200.094	0.05
200.478	0.16
200.863	0.12
201.248	0.21
201.633	0.28
202.017	0.14
202.402	0.23
202.787	0.16
203.171	0.29
203.556	0.25
203.94	0.47
204.325	0.26
204.709	0.16
205.093	0.19
205.478	0.19
205.862	0.36
206.246	0.12
206.631	0.18
207.015	0.15
207.399	0.14
207.783	0.27
208.167	0.25
208.551	0.21
208.935	0.29
209.319	0.14
209.703	0.29
210.087	0.29
210.471	0.07
210.855	0.12
211.239	0.15
211.623	0.39
212.007	0.47
212.39	0.45
212.774	0.21
213.158	0.14
213.541	0.31
213.925	0.41
214.309	0.38
214.692	0.36
215.076	0.4
215.459	0.14
215.842	0.13
216.226	0.27
216.609	0.34
216.993	0.54
217.376	0.49
217.759	0.25
218.142	0.31
218.525	0.61
218.909	0.42
219.292	0.46
219.675	0.41
220.058	0.53
220.441	0.57
220.824	0.48
221.207	0.6
221.59	0.44
221.973	0.66
222.355	0.53
222.738	0.69
223.121	0.57
223.504	0.66
223.886	0.57
224.269	0.68
224.652	0.69
225.034	0.98
225.417	0.72
225.799	0.73
226.182	0.97
226.564	0.91
226.947	0.88
227.329	0.84
227.711	0.95
228.094	0.88
228.476	0.99
228.858	0.83
229.24	0.93
229.623	0.89
230.005	0.8
230.387	0.97
230.769	0.91
231.151	1.03
231.533	1
231.915	1.02
232.297	0.99
232.679	1.06
233.061	1.02
233.442	1.15
233.824	1.02
234.206	1.22
234.588	1
234.969	1.12
235.351	0.92
235.733	1.08
236.114	1.17
236.496	1.09
236.877	1.16
237.259	0.99
237.64	1.03
238.022	0.99
238.403	1.12
238.784	1.03
239.165	1.08
239.547	1
239.928	1.13
240.309	1.08
240.69	0.94
241.071	1.2
241.452	1.04
241.834	1.07
242.215	1.15
242.595	1.17
242.976	1.14
243.357	1.17
243.738	1.03
244.119	1.34
244.5	1.06
244.881	1.2
245.261	1.23
245.642	1.27
246.023	1.19
246.403	1.15
246.784	1.26
247.164	1.46
247.545	1.27
247.925	1.43
248.306	1.25
248.686	1.41
249.067	1.36
249.447	1.34
249.827	1.74
250.207	1.36
250.588	1.38
250.968	1.51
251.348	1.43
251.728	1.56
252.108	1.38
252.488	1.43
252.868	1.42
253.248	1.43
253.628	1.45
254.008	1.55
254.388	1.35
254.768	1.3
255.147	1.54
255.527	1.53
255.907	1.27
256.287	1.36
256.666	1.49
257.046	1.5
257.425	1.66
257.805	1.32
258.184	1.26
258.564	1.43
258.943	1.44
259.323	1.54
259.702	1.57
260.081	1.45
260.461	1.56
260.84	1.45
261.219	1.68
261.598	1.47
261.977	1.49
262.356	1.56
262.736	1.61
263.115	1.48
263.494	1.42
263.873	1.54
264.251	1.48
264.63	1.49
265.009	1.47
265.388	1.53
265.767	1.34
266.145	1.38
266.524	1.32
266.903	1.46
267.281	1.35
267.66	1.64
268.039	1.41
268.417	1.41
268.796	1.44
269.174	1.48
269.552	1.29
269.931	1.58
270.309	1.45
270.687	1.66
271.066	1.79
271.444	1.47
271.822	1.44
272.2	1.52
272.578	1.49
272.956	1.42
273.334	1.49
273.712	1.42
274.09	1.61
274.468	1.33
274.846	1.26
275.224	1.49
275.602	1.42
275.98	1.7
276.357	1.43
276.735	1.47
277.113	1.41
277.49	1.46
277.868	1.28
278.246	1.5
278.623	1.38
279.001	1.34
279.378	1.3
279.756	1.51
280.133	1.53
280.51	1.45
280.888	1.45
281.265	1.34
281.642	1.61
282.019	1.71
282.396	1.55
282.773	1.63
283.151	1.49
283.528	1.47
283.905	1.44
284.282	1.52
284.659	1.64
285.035	1.45
285.412	1.36
285.789	1.52
286.166	1.48
286.543	1.39
286.919	1.73
287.296	1.45
287.673	1.66
288.049	1.46
288.426	1.43
288.802	1.44
289.179	1.59
289.555	1.88
289.932	1.59
290.308	1.37
290.684	1.39
291.061	1.41
291.437	1.52
291.813	1.34
292.189	1.31
292.565	1.31
292.942	1.4
293.318	1.31
293.694	1.4
294.07	1.32
294.446	1.35
294.822	1.61
295.197	1.48
295.573	1.55
295.949	1.52
296.325	1.6
296.701	1.59
297.076	1.68
297.452	1.58
297.828	1.44
298.203	1.63
298.579	1.43
298.954	1.44
299.33	1.52
299.705	1.4
300.081	1.51
300.456	1.48
300.831	1.39
301.206	1.34
301.582	1.41
301.957	1.38
302.332	1.5
302.707	1.48
303.082	1.36
303.457	1.34
303.832	1.39
304.207	1.36
304.582	1.3
304.957	1.39
305.332	1.39
305.707	1.46
306.082	1.43
306.456	1.41
306.831	1.32
307.206	1.28
307.58	1.29
307.955	1.35
308.33	1.26
308.704	1.32
309.079	1.29
309.453	1.33
309.828	1.23
310.202	1.24
310.576	1.26
310.951	1.27
311.325	1.3
311.699	1.2
312.073	1.18
312.447	1.22
312.821	1.23
313.196	1.34
313.57	1.16
313.944	1.24
314.317	1.15
314.691	1.31
315.065	1.26
315.439	1.23
315.813	1.24
316.187	1.26
316.56	1.32
316.934	1.28
317.308	1.28
317.681	1.3
318.055	1.24
318.428	1.23
318.802	1.29
319.175	1.26
319.549	1.29
319.922	1.13
320.295	1.25
320.669	1.33
321.042	1.28
321.415	1.37
321.788	1.26
322.162	1.25
322.535	1.37
322.908	1.27
323.281	1.23
323.654	1.37
324.027	1.2
324.4	1.3
324.773	1.24
325.145	1.26
325.518	1.22
325.891	1.23
326.264	1.35
326.636	1.22
327.009	1.26
327.382	1.27
327.754	1.32
328.127	1.25
328.499	1.32
328.872	1.29
329.244	1.31
329.616	1.27
329.989	1.3
330.361	1.25
330.733	1.29
331.106	1.26
331.478	1.38
331.85	1.25
332.222	1.27
332.594	1.34
332.966	1.34
333.338	1.42
333.71	1.33
334.082	1.36
334.454	1.32
334.826	1.4
335.197	1.34
335.569	1.37
335.941	1.27
336.312	1.28
336.684	1.33
337.056	1.32
337.427	1.37
337.799	1.43
338.17	1.37
338.542	1.33
338.913	1.4
339.284	1.42
339.656	1.4
340.027	1.39
340.398	1.39
340.769	1.38
341.141	1.4
341.512	1.3
341.883	1.44
342.254	1.4
342.625	1.45
342.996	1.33
343.367	1.36
343.738	1.37
344.108	1.3
344.479	1.43
344.85	1.36
345.221	1.46
345.591	1.29
345.962	1.32
346.333	1.44
346.703	1.2
347.074	1.3
347.444	1.24
347.815	1.3
348.185	1.33
348.556	1.28
348.926	1.33
349.296	1.29
349.666	1.23
350.037	1.19
350.407	1.21
350.777	1.3
351.147	1.29
351.517	1.32
351.887	1.27
352.257	1.33
352.627	1.38
352.997	1.3
353.367	1.4
353.737	1.5
354.106	1.41
354.476	1.29
354.846	1.5
355.216	1.5
355.585	1.43
355.955	1.42
356.324	1.36
356.694	1.38
357.063	1.42
357.433	1.41
357.802	1.42
358.171	1.43
358.541	1.34
358.91	1.52
359.279	1.47
359.648	1.39
360.017	1.42
360.387	1.46
360.756	1.36
361.125	1.43
361.494	1.54
361.863	1.41
362.231	1.41
362.6	1.41
362.969	1.5
363.338	1.41
363.707	1.5
364.075	1.71
364.444	1.36
364.813	1.39
365.181	1.51
365.55	1.47
365.918	1.57
366.287	1.55
366.655	1.64
367.024	1.5
367.392	1.49
367.76	1.38
368.128	1.53
368.497	1.46
368.865	1.39
369.233	1.5
369.601	1.5
369.969	1.46
370.337	1.45
370.705	1.49
371.073	1.47
371.441	1.59
371.809	1.38
372.177	1.56
372.544	1.48
372.912	1.46
373.28	1.44
373.647	1.5
374.015	1.62
374.383	1.6
374.75	1.74
375.118	1.54
375.485	1.55
375.853	1.56
376.22	1.37
376.587	1.55
376.955	1.57
377.322	1.61
377.689	1.54
378.056	1.47
378.423	1.49
378.79	1.45
379.157	1.57
379.524	1.54
379.891	1.47
380.258	1.57
380.625	1.54
380.992	1.48
381.359	1.63
381.726	1.7
382.092	1.47
382.459	1.69
382.826	1.51
383.192	1.63
383.559	1.64
383.925	1.79
384.292	1.53
384.658	1.73
385.025	1.52
385.391	1.68
385.757	1.78
386.123	1.59
386.49	1.54
386.856	1.6
387.222	1.72
387.588	1.56
387.954	1.74
388.32	1.75
388.686	1.6
389.052	1.56
389.418	1.63
389.784	1.57
390.15	1.61
390.515	1.39
390.881	1.57
391.247	1.51
391.613	1.69
391.978	1.51
392.344	1.6
392.709	1.63
393.075	1.65
393.44	1.6
393.806	1.56
394.171	1.53
394.536	1.57
394.902	1.53
395.267	1.51
395.632	1.52
395.997	1.46
396.362	1.49
396.727	1.64
397.092	1.56
397.457	1.65
397.822	1.57
398.187	1.61
398.552	1.64
398.917	1.64
399.282	1.61
399.646	1.54
400.011	1.65
400.376	1.53
400.74	1.49
401.105	1.54
401.47	1.65
401.834	1.61
402.199	1.7
402.563	1.62
402.927	1.51
403.292	1.56
403.656	1.68
404.02	1.51
404.384	1.7
404.749	1.46
405.113	1.54
405.477	1.75
405.841	1.53
406.205	1.54
406.569	1.52
406.933	1.45
407.296	1.47
407.66	1.53
408.024	1.52
408.388	1.57
408.752	1.49
409.115	1.59
409.479	1.43
409.842	1.42
410.206	1.41
410.569	1.37
410.933	1.5
411.296	1.46
411.66	1.59
412.023	1.33
412.386	1.61
412.749	1.44
413.113	1.58
413.476	1.46
413.839	1.44
414.202	1.44
414.565	1.37
414.928	1.43
415.291	1.34
415.654	1.41
416.017	1.5
416.38	1.42
416.742	1.36
417.105	1.38
417.468	1.34
417.83	1.45
418.193	1.43
418.556	1.32
418.918	1.36
419.281	1.41
419.643	1.56
420.005	1.42
420.368	1.47
420.73	1.37
421.092	1.44
421.455	1.46
421.817	1.33
422.179	1.46
422.541	1.47
422.903	1.5
423.265	1.46
423.627	1.35
423.989	1.4
424.351	1.33
424.713	1.42
425.075	1.4
425.436	1.33
425.798	1.37
426.16	1.46
426.521	1.33
426.883	1.43
427.245	1.39
427.606	1.28
427.967	1.32
428.329	1.33
428.69	1.36
429.052	1.33
429.413	1.36
429.774	1.43
430.135	1.37
430.497	1.35
430.858	1.32
431.219	1.4
431.58	1.3
431.941	1.34
432.302	1.28
432.663	1.34
433.024	1.39
433.384	1.36
433.745	1.3
434.106	1.35
434.467	1.32
434.827	1.3
435.188	1.3
435.548	1.36
435.909	1.31
436.269	1.31
436.63	1.27
436.99	1.23
437.351	1.2
437.711	1.26
438.071	1.19
438.431	1.26
438.792	1.28
439.152	1.22
439.512	1.22
439.872	1.24
440.232	1.22
440.592	1.28
440.952	1.23
441.312	1.18
441.671	1.25
442.031	1.25
442.391	1.2
442.751	1.22
443.11	1.16
443.47	1.14
443.83	1.1
444.189	1.12
444.549	1.16
444.908	1.16
445.267	1.12
445.627	1.18
445.986	1.11
446.345	1.13
446.705	1.15
447.064	1.11
447.423	1.09
447.782	1.09
448.141	1.07
448.5	1.07
448.859	1.05
449.218	1.1
449.577	1.09
449.936	1.08
450.295	1.04
450.653	1.05
451.012	1.05
451.371	1.03
451.729	1.01
452.088	1.01
452.447	1
452.805	1.01
453.163	1.01
453.522	1.01
453.88	0.99
454.239	0.97
454.597	0.96
454.955	0.95
455.313	0.94
455.671	0.94
456.029	0.92
456.388	0.92
456.746	0.9
457.104	0.9
457.461	0.88
457.819	0.87
458.177	0.87
458.535	0.84
458.893	0.84
459.25	0.83
459.608	0.84
459.966	0.8
460.323	0.8
460.681	0.78
461.038	0.78
461.396	0.78
461.753	0.76
462.111	0.76
462.468	0.74
462.825	0.74
463.182	0.73
463.54	0.71
463.897	0.71
464.254	0.7
464.611	0.68
464.968	0.67
465.325	0.68
465.682	0.67
466.039	0.67
466.395	0.66
466.752	0.64
467.109	0.63
467.466	0.62
467.822	0.61
468.179	0.59
468.535	0.61
468.892	0.59
469.248	0.58
469.605	0.57
469.961	0.57
470.318	0.57
470.674	0.55
471.03	0.55
471.386	0.55
471.743	0.53
472.099	0.52
472.455	0.51
472.811	0.5
473.167	0.5
473.523	0.47
473.879	0.48
474.235	0.48
474.59	0.46
474.946	0.46
475.302	0.46
475.657	0.44
476.013	0.44
476.369	0.42
476.724	0.44
477.08	0.43
477.435	0.41
477.791	0.41
478.146	0.41
478.501	0.4
478.857	0.4
479.212	0.39
479.567	0.39
479.922	0.37
480.277	0.37
480.632	0.36
480.987	0.36
481.342	0.35
481.697	0.35
482.052	0.34
482.407	0.34
482.762	0.33
483.116	0.32
483.471	0.32
483.826	0.31
484.18	0.31
484.535	0.31
484.89	0.29
485.244	0.3
485.598	0.3
485.953	0.29
486.307	0.29
486.661	0.29
487.016	0.28
487.37	0.28
487.724	0.27
488.078	0.27
488.432	0.27
488.786	0.26
489.14	0.26
489.494	0.25
489.848	0.25
490.202	0.24
490.556	0.24
490.91	0.25
491.263	0.24
491.617	0.24
491.971	0.23
492.324	0.23
492.678	0.23
493.031	0.23
493.385	0.23
493.738	0.22
494.091	0.23
494.445	0.22
494.798	0.22
495.151	0.22
495.504	0.21
495.857	0.21
496.21	0.22
496.564	0.21
496.916	0.21
497.269	0.2
497.622	0.21
497.975	0.2
498.328	0.2
498.681	0.2
499.033	0.2
499.386	0.2
499.739	0.2
500.091	0.19
500.444	0.19
500.796	0.19
501.149	0.19
501.501	0.18
501.854	0.19
502.206	0.19
502.558	0.19
502.91	0.18
503.263	0.18
503.615	0.18
503.967	0.18
504.319	0.18
504.671	0.18
505.023	0.17
505.375	0.17
505.726	0.18
506.078	0.17
506.43	0.16
506.782	0.17
507.133	0.17
507.485	0.17
507.837	0.17
508.188	0.17
508.54	0.17
508.891	0.17
509.243	0.17
509.594	0.17
509.945	0.17
510.296	0.16
510.648	0.17
510.999	0.16
511.35	0.16
511.701	0.16
512.052	0.16
512.403	0.16
512.754	0.16
513.105	0.16
513.456	0.15
513.807	0.15
514.157	0.16
514.508	0.16
514.859	0.15
515.209	0.15
515.56	0.15
515.91	0.15
516.261	0.15
516.611	0.15
516.962	0.15
517.312	0.15
517.662	0.15
518.013	0.15
518.363	0.15
518.713	0.15
519.063	0.15
519.413	0.15
519.763	0.15
520.113	0.15
520.463	0.16
520.813	0.16
521.163	0.16
521.512	0.15
521.862	0.16
522.212	0.16
522.562	0.15
522.911	0.15
523.261	0.16
523.61	0.15
523.96	0.15
524.309	0.16
524.658	0.15
525.008	0.15
525.357	0.15
525.706	0.16
526.056	0.15
526.405	0.15
526.754	0.15
527.103	0.15
527.452	0.15
527.801	0.15
528.15	0.15
528.499	0.15
528.847	0.15
529.196	0.16
529.545	0.16
529.893	0.16
530.242	0.16
530.591	0.17
530.939	0.17
531.288	0.16
531.636	0.17
531.985	0.16
532.333	0.16
532.681	0.16
533.029	0.16
533.378	0.17
533.726	0.16
534.074	0.16
534.422	0.16
534.77	0.16
535.118	0.16
535.466	0.15
535.814	0.16
536.162	0.16
536.509	0.16
536.857	0.16
537.205	0.16
537.552	0.16
537.9	0.17
538.248	0.15
538.595	0.16
538.943	0.16
539.29	0.16
539.637	0.15
539.985	0.16
540.332	0.15
540.679	0.15
541.026	0.15
541.373	0.15
541.721	0.15
542.068	0.15
542.415	0.15
542.762	0.15
543.108	0.15
543.455	0.14
543.802	0.15
544.149	0.15
544.496	0.16
544.842	0.15
545.189	0.15
545.535	0.15
545.882	0.15
546.228	0.15
546.575	0.15
546.921	0.15
547.267	0.15
547.614	0.15
547.96	0.15
548.306	0.15
548.652	0.15
548.998	0.16
549.344	0.15
549.69	0.15
550.036	0.15
550.382	0.15
550.728	0.16
551.074	0.17
551.42	0.16
551.765	0.16
552.111	0.16
552.457	0.17
552.802	0.16
553.148	0.16
553.493	0.17
553.839	0.17
554.184	0.17
554.529	0.16
554.875	0.16
555.22	0.17
555.565	0.16
555.91	0.16
556.255	0.16
556.6	0.17
556.945	0.15
557.29	0.16
557.635	0.16
557.98	0.17
558.325	0.16
558.67	0.16
559.014	0.16
559.359	0.17
559.704	0.16
560.048	0.16
560.393	0.15
560.737	0.15
561.082	0.15
561.426	0.14
561.77	0.15
562.115	0.15
562.459	0.15
562.803	0.16
563.147	0.15
563.491	0.16
563.835	0.16
564.179	0.15
564.523	0.15
564.867	0.14
565.211	0.16
565.555	0.16
565.899	0.16
566.242	0.16
566.586	0.15
566.93	0.16
567.273	0.17
567.617	0.16
567.96	0.16
568.304	0.16
568.647	0.16
568.99	0.17
569.334	0.17
569.677	0.15
570.02	0.17
570.363	0.16
570.706	0.16
571.049	0.15
571.392	0.16
571.735	0.15
572.078	0.15
572.421	0.17
572.764	0.16
573.106	0.16
573.449	0.15
573.792	0.15
574.134	0.16
574.477	0.16
574.819	0.16
575.162	0.16
575.504	0.16
575.847	0.16
576.189	0.17
576.531	0.16
576.873	0.15
577.215	0.16
577.558	0.17
577.9	0.15
578.242	0.16
578.584	0.16
578.926	0.16
579.267	0.16
579.609	0.15
579.951	0.16
580.293	0.15
580.634	0.16
580.976	0.15
581.318	0.15
581.659	0.15
582.001	0.16
582.342	0.16
582.683	0.15
583.025	0.14
583.366	0.15
583.707	0.16
584.049	0.15
584.39	0.15
584.731	0.15
585.072	0.15
585.413	0.16
585.754	0.15
586.095	0.15
586.435	0.16
586.776	0.16
587.117	0.16
587.458	0.15
587.798	0.16
588.139	0.16
588.48	0.16
588.82	0.15
589.161	0.15
589.501	0.15
589.841	0.16
590.182	0.15
590.522	0.16
590.862	0.15
591.202	0.16
591.542	0.14
591.882	0.15
592.222	0.16
592.562	0.16
592.902	0.15
593.242	0.15
593.582	0.16
593.922	0.15
594.261	0.15
594.601	0.15
594.941	0.16
595.28	0.16
595.62	0.15
595.959	0.16
596.299	0.15
596.638	0.15
596.977	0.15
597.317	0.15
597.656	0.15
597.995	0.14
598.334	0.15
598.673	0.16
599.012	0.15
599.351	0.15
599.69	0.15
600.029	0.15
600.368	0.15
600.707	0.15
601.046	0.15
601.384	0.16
601.723	0.15
602.061	0.15
602.4	0.15
602.738	0.16
603.077	0.15
603.415	0.15
603.754	0.15
604.092	0.15
604.43	0.15
604.768	0.15
605.107	0.16
605.445	0.14
605.783	0.15
606.121	0.14
606.459	0.15
606.796	0.15
607.134	0.14
607.472	0.15
607.81	0.15
608.148	0.15
608.485	0.15
608.823	0.15
609.16	0.14
609.498	0.16
609.835	0.15
610.173	0.14
610.51	0.15
610.847	0.15
611.185	0.15
611.522	0.16
611.859	0.15
612.196	0.14
612.533	0.16
612.87	0.16
613.207	0.16
613.544	0.16
613.881	0.17
614.217	0.16
614.554	0.15
614.891	0.15
615.228	0.15
615.564	0.16
615.901	0.16
616.237	0.16
616.574	0.16
616.91	0.16
617.246	0.16
617.583	0.16
617.919	0.16
618.255	0.16
618.591	0.16
618.927	0.16
619.263	0.16
619.599	0.16
619.935	0.16
620.271	0.16
620.607	0.15
620.943	0.16
621.279	0.16
621.614	0.16
621.95	0.16
622.286	0.15
622.621	0.15
622.957	0.15
623.292	0.15
623.627	0.14
623.963	0.15
624.298	0.15
624.633	0.15
624.968	0.14
625.304	0.14
625.639	0.14
625.974	0.14
626.309	0.14
626.644	0.14
626.979	0.14
627.313	0.14
627.648	0.14
627.983	0.14
628.318	0.14
628.652	0.14
628.987	0.14
629.321	0.14
629.656	0.14
629.99	0.13
630.325	0.14
630.659	0.14
630.993	0.14
631.327	0.14
631.662	0.13
631.996	0.14
632.33	0.14
632.664	0.14
632.998	0.14
633.332	0.13
633.666	0.14
633.999	0.14
634.333	0.13
634.667	0.13
635.001	0.13
635.334	0.13
635.668	0.13
636.001	0.13
636.335	0.13
636.668	0.13
637.001	0.12
637.335	0.12
637.668	0.13
638.001	0.12
638.334	0.13
638.668	0.13
639.001	0.13
639.334	0.13
639.667	0.12
639.999	0.12
640.332	0.12
640.665	0.12
640.998	0.13
641.331	0.13
641.663	0.13
641.996	0.13
642.328	0.13
642.661	0.13
642.993	0.13
643.326	0.13
643.658	0.13
643.99	0.13
644.323	0.12
644.655	0.13
644.987	0.13
645.319	0.13
645.651	0.13
645.983	0.13
646.315	0.12
646.647	0.13
646.979	0.14
647.31	0.13
647.642	0.13
647.974	0.13
648.305	0.13
648.637	0.13
648.968	0.13
649.3	0.13
649.631	0.14
649.963	0.13
650.294	0.14
650.625	0.13
650.957	0.14
651.288	0.14
651.619	0.13
651.95	0.13
652.281	0.13
652.612	0.13
652.943	0.13
653.274	0.14
653.604	0.13
653.935	0.13
654.266	0.13
654.596	0.12
654.927	0.12
655.258	0.13
655.588	0.13
655.918	0.13
656.249	0.11
656.579	0.13
656.909	0.13
657.24	0.12
657.57	0.13
657.9	0.13
658.23	0.13
658.56	0.14
658.89	0.13
659.22	0.12
659.55	0.12
659.88	0.13
660.209	0.13
660.539	0.14
660.869	0.14
661.198	0.14
661.528	0.13
661.857	0.13
662.187	0.12
662.516	0.13
662.846	0.12
663.175	0.12
663.504	0.13
663.833	0.13
664.163	0.12
664.492	0.12
664.821	0.13
665.15	0.12
665.479	0.12
665.807	0.12
666.136	0.12
666.465	0.12
666.794	0.12
667.122	0.12
667.451	0.12
667.78	0.12
668.108	0.12
668.437	0.11
668.765	0.12
669.093	0.12
669.422	0.12
669.75	0.12
670.078	0.12
670.406	0.12
670.734	0.12
671.062	0.12
671.39	0.12
671.718	0.12
672.046	0.12
672.374	0.11
672.702	0.12
673.029	0.11
673.357	0.11
673.685	0.12
674.012	0.12
674.34	0.11
674.667	0.12
674.995	0.12
675.322	0.12
675.649	0.12
675.977	0.11
676.304	0.12
676.631	0.11
676.958	0.11
677.285	0.11
677.612	0.1
677.939	0.11
678.266	0.11
678.593	0.11
678.92	0.11
679.246	0.1
679.573	0.1
679.9	0.1
680.226	0.11
680.553	0.1
680.879	0.1
681.206	0.1
681.532	0.1
681.858	0.1
682.184	0.11
682.511	0.1
682.837	0.1
683.163	0.1
683.489	0.11
683.815	0.1
684.141	0.1
684.467	0.11
684.793	0.1
685.118	0.1
685.444	0.1
685.77	0.1
686.095	0.11
686.421	0.11
686.746	0.1
687.072	0.11
687.397	0.11
687.723	0.11
688.048	0.11
688.373	0.11
688.698	0.1
689.023	0.1
689.349	0.11
689.674	0.1
689.999	0.1
690.323	0.09
690.648	0.09
690.973	0.09
691.298	0.09
691.623	0.09
691.947	0.09
692.272	0.09
692.596	0.09
692.921	0.09
693.245	0.09
693.57	0.09
693.894	0.09
694.218	0.1
694.543	0.09
694.867	0.09
695.191	0.08
695.515	0.09
695.839	0.08
696.163	0.09
696.487	0.09
696.811	0.08
697.135	0.1
697.458	0.09
697.782	0.09
698.106	0.09
698.429	0.09
698.753	0.09
699.076	0.09
699.4	0.09
699.723	0.08
700.046	0.09
700.37	0.09
700.693	0.09
701.016	0.09
701.339	0.09
701.662	0.1
701.985	0.09
702.308	0.09
702.631	0.09
702.954	0.09
703.277	0.09
703.599	0.09
703.922	0.09
704.245	0.09
704.567	0.09
704.89	0.09
705.212	0.09
705.535	0.09
705.857	0.08
706.179	0.08
706.502	0.08
706.824	0.08
707.146	0.08
707.468	0.08
707.79	0.08
708.112	0.08
708.434	0.08
708.756	0.08
709.078	0.08
709.399	0.08
709.721	0.08
710.043	0.09
710.364	0.08
710.686	0.08
711.007	0.08
711.329	0.09
711.65	0.08
711.972	0.08
712.293	0.09
712.614	0.08
712.935	0.08
713.256	0.08
713.577	0.09
713.898	0.08
714.219	0.07
714.54	0.08
714.861	0.07
715.182	0.08
715.503	0.08
715.823	0.08
716.144	0.08
716.464	0.06
716.785	0.06
717.105	0.07
717.426	0.08
717.746	0.07
718.066	0.07
718.387	0.07
718.707	0.07
719.027	0.07
719.347	0.06
719.667	0.07
719.987	0.06
720.307	0.07
720.627	0.06
720.947	0.06
721.266	0.06
721.586	0.06
721.906	0.06
722.225	0.06
722.545	0.05
722.864	0.05
723.184	0.06
723.503	0.06
723.823	0.06
724.142	0.05
724.461	0.06
724.78	0.06
725.099	0.06
725.418	0.06
725.737	0.05
726.056	0.07
726.375	0.07
726.694	0.06
727.013	0.07
727.331	0.05
727.65	0.05
727.969	0.06
728.287	0.06
728.606	0.06
728.924	0.05
729.242	0.06
729.561	0.06
729.879	0.06
730.197	0.07
730.515	0.06
730.834	0.06
731.152	0.06
731.47	0.06
731.788	0.06
732.105	0.05
732.423	0.06
732.741	0.06
733.059	0.06
733.376	0.06
733.694	0.05
734.012	0.05
734.329	0.06
734.647	0.05
734.964	0.06
735.281	0.05
735.599	0.06
735.916	0.06
736.233	0.05
736.55	0.06
736.867	0.05
737.184	0.06
737.501	0.06
737.818	0.06
738.135	0.07
738.452	0.06
738.768	0.06
739.085	0.07
739.402	0.05
739.718	0.06
740.035	0.06
740.351	0.06
740.668	0.07
740.984	0.07
741.3	0.06
741.617	0.06
741.933	0.07
742.249	0.06
742.565	0.06
742.881	0.07
743.197	0.06
743.513	0.06
743.829	0.06
744.144	0.06
744.46	0.07
744.776	0.06
745.091	0.06
745.407	0.06
745.722	0.06
746.038	0.05
746.353	0.05
746.669	0.07
746.984	0.06
747.299	0.07
747.614	0.06
747.93	0.06
748.245	0.06
748.56	0.05
748.875	0.06
749.189	0.06
749.504	0.06
749.819	0.07
750.134	0.06
750.448	0.07
750.763	0.06
751.078	0.05
751.392	0.05
751.707	0.07
752.021	0.07
752.335	0.07
752.65	0.07
752.964	0.06
753.278	0.06
753.592	0.06
753.906	0.06
754.22	0.07
754.534	0.06
754.848	0.06
755.162	0.06
755.476	0.06
755.789	0.05
756.103	0.06
756.417	0.06
756.73	0.07
757.044	0.06
757.357	0.06
757.671	0.06
757.984	0.07
758.297	0.06
758.61	0.06
758.924	0.07
759.237	0.06
759.55	0.07
759.863	0.05
760.176	0.06
760.488	0.06
760.801	0.05
761.114	0.06
761.427	0.05
761.739	0.05
762.052	0.05
762.365	0.05
762.677	0.05
762.99	0.05
763.302	0.05
763.614	0.05
763.926	0.06
764.239	0.06
764.551	0.04
764.863	0.06
765.175	0.06
765.487	0.06
765.799	0.05
766.111	0.05
766.423	0.05
766.734	0.05
767.046	0.05
767.358	0.05
767.669	0.05
767.981	0.05
768.292	0.04
768.604	0.05
768.915	0.04
769.226	0.05
769.537	0.04
769.849	0.05
770.16	0.04
770.471	0.04
770.782	0.04
771.093	0.05
771.404	0.03
771.715	0.04
772.025	0.04
772.336	0.04
772.647	0.03
772.957	0.04
773.268	0.04
773.578	0.04
773.889	0.05
774.199	0.05
774.51	0.04
774.82	0.04
775.13	0.04
775.44	0.04
775.75	0.04
776.06	0.05
776.37	0.04
776.68	0.05
776.99	0.04
777.3	0.04
777.61	0.05
777.92	0.04
778.229	0.04
778.539	0.04
778.848	0.04
779.158	0.05
779.467	0.05
779.777	0.04
780.086	0.05
780.395	0.04
780.704	0.05
781.013	0.03
781.323	0.04
781.632	0.05
781.941	0.05
782.249	0.05
782.558	0.03
782.867	0.05
783.176	0.04
783.485	0.04
783.793	0.05
784.102	0.04
784.41	0.04
784.719	0.05
785.027	0.04
785.335	0.04
785.644	0.05
785.952	0.04
786.26	0.04
786.568	0.04
786.876	0.04
787.184	0.04
787.492	0.04
787.8	0.04
788.108	0.04
788.416	0.03
788.723	0.04
789.031	0.03
789.338	0.04
789.646	0.03
789.953	0.03
790.261	0.04
790.568	0.04
790.876	0.04
791.183	0.05
791.49	0.04
791.797	0.04
792.104	0.04
792.411	0.04
792.718	0.04
793.025	0.04
793.332	0.05
793.639	0.05
793.945	0.04
794.252	0.05
794.559	0.05
794.865	0.05
795.172	0.05
795.478	0.05
795.784	0.05
796.091	0.04
796.397	0.06
796.703	0.05
797.009	0.05
797.315	0.05
797.622	0.04
797.927	0.05
798.233	0.04
798.539	0.05
798.845	0.05
799.151	0.05
799.456	0.05
799.762	0.04
800.068	0.05
800.373	0.05
800.679	0.04
800.984	0.05
801.289	0.03
801.595	0.04
801.9	0.04
802.205	0.04
802.51	0.04
802.815	0.04
803.12	0.04
803.425	0.04
803.73	0.03
804.035	0.04
804.339	0.03
804.644	0.04
804.949	0.04
805.253	0.04
805.558	0.04
805.862	0.03
806.167	0.04
806.471	0.03
806.775	0.04
807.08	0.04
807.384	0.04
807.688	0.04
807.992	0.05
808.296	0.04
808.6	0.04
808.904	0.05
809.207	0.04
809.511	0.05
809.815	0.05
810.119	0.04
810.422	0.05
810.726	0.06
811.029	0.05
811.332	0.06
811.636	0.05
811.939	0.05
812.242	0.05
812.546	0.05
812.849	0.05
813.152	0.05
813.455	0.05
813.758	0.06
814.06	0.05
814.363	0.05
814.666	0.06
814.969	0.05
815.271	0.05
815.574	0.04
815.877	0.05
816.179	0.04
816.481	0.03
816.784	0.04
817.086	0.03
817.388	0.03
817.69	0.03
817.993	0.02
818.295	0.03
818.597	0.03
818.899	0.02
819.2	0.02
819.502	0.03
819.804	0.03
820.106	0.02
820.407	0.02
820.709	0.03
821.01	0.03
821.312	0.03
821.613	0.02
821.915	0.04
822.216	0.03
822.517	0.02
822.818	0.02
823.119	0.03
823.42	0.03
823.721	0.03
824.022	0.03
824.323	0.03
824.624	0.02
824.925	0.04
825.226	0.04
825.526	0.03
825.827	0.03
826.127	0.04
826.428	0.04
826.728	0.03
827.028	0.03
827.329	0.03
827.629	0.03
827.929	0.03
828.229	0.04
828.529	0.03
828.829	0.02
829.129	0.03
829.429	0.04
829.729	0.03
830.029	0.03
830.328	0.03
830.628	0.02
830.927	0.02
831.227	0.02
831.526	0.03
831.826	0.03
832.125	0.02
832.424	0.03
832.724	0.03
833.023	0.02
833.322	0.03
833.621	0.02
833.92	0.01
834.219	0.02
834.518	0.02
834.816	0.01
835.115	0.02
835.414	0.02
835.712	0.02
836.011	0.01
836.309	0.02
836.608	0.01
836.906	0.01
837.205	0
837.503	0
837.801	0.01
838.099	-0
838.397	-0.01
838.695	-0
838.993	-0
839.291	-0.01
839.589	-0
839.887	-0.02
840.184	-0.02
840.482	-0.02
840.78	-0.02
841.077	-0.02
841.375	-0.02
841.672	-0.02
841.969	-0.02
842.267	-0.02
842.564	-0.03
842.861	-0.03
843.158	-0.03
843.455	-0.04
843.752	-0.04
844.049	-0.04
844.346	-0.04
844.643	-0.05
844.94	-0.05
845.236	-0.03
845.533	-0.03
845.83	-0.04
846.126	-0.05
846.423	-0.05
846.719	-0.05
847.015	-0.05
847.312	-0.06
847.608	-0.05
847.904	-0.05
848.2	-0.06
848.496	-0.07
848.792	-0.06
849.088	-0.04
849.384	-0.06
849.68	-0.06
849.975	-0.05
850.271	-0.06
850.567	-0.07
850.862	-0.07
851.158	-0.06
851.453	-0.06
851.748	-0.07
852.044	-0.07
852.339	-0.06
852.634	-0.08
852.929	-0.06
853.224	-0.07
853.519	-0.08
853.814	-0.07
854.109	-0.07
854.404	-0.08
854.699	-0.09
854.994	-0.07
855.288	-0.07
855.583	-0.08
855.877	-0.09
856.172	-0.08
856.466	-0.09
856.76	-0.09
857.055	-0.08
857.349	-0.1
857.643	-0.1
857.937	-0.1
858.231	-0.1
858.525	-0.1
858.819	-0.11
859.113	-0.12
859.407	-0.12
859.701	-0.11
859.994	-0.12
860.288	-0.11
860.581	-0.11
860.875	-0.12
861.168	-0.12
861.462	-0.12
861.755	-0.12
862.048	-0.12
862.341	-0.11
862.634	-0.13
862.928	-0.12
863.221	-0.12
863.513	-0.13
863.806	-0.13
864.099	-0.14
864.392	-0.13
864.685	-0.11
864.977	-0.13
865.27	-0.13
865.562	-0.12
865.855	-0.13
866.147	-0.13
866.44	-0.13
866.732	-0.14
867.024	-0.13
867.316	-0.14
867.608	-0.14
867.9	-0.14
868.192	-0.15
868.484	-0.15
868.776	-0.15
869.068	-0.14
869.359	-0.14
869.651	-0.16
869.943	-0.16
870.234	-0.15
870.526	-0.15
870.817	-0.15
871.108	-0.14
871.4	-0.13
871.691	-0.16
871.982	-0.16
872.273	-0.17
872.564	-0.16
872.855	-0.17
873.146	-0.18
873.437	-0.17
873.728	-0.18
874.019	-0.17
874.309	-0.17
874.6	-0.17
874.89	-0.17
875.181	-0.17
875.471	-0.17
875.762	-0.16
876.052	-0.16
876.342	-0.15
876.632	-0.16
876.922	-0.18
877.213	-0.17
877.503	-0.18
877.792	-0.17
878.082	-0.18
878.372	-0.17
878.662	-0.18
878.952	-0.18
879.241	-0.18
879.531	-0.17
879.82	-0.18
880.11	-0.19
880.399	-0.19
880.688	-0.17
880.978	-0.17
881.267	-0.17
