Data from 12-12-AQDScycling_Absorbance__14__00014.txt Node

Date: Tue Dec 12 11:00:14 EST 2023
User: kyuminlee
Spectrometer: FLMS00943
Trigger mode: 0
Integration Time (sec): 1.000000E-1
Scans to average: 1
Electric dark correction enabled: true
Nonlinearity correction enabled: false
Boxcar width: 0
XAxis mode: Wavelengths
Number of Pixels in Spectrum: 2048
>>>>>Begin Spectral Data<<<<<
179.651	-0
180.037	-0
180.424	-0
180.81	-0.05
181.197	0.45
181.583	-0
181.97	-0.54
182.356	-0
182.743	-0
183.129	0.42
183.515	0.9
183.901	-0
184.288	0.54
184.674	-0
185.06	-0.82
185.446	0.03
185.832	-0
186.218	0.04
186.604	-0
186.99	-0
187.376	0.74
187.762	-0
188.148	0.96
188.534	-0.31
188.92	0.2
189.305	0.02
189.691	0.16
190.077	0.11
190.463	0.09
190.848	0.05
191.234	-0
191.619	0.15
192.005	0.18
192.391	0.09
192.776	0.11
193.161	0.22
193.547	0.2
193.932	0.02
194.318	0.08
194.703	0.12
195.088	0.09
195.473	0.08
195.859	0.28
196.244	0.19
196.629	0.05
197.014	0.26
197.399	0.19
197.784	0.12
198.169	0.09
198.554	0.22
198.939	0.08
199.324	0.25
199.709	0.16
200.094	0.15
200.478	0.13
200.863	0.16
201.248	0.23
201.633	0.05
202.017	0.09
202.402	0.25
202.787	0.14
203.171	0.14
203.556	0.08
203.94	0.16
204.325	0.19
204.709	0.07
205.093	0.2
205.478	0.07
205.862	0.04
206.246	0.21
206.631	0.2
207.015	0.18
207.399	0.19
207.783	0.15
208.167	0.18
208.551	0.29
208.935	0.16
209.319	0.01
209.703	0.27
210.087	0.19
210.471	0.02
210.855	0.17
211.239	0.23
211.623	0.36
212.007	0.31
212.39	0.32
212.774	0.13
213.158	0.06
213.541	0.36
213.925	0.24
214.309	0.31
214.692	0.21
215.076	0.29
215.459	0.11
215.842	0.21
216.226	0.31
216.609	0.28
216.993	0.21
217.376	0.6
217.759	0.21
218.142	0.37
218.525	0.47
218.909	0.33
219.292	0.31
219.675	0.41
220.058	0.35
220.441	0.42
220.824	0.57
221.207	0.48
221.59	0.44
221.973	0.49
222.355	0.72
222.738	0.6
223.121	0.56
223.504	0.63
223.886	0.61
224.269	0.68
224.652	0.71
225.034	0.89
225.417	0.7
225.799	0.83
226.182	0.99
226.564	0.87
226.947	0.82
227.329	0.83
227.711	0.92
228.094	0.96
228.476	0.93
228.858	0.84
229.24	0.82
229.623	0.98
230.005	0.9
230.387	0.91
230.769	0.89
231.151	1.03
231.533	0.95
231.915	1.09
232.297	1.04
232.679	0.99
233.061	0.93
233.442	1.04
233.824	1.01
234.206	1.04
234.588	1
234.969	0.97
235.351	1.02
235.733	0.93
236.114	1.15
236.496	1.02
236.877	1.1
237.259	1.06
237.64	1.1
238.022	0.95
238.403	1.03
238.784	1.09
239.165	1.12
239.547	1.13
239.928	1.02
240.309	1.12
240.69	1.11
241.071	1.15
241.452	1.12
241.834	0.98
242.215	1.13
242.595	1.28
242.976	1.11
243.357	1.11
243.738	0.91
244.119	1.28
244.5	1.17
244.881	1.29
245.261	1.29
245.642	1.09
246.023	1.29
246.403	1.18
246.784	1.36
247.164	1.27
247.545	1.4
247.925	1.31
248.306	1.23
248.686	1.3
249.067	1.24
249.447	1.4
249.827	1.45
250.207	1.32
250.588	1.36
250.968	1.42
251.348	1.34
251.728	1.39
252.108	1.32
252.488	1.33
252.868	1.31
253.248	1.32
253.628	1.28
254.008	1.47
254.388	1.3
254.768	1.23
255.147	1.3
255.527	1.31
255.907	1.36
256.287	1.26
256.666	1.47
257.046	1.48
257.425	1.61
257.805	1.31
258.184	1.31
258.564	1.31
258.943	1.45
259.323	1.53
259.702	1.41
260.081	1.47
260.461	1.45
260.84	1.49
261.219	1.57
261.598	1.5
261.977	1.43
262.356	1.42
262.736	1.52
263.115	1.66
263.494	1.43
263.873	1.48
264.251	1.41
264.63	1.5
265.009	1.43
265.388	1.45
265.767	1.47
266.145	1.46
266.524	1.34
266.903	1.35
267.281	1.4
267.66	1.48
268.039	1.39
268.417	1.37
268.796	1.28
269.174	1.36
269.552	1.35
269.931	1.48
270.309	1.41
270.687	1.57
271.066	1.42
271.444	1.45
271.822	1.43
272.2	1.46
272.578	1.37
272.956	1.44
273.334	1.26
273.712	1.4
274.09	1.37
274.468	1.5
274.846	1.31
275.224	1.36
275.602	1.23
275.98	1.55
276.357	1.39
276.735	1.46
277.113	1.34
277.49	1.31
277.868	1.27
278.246	1.35
278.623	1.32
279.001	1.26
279.378	1.45
279.756	1.49
280.133	1.43
280.51	1.47
280.888	1.44
281.265	1.46
281.642	1.45
282.019	1.48
282.396	1.45
282.773	1.46
283.151	1.51
283.528	1.41
283.905	1.43
284.282	1.47
284.659	1.52
285.035	1.33
285.412	1.31
285.789	1.44
286.166	1.4
286.543	1.49
286.919	1.59
287.296	1.37
287.673	1.48
288.049	1.56
288.426	1.59
288.802	1.57
289.179	1.46
289.555	1.6
289.932	1.54
290.308	1.29
290.684	1.35
291.061	1.46
291.437	1.59
291.813	1.44
292.189	1.35
292.565	1.36
292.942	1.31
293.318	1.29
293.694	1.46
294.07	1.33
294.446	1.46
294.822	1.57
295.197	1.36
295.573	1.42
295.949	1.38
296.325	1.45
296.701	1.55
297.076	1.55
297.452	1.6
297.828	1.42
298.203	1.6
298.579	1.41
298.954	1.41
299.33	1.43
299.705	1.53
300.081	1.4
300.456	1.47
300.831	1.51
301.206	1.46
301.582	1.68
301.957	1.35
302.332	1.73
302.707	1.45
303.082	1.41
303.457	1.55
303.832	1.44
304.207	1.38
304.582	1.52
304.957	1.57
305.332	1.69
305.707	1.55
306.082	1.57
306.456	1.66
306.831	1.5
307.206	1.58
307.58	1.63
307.955	1.55
308.33	1.57
308.704	1.49
309.079	1.44
309.453	2
309.828	1.6
310.202	1.51
310.576	1.61
310.951	1.57
311.325	1.52
311.699	1.52
312.073	1.52
312.447	1.37
312.821	1.47
313.196	1.52
313.57	1.4
313.944	1.53
314.317	1.36
314.691	1.51
315.065	1.43
315.439	1.58
315.813	1.54
316.187	1.42
316.56	1.64
316.934	1.56
317.308	1.63
317.681	1.5
318.055	1.57
318.428	1.48
318.802	1.48
319.175	1.55
319.549	1.68
319.922	1.34
320.295	1.5
320.669	1.57
321.042	1.6
321.415	1.55
321.788	1.54
322.162	1.42
322.535	1.76
322.908	1.6
323.281	1.5
323.654	1.63
324.027	1.51
324.4	1.63
324.773	1.58
325.145	1.58
325.518	1.5
325.891	1.48
326.264	1.78
326.636	1.4
327.009	1.52
327.382	1.45
327.754	1.54
328.127	1.37
328.499	1.54
328.872	1.52
329.244	1.54
329.616	1.39
329.989	1.39
330.361	1.61
330.733	1.51
331.106	1.37
331.478	1.53
331.85	1.48
332.222	1.59
332.594	1.5
332.966	1.61
333.338	1.7
333.71	1.6
334.082	1.81
334.454	1.42
334.826	1.42
335.197	1.43
335.569	1.48
335.941	1.39
336.312	1.58
336.684	1.43
337.056	1.49
337.427	1.52
337.799	1.54
338.17	1.55
338.542	1.43
338.913	1.69
339.284	1.55
339.656	1.53
340.027	1.62
340.398	1.51
340.769	1.48
341.141	1.58
341.512	1.54
341.883	1.57
342.254	1.59
342.625	1.63
342.996	1.58
343.367	1.59
343.738	1.59
344.108	1.57
344.479	1.62
344.85	1.38
345.221	1.68
345.591	1.33
345.962	1.35
346.333	1.52
346.703	1.36
347.074	1.35
347.444	1.41
347.815	1.44
348.185	1.41
348.556	1.35
348.926	1.23
349.296	1.39
349.666	1.46
350.037	1.34
350.407	1.27
350.777	1.31
351.147	1.32
351.517	1.35
351.887	1.45
352.257	1.42
352.627	1.25
352.997	1.23
353.367	1.32
353.737	1.39
354.106	1.32
354.476	1.34
354.846	1.3
355.216	1.3
355.585	1.31
355.955	1.33
356.324	1.34
356.694	1.23
357.063	1.21
357.433	1.23
357.802	1.19
358.171	1.26
358.541	1.17
358.91	1.14
359.279	1.19
359.648	1.12
360.017	1.09
360.387	1.11
360.756	1.06
361.125	1.08
361.494	1.05
361.863	1.03
362.231	1.02
362.6	0.99
362.969	0.96
363.338	0.91
363.707	0.96
364.075	0.93
364.444	0.88
364.813	0.87
365.181	0.85
365.55	0.85
365.918	0.84
366.287	0.81
366.655	0.79
367.024	0.77
367.392	0.77
367.76	0.76
368.128	0.72
368.497	0.74
368.865	0.7
369.233	0.68
369.601	0.68
369.969	0.69
370.337	0.65
370.705	0.66
371.073	0.65
371.441	0.64
371.809	0.6
372.177	0.61
372.544	0.6
372.912	0.57
373.28	0.58
373.647	0.59
374.015	0.58
374.383	0.56
374.75	0.57
375.118	0.55
375.485	0.54
375.853	0.56
376.22	0.52
376.587	0.54
376.955	0.53
377.322	0.51
377.689	0.5
378.056	0.49
378.423	0.5
378.79	0.49
379.157	0.5
379.524	0.49
379.891	0.49
380.258	0.48
380.625	0.46
380.992	0.47
381.359	0.46
381.726	0.49
382.092	0.47
382.459	0.48
382.826	0.46
383.192	0.47
383.559	0.46
383.925	0.48
384.292	0.46
384.658	0.45
385.025	0.44
385.391	0.46
385.757	0.44
386.123	0.46
386.49	0.46
386.856	0.44
387.222	0.44
387.588	0.46
387.954	0.47
388.32	0.47
388.686	0.44
389.052	0.44
389.418	0.46
389.784	0.45
390.15	0.45
390.515	0.46
390.881	0.45
391.247	0.46
391.613	0.45
391.978	0.44
392.344	0.45
392.709	0.44
393.075	0.43
393.44	0.45
393.806	0.44
394.171	0.43
394.536	0.43
394.902	0.42
395.267	0.41
395.632	0.41
395.997	0.43
396.362	0.41
396.727	0.43
397.092	0.43
397.457	0.41
397.822	0.42
398.187	0.41
398.552	0.39
398.917	0.38
399.282	0.41
399.646	0.38
400.011	0.39
400.376	0.39
400.74	0.4
401.105	0.39
401.47	0.4
401.834	0.36
402.199	0.37
402.563	0.36
402.927	0.36
403.292	0.37
403.656	0.36
404.02	0.37
404.384	0.37
404.749	0.36
405.113	0.35
405.477	0.35
405.841	0.34
406.205	0.34
406.569	0.33
406.933	0.33
407.296	0.33
407.66	0.33
408.024	0.33
408.388	0.36
408.752	0.32
409.115	0.31
409.479	0.33
409.842	0.31
410.206	0.31
410.569	0.31
410.933	0.31
411.296	0.32
411.66	0.31
412.023	0.28
412.386	0.3
412.749	0.31
413.113	0.3
413.476	0.27
413.839	0.28
414.202	0.28
414.565	0.27
414.928	0.29
415.291	0.27
415.654	0.28
416.017	0.28
416.38	0.28
416.742	0.26
417.105	0.26
417.468	0.27
417.83	0.27
418.193	0.27
418.556	0.27
418.918	0.26
419.281	0.25
419.643	0.26
420.005	0.25
420.368	0.27
420.73	0.24
421.092	0.25
421.455	0.23
421.817	0.23
422.179	0.23
422.541	0.23
422.903	0.24
423.265	0.24
423.627	0.23
423.989	0.23
424.351	0.24
424.713	0.23
425.075	0.23
425.436	0.22
425.798	0.22
426.16	0.22
426.521	0.23
426.883	0.24
427.245	0.21
427.606	0.22
427.967	0.22
428.329	0.23
428.69	0.24
429.052	0.23
429.413	0.22
429.774	0.21
430.135	0.2
430.497	0.2
430.858	0.2
431.219	0.22
431.58	0.22
431.941	0.2
432.302	0.21
432.663	0.21
433.024	0.22
433.384	0.21
433.745	0.19
434.106	0.21
434.467	0.21
434.827	0.22
435.188	0.21
435.548	0.21
435.909	0.2
436.269	0.22
436.63	0.19
436.99	0.2
437.351	0.21
437.711	0.2
438.071	0.19
438.431	0.2
438.792	0.18
439.152	0.19
439.512	0.19
439.872	0.19
440.232	0.2
440.592	0.2
440.952	0.2
441.312	0.19
441.671	0.18
442.031	0.17
442.391	0.18
442.751	0.19
443.11	0.18
443.47	0.18
443.83	0.18
444.189	0.18
444.549	0.17
444.908	0.17
445.267	0.17
445.627	0.16
445.986	0.16
446.345	0.16
446.705	0.17
447.064	0.16
447.423	0.17
447.782	0.17
448.141	0.17
448.5	0.16
448.859	0.17
449.218	0.17
449.577	0.18
449.936	0.18
450.295	0.16
450.653	0.17
451.012	0.16
451.371	0.16
451.729	0.16
452.088	0.17
452.447	0.16
452.805	0.17
453.163	0.17
453.522	0.17
453.88	0.15
454.239	0.15
454.597	0.16
454.955	0.16
455.313	0.15
455.671	0.16
456.029	0.14
456.388	0.14
456.746	0.15
457.104	0.14
457.461	0.14
457.819	0.14
458.177	0.13
458.535	0.14
458.893	0.13
459.25	0.13
459.608	0.13
459.966	0.13
460.323	0.12
460.681	0.12
461.038	0.13
461.396	0.12
461.753	0.13
462.111	0.13
462.468	0.12
462.825	0.11
463.182	0.12
463.54	0.11
463.897	0.12
464.254	0.12
464.611	0.12
464.968	0.11
465.325	0.11
465.682	0.1
466.039	0.12
466.395	0.11
466.752	0.1
467.109	0.1
467.466	0.12
467.822	0.11
468.179	0.1
468.535	0.1
468.892	0.11
469.248	0.11
469.605	0.1
469.961	0.11
470.318	0.11
470.674	0.11
471.03	0.09
471.386	0.1
471.743	0.09
472.099	0.1
472.455	0.09
472.811	0.09
473.167	0.09
473.523	0.09
473.879	0.09
474.235	0.09
474.59	0.08
474.946	0.08
475.302	0.09
475.657	0.09
476.013	0.09
476.369	0.08
476.724	0.09
477.08	0.09
477.435	0.09
477.791	0.09
478.146	0.09
478.501	0.08
478.857	0.08
479.212	0.08
479.567	0.08
479.922	0.07
480.277	0.08
480.632	0.07
480.987	0.07
481.342	0.08
481.697	0.07
482.052	0.07
482.407	0.07
482.762	0.07
483.116	0.07
483.471	0.07
483.826	0.06
484.18	0.06
484.535	0.07
484.89	0.06
485.244	0.07
485.598	0.07
485.953	0.07
486.307	0.07
486.661	0.07
487.016	0.06
487.37	0.07
487.724	0.07
488.078	0.06
488.432	0.06
488.786	0.07
489.14	0.06
489.494	0.06
489.848	0.06
490.202	0.06
490.556	0.06
490.91	0.06
491.263	0.06
491.617	0.06
491.971	0.06
492.324	0.06
492.678	0.06
493.031	0.06
493.385	0.06
493.738	0.06
494.091	0.06
494.445	0.06
494.798	0.06
495.151	0.05
495.504	0.06
495.857	0.06
496.21	0.06
496.564	0.05
496.916	0.06
497.269	0.05
497.622	0.06
497.975	0.06
498.328	0.06
498.681	0.06
499.033	0.06
499.386	0.06
499.739	0.06
500.091	0.06
500.444	0.06
500.796	0.06
501.149	0.05
501.501	0.06
501.854	0.06
502.206	0.06
502.558	0.05
502.91	0.06
503.263	0.05
503.615	0.05
503.967	0.05
504.319	0.05
504.671	0.05
505.023	0.05
505.375	0.05
505.726	0.05
506.078	0.05
506.43	0.05
506.782	0.05
507.133	0.06
507.485	0.06
507.837	0.06
508.188	0.05
508.54	0.05
508.891	0.06
509.243	0.05
509.594	0.05
509.945	0.05
510.296	0.04
510.648	0.05
510.999	0.04
511.35	0.05
511.701	0.04
512.052	0.05
512.403	0.04
512.754	0.04
513.105	0.04
513.456	0.03
513.807	0.03
514.157	0.04
514.508	0.04
514.859	0.03
515.209	0.04
515.56	0.04
515.91	0.04
516.261	0.04
516.611	0.04
516.962	0.04
517.312	0.04
517.662	0.04
518.013	0.04
518.363	0.04
518.713	0.04
519.063	0.04
519.413	0.04
519.763	0.04
520.113	0.04
520.463	0.05
520.813	0.05
521.163	0.05
521.512	0.05
521.862	0.04
522.212	0.05
522.562	0.05
522.911	0.04
523.261	0.04
523.61	0.05
523.96	0.05
524.309	0.05
524.658	0.05
525.008	0.05
525.357	0.05
525.706	0.05
526.056	0.04
526.405	0.06
526.754	0.04
527.103	0.04
527.452	0.04
527.801	0.05
528.15	0.05
528.499	0.05
528.847	0.04
529.196	0.04
529.545	0.04
529.893	0.04
530.242	0.04
530.591	0.05
530.939	0.05
531.288	0.05
531.636	0.05
531.985	0.05
532.333	0.05
532.681	0.04
533.029	0.05
533.378	0.05
533.726	0.04
534.074	0.05
534.422	0.04
534.77	0.04
535.118	0.04
535.466	0.05
535.814	0.04
536.162	0.05
536.509	0.04
536.857	0.05
537.205	0.05
537.552	0.04
537.9	0.04
538.248	0.03
538.595	0.04
538.943	0.04
539.29	0.03
539.637	0.04
539.985	0.04
540.332	0.04
540.679	0.04
541.026	0.03
541.373	0.04
541.721	0.03
542.068	0.04
542.415	0.04
542.762	0.04
543.108	0.03
543.455	0.03
543.802	0.03
544.149	0.04
544.496	0.04
544.842	0.04
545.189	0.03
545.535	0.03
545.882	0.04
546.228	0.03
546.575	0.04
546.921	0.03
547.267	0.04
547.614	0.03
547.96	0.04
548.306	0.03
548.652	0.03
548.998	0.04
549.344	0.03
549.69	0.04
550.036	0.03
550.382	0.04
550.728	0.03
551.074	0.04
551.42	0.04
551.765	0.04
552.111	0.04
552.457	0.04
552.802	0.03
553.148	0.04
553.493	0.04
553.839	0.04
554.184	0.04
554.529	0.03
554.875	0.04
555.22	0.05
555.565	0.04
555.91	0.03
556.255	0.04
556.6	0.04
556.945	0.03
557.29	0.03
557.635	0.03
557.98	0.03
558.325	0.03
558.67	0.03
559.014	0.03
559.359	0.03
559.704	0.03
560.048	0.02
560.393	0.03
560.737	0.02
561.082	0.02
561.426	0.02
561.77	0.02
562.115	0.02
562.459	0.03
562.803	0.02
563.147	0.03
563.491	0.03
563.835	0.03
564.179	0.03
564.523	0.03
564.867	0.02
565.211	0.03
565.555	0.03
565.899	0.04
566.242	0.03
566.586	0.03
566.93	0.03
567.273	0.04
567.617	0.04
567.96	0.04
568.304	0.04
568.647	0.03
568.99	0.04
569.334	0.04
569.677	0.04
570.02	0.04
570.363	0.03
570.706	0.04
571.049	0.04
571.392	0.04
571.735	0.03
572.078	0.04
572.421	0.04
572.764	0.04
573.106	0.04
573.449	0.04
573.792	0.04
574.134	0.04
574.477	0.03
574.819	0.04
575.162	0.03
575.504	0.04
575.847	0.04
576.189	0.04
576.531	0.03
576.873	0.03
577.215	0.03
577.558	0.04
577.9	0.03
578.242	0.03
578.584	0.03
578.926	0.03
579.267	0.02
579.609	0.03
579.951	0.03
580.293	0.03
580.634	0.03
580.976	0.04
581.318	0.03
581.659	0.03
582.001	0.03
582.342	0.03
582.683	0.03
583.025	0.02
583.366	0.03
583.707	0.03
584.049	0.03
584.39	0.03
584.731	0.03
585.072	0.02
585.413	0.04
585.754	0.03
586.095	0.03
586.435	0.03
586.776	0.03
587.117	0.03
587.458	0.03
587.798	0.03
588.139	0.03
588.48	0.02
588.82	0.02
589.161	0.03
589.501	0.02
589.841	0.02
590.182	0.02
590.522	0.02
590.862	0.02
591.202	0.02
591.542	0.02
591.882	0.02
592.222	0.03
592.562	0.03
592.902	0.02
593.242	0.02
593.582	0.03
593.922	0.03
594.261	0.02
594.601	0.02
594.941	0.03
595.28	0.03
595.62	0.03
595.959	0.02
596.299	0.03
596.638	0.03
596.977	0.03
597.317	0.04
597.656	0.03
597.995	0.03
598.334	0.03
598.673	0.03
599.012	0.03
599.351	0.04
599.69	0.03
600.029	0.03
600.368	0.04
600.707	0.03
601.046	0.03
601.384	0.03
601.723	0.03
602.061	0.02
602.4	0.03
602.738	0.03
603.077	0.03
603.415	0.03
603.754	0.04
604.092	0.03
604.43	0.03
604.768	0.03
605.107	0.04
605.445	0.03
605.783	0.03
606.121	0.03
606.459	0.03
606.796	0.03
607.134	0.02
607.472	0.03
607.81	0.03
608.148	0.02
608.485	0.04
608.823	0.03
609.16	0.03
609.498	0.03
609.835	0.03
610.173	0.03
610.51	0.04
610.847	0.04
611.185	0.04
611.522	0.05
611.859	0.04
612.196	0.04
612.533	0.05
612.87	0.05
613.207	0.05
613.544	0.04
613.881	0.05
614.217	0.04
614.554	0.04
614.891	0.04
615.228	0.04
615.564	0.04
615.901	0.04
616.237	0.04
616.574	0.04
616.91	0.05
617.246	0.04
617.583	0.04
617.919	0.04
618.255	0.05
618.591	0.05
618.927	0.04
619.263	0.04
619.599	0.05
619.935	0.04
620.271	0.04
620.607	0.04
620.943	0.04
621.279	0.04
621.614	0.04
621.95	0.05
622.286	0.04
622.621	0.03
622.957	0.04
623.292	0.03
623.627	0.04
623.963	0.03
624.298	0.04
624.633	0.03
624.968	0.03
625.304	0.03
625.639	0.04
625.974	0.04
626.309	0.03
626.644	0.03
626.979	0.04
627.313	0.04
627.648	0.04
627.983	0.04
628.318	0.04
628.652	0.04
628.987	0.04
629.321	0.04
629.656	0.03
629.99	0.03
630.325	0.04
630.659	0.04
630.993	0.03
631.327	0.03
631.662	0.03
631.996	0.03
632.33	0.03
632.664	0.04
632.998	0.02
633.332	0.02
633.666	0.03
633.999	0.03
634.333	0.02
634.667	0.02
635.001	0.02
635.334	0.02
635.668	0.03
636.001	0.03
636.335	0.03
636.668	0.03
637.001	0.03
637.335	0.02
637.668	0.03
638.001	0.02
638.334	0.03
638.668	0.02
639.001	0.03
639.334	0.02
639.667	0.02
639.999	0.03
640.332	0.03
640.665	0.03
640.998	0.03
641.331	0.03
641.663	0.03
641.996	0.02
642.328	0.03
642.661	0.03
642.993	0.03
643.326	0.03
643.658	0.03
643.99	0.02
644.323	0.02
644.655	0.03
644.987	0.03
645.319	0.04
645.651	0.03
645.983	0.03
646.315	0.03
646.647	0.04
646.979	0.04
647.31	0.04
647.642	0.03
647.974	0.04
648.305	0.04
648.637	0.04
648.968	0.04
649.3	0.04
649.631	0.04
649.963	0.04
650.294	0.04
650.625	0.03
650.957	0.04
651.288	0.04
651.619	0.04
651.95	0.04
652.281	0.03
652.612	0.04
652.943	0.04
653.274	0.05
653.604	0.04
653.935	0.04
654.266	0.04
654.596	0.04
654.927	0.04
655.258	0.04
655.588	0.04
655.918	0.04
656.249	0.03
656.579	0.03
656.909	0.04
657.24	0.04
657.57	0.04
657.9	0.04
658.23	0.04
658.56	0.04
658.89	0.05
659.22	0.03
659.55	0.04
659.88	0.04
660.209	0.05
660.539	0.05
660.869	0.05
661.198	0.04
661.528	0.05
661.857	0.04
662.187	0.05
662.516	0.04
662.846	0.04
663.175	0.04
663.504	0.04
663.833	0.04
664.163	0.04
664.492	0.03
664.821	0.04
665.15	0.04
665.479	0.04
665.807	0.04
666.136	0.04
666.465	0.04
666.794	0.04
667.122	0.04
667.451	0.03
667.78	0.04
668.108	0.04
668.437	0.03
668.765	0.04
669.093	0.04
669.422	0.04
669.75	0.04
670.078	0.04
670.406	0.04
670.734	0.04
671.062	0.04
671.39	0.03
671.718	0.04
672.046	0.04
672.374	0.04
672.702	0.04
673.029	0.03
673.357	0.04
673.685	0.05
674.012	0.04
674.34	0.04
674.667	0.04
674.995	0.04
675.322	0.04
675.649	0.04
675.977	0.04
676.304	0.04
676.631	0.03
676.958	0.04
677.285	0.03
677.612	0.02
677.939	0.03
678.266	0.04
678.593	0.03
678.92	0.03
679.246	0.03
679.573	0.02
679.9	0.02
680.226	0.03
680.553	0.02
680.879	0.03
681.206	0.03
681.532	0.02
681.858	0.02
682.184	0.02
682.511	0.03
682.837	0.03
683.163	0.03
683.489	0.03
683.815	0.02
684.141	0.03
684.467	0.02
684.793	0.02
685.118	0.03
685.444	0.03
685.77	0.03
686.095	0.04
686.421	0.03
686.746	0.03
687.072	0.03
687.397	0.02
687.723	0.03
688.048	0.03
688.373	0.02
688.698	0.03
689.023	0.03
689.349	0.03
689.674	0.03
689.999	0.03
690.323	0.02
690.648	0.02
690.973	0.02
691.298	0.02
691.623	0.02
691.947	0.03
692.272	0.02
692.596	0.02
692.921	0.02
693.245	0.02
693.57	0.02
693.894	0.03
694.218	0.03
694.543	0.02
694.867	0.02
695.191	0.02
695.515	0.03
695.839	0.01
696.163	0.02
696.487	0.02
696.811	0.02
697.135	0.02
697.458	0.02
697.782	0.02
698.106	0.03
698.429	0.02
698.753	0.02
699.076	0.02
699.4	0.02
699.723	0.02
700.046	0.02
700.37	0.03
700.693	0.03
701.016	0.02
701.339	0.03
701.662	0.03
701.985	0.03
702.308	0.02
702.631	0.03
702.954	0.03
703.277	0.03
703.599	0.03
703.922	0.01
704.245	0.02
704.567	0.02
704.89	0.02
705.212	0.02
705.535	0.01
705.857	0.01
706.179	0.01
706.502	0.01
706.824	0
707.146	0.01
707.468	0.02
707.79	0.02
708.112	0.01
708.434	0.01
708.756	0.02
709.078	0.02
709.399	0.01
709.721	0.01
710.043	0.02
710.364	0.01
710.686	0.02
711.007	0.01
711.329	0.02
711.65	0.02
711.972	0.02
712.293	0.02
712.614	0.02
712.935	0.02
713.256	0.02
713.577	0.03
713.898	0.02
714.219	0.03
714.54	0.02
714.861	0.02
715.182	0.02
715.503	0.02
715.823	0.03
716.144	0.02
716.464	0.01
716.785	0.01
717.105	0.02
717.426	0.02
717.746	0.02
718.066	0.01
718.387	0.02
718.707	0.01
719.027	0.02
719.347	0
719.667	0.01
719.987	0.01
720.307	0.01
720.627	0.01
720.947	0.01
721.266	0.01
721.586	0.01
721.906	0.01
722.225	0.01
722.545	0.01
722.864	0.01
723.184	0.02
723.503	0.02
723.823	0.03
724.142	0.02
724.461	0.02
724.78	0.02
725.099	0.03
725.418	0.02
725.737	0.02
726.056	0.02
726.375	0.02
726.694	0.03
727.013	0.02
727.331	0.02
727.65	0.02
727.969	0.02
728.287	0.01
728.606	0.02
728.924	0.01
729.242	0.02
729.561	0.02
729.879	0.02
730.197	0.02
730.515	0.01
730.834	0.01
731.152	0.02
731.47	0.01
731.788	0.02
732.105	0.01
732.423	0.02
732.741	0.01
733.059	0.01
733.376	0.02
733.694	0.01
734.012	0.02
734.329	0.01
734.647	0.02
734.964	0.02
735.281	0.02
735.599	0.02
735.916	0.02
736.233	0.02
736.55	0.02
736.867	0.01
737.184	0.03
737.501	0.02
737.818	0.01
738.135	0.02
738.452	0.02
738.768	0.02
739.085	0.02
739.402	0.01
739.718	0.02
740.035	0.02
740.351	0.03
740.668	0.03
740.984	0.01
741.3	0.02
741.617	0.02
741.933	0.02
742.249	0.03
742.565	0.03
742.881	0.02
743.197	0.02
743.513	0.02
743.829	0.01
744.144	0.01
744.46	0.02
744.776	0.02
745.091	0.02
745.407	0.02
745.722	0.01
746.038	0.01
746.353	0.01
746.669	0.02
746.984	0.01
747.299	0.01
747.614	0.02
747.93	0.02
748.245	0.01
748.56	0.01
748.875	0.01
749.189	0.02
749.504	0.01
749.819	0.01
750.134	0.01
750.448	0.01
750.763	0.02
751.078	0.01
751.392	0.01
751.707	0.02
752.021	0.03
752.335	0.02
752.65	0.02
752.964	0.02
753.278	0.02
753.592	0.02
753.906	0.01
754.22	0.02
754.534	0.02
754.848	0.02
755.162	0.02
755.476	0.03
755.789	0.02
756.103	0.01
756.417	0.02
756.73	0.02
757.044	0.02
757.357	0.02
757.671	0.02
757.984	0.02
758.297	0.03
758.61	0.03
758.924	0.02
759.237	0.02
759.55	0.02
759.863	0.02
760.176	0.02
760.488	0.03
760.801	0.02
761.114	0.02
761.427	0.02
761.739	0.03
762.052	0.02
762.365	0.02
762.677	0.02
762.99	0.01
763.302	0.02
763.614	0.02
763.926	0.03
764.239	0.02
764.551	0.02
764.863	0.02
765.175	0.03
765.487	0.02
765.799	0.01
766.111	0.01
766.423	0.02
766.734	0.02
767.046	0.01
767.358	0.02
767.669	0.02
767.981	0.03
768.292	0.02
768.604	0.02
768.915	0.02
769.226	0.02
769.537	0.01
769.849	0.02
770.16	0.02
770.471	0.01
770.782	0.01
771.093	0.01
771.404	0
771.715	0.01
772.025	0.01
772.336	0.02
772.647	0.01
772.957	0.01
773.268	0.02
773.578	0.01
773.889	0.01
774.199	0.02
774.51	0.01
774.82	0.01
775.13	0.01
775.44	0.01
775.75	0.02
776.06	0.02
776.37	0.01
776.68	0.02
776.99	0.02
777.3	0.01
777.61	0.02
777.92	0.01
778.229	0.01
778.539	0.02
778.848	0.02
779.158	0.01
779.467	0.02
779.777	0.01
780.086	0.02
780.395	0.01
780.704	0.02
781.013	0
781.323	0.01
781.632	0.02
781.941	0.02
782.249	0.01
782.558	0.01
782.867	0.02
783.176	0.01
783.485	0.02
783.793	0.02
784.102	0.01
784.41	0.01
784.719	0.02
785.027	0.01
785.335	0.03
785.644	0.02
785.952	0.02
786.26	0.02
786.568	0.01
786.876	0.01
787.184	0.02
787.492	0.02
787.8	0.02
788.108	0.02
788.416	0.01
788.723	0.02
789.031	0.02
789.338	0.02
789.646	0.02
789.953	0.02
790.261	0.03
790.568	0.03
790.876	0.03
791.183	0.03
791.49	0.02
791.797	0.02
792.104	0.02
792.411	0.02
792.718	0.01
793.025	0.03
793.332	0.02
793.639	0.03
793.945	0.03
794.252	0.03
794.559	0.03
794.865	0.03
795.172	0.02
795.478	0.02
795.784	0.03
796.091	0.03
796.397	0.03
796.703	0.03
797.009	0.03
797.315	0.03
797.622	0.02
797.927	0.02
798.233	0.02
798.539	0.02
798.845	0.02
799.151	0.02
799.456	0.02
799.762	0.01
800.068	0.02
800.373	0.02
800.679	0.01
800.984	0.01
801.289	0.01
801.595	0.02
801.9	0.01
802.205	0.02
802.51	0.02
802.815	0.02
803.12	0.02
803.425	0.02
803.73	0.01
804.035	0.01
804.339	0.01
804.644	0.02
804.949	0.02
805.253	0.02
805.558	0.02
805.862	0.01
806.167	0.02
806.471	0.01
806.775	0.02
807.08	0.02
807.384	0.02
807.688	0.02
807.992	0.02
808.296	0.02
808.6	0.02
808.904	0.02
809.207	0.02
809.511	0.02
809.815	0.03
810.119	0.02
810.422	0.02
810.726	0.04
811.029	0.03
811.332	0.03
811.636	0.03
811.939	0.02
812.242	0.03
812.546	0.02
812.849	0.03
813.152	0.03
813.455	0.03
813.758	0.03
814.06	0.03
814.363	0.03
814.666	0.04
814.969	0.03
815.271	0.03
815.574	0.03
815.877	0.03
816.179	0.03
816.481	0.03
816.784	0.04
817.086	0.03
817.388	0.03
817.69	0.02
817.993	0.02
818.295	0.02
818.597	0.02
818.899	0.02
819.2	0.02
819.502	0.02
819.804	0.02
820.106	0.01
820.407	0.01
820.709	0.01
821.01	0.01
821.312	0.02
821.613	0.02
821.915	0.01
822.216	0.01
822.517	0
822.818	0.01
823.119	0.01
823.42	0
823.721	-0
824.022	-0
824.323	0.01
824.624	0
824.925	0.01
825.226	0.01
825.526	-0
825.827	0
826.127	0
826.428	0.01
826.728	0.01
827.028	-0
827.329	0.01
827.629	-0
827.929	0.01
828.229	0.01
828.529	0.01
828.829	0.01
829.129	0.01
829.429	0.01
829.729	0.01
830.029	-0
830.328	0.01
830.628	-0
830.927	-0.01
831.227	0
831.526	0
831.826	0
832.125	0
832.424	-0.01
832.724	-0
833.023	0
833.322	0
833.621	-0.01
833.92	-0.02
834.219	-0.01
834.518	-0
834.816	-0.01
835.115	-0
835.414	-0.01
835.712	-0.01
836.011	-0.01
836.309	-0.01
836.608	-0.01
836.906	-0.02
837.205	-0.02
837.503	-0.03
837.801	-0.02
838.099	-0.03
838.397	-0.03
838.695	-0.03
838.993	-0.03
839.291	-0.04
839.589	-0.03
839.887	-0.04
840.184	-0.04
840.482	-0.04
840.78	-0.03
841.077	-0.04
841.375	-0.04
841.672	-0.03
841.969	-0.05
842.267	-0.04
842.564	-0.04
842.861	-0.03
843.158	-0.05
843.455	-0.06
843.752	-0.05
844.049	-0.04
844.346	-0.06
844.643	-0.05
844.94	-0.05
845.236	-0.04
845.533	-0.05
845.83	-0.05
846.126	-0.06
846.423	-0.06
846.719	-0.07
847.015	-0.06
847.312	-0.06
847.608	-0.07
847.904	-0.07
848.2	-0.07
848.496	-0.07
848.792	-0.07
849.088	-0.06
849.384	-0.08
849.68	-0.08
849.975	-0.07
850.271	-0.08
850.567	-0.09
850.862	-0.09
851.158	-0.09
851.453	-0.09
851.748	-0.1
852.044	-0.1
852.339	-0.09
852.634	-0.11
852.929	-0.1
853.224	-0.11
853.519	-0.11
853.814	-0.1
854.109	-0.11
854.404	-0.11
854.699	-0.12
854.994	-0.1
855.288	-0.11
855.583	-0.11
855.877	-0.11
856.172	-0.11
856.466	-0.11
856.76	-0.11
857.055	-0.12
857.349	-0.13
857.643	-0.13
857.937	-0.13
858.231	-0.13
858.525	-0.13
858.819	-0.13
859.113	-0.13
859.407	-0.14
859.701	-0.13
859.994	-0.14
860.288	-0.12
860.581	-0.12
860.875	-0.14
861.168	-0.14
861.462	-0.14
861.755	-0.13
862.048	-0.14
862.341	-0.14
862.634	-0.13
862.928	-0.13
863.221	-0.13
863.513	-0.13
863.806	-0.13
864.099	-0.13
864.392	-0.13
864.685	-0.13
864.977	-0.13
865.27	-0.14
865.562	-0.13
865.855	-0.13
866.147	-0.13
866.44	-0.14
866.732	-0.14
867.024	-0.15
867.316	-0.15
867.608	-0.15
867.9	-0.15
868.192	-0.15
868.484	-0.14
868.776	-0.15
869.068	-0.14
869.359	-0.15
869.651	-0.15
869.943	-0.17
870.234	-0.16
870.526	-0.15
870.817	-0.16
871.108	-0.15
871.4	-0.15
871.691	-0.15
871.982	-0.17
872.273	-0.17
872.564	-0.17
872.855	-0.17
873.146	-0.17
873.437	-0.17
873.728	-0.18
874.019	-0.17
874.309	-0.18
874.6	-0.17
874.89	-0.18
875.181	-0.17
875.471	-0.16
875.762	-0.17
876.052	-0.18
876.342	-0.16
876.632	-0.17
876.922	-0.18
877.213	-0.17
877.503	-0.18
877.792	-0.18
878.082	-0.19
878.372	-0.18
878.662	-0.19
878.952	-0.19
879.241	-0.18
879.531	-0.18
879.82	-0.18
880.11	-0.19
880.399	-0.19
880.688	-0.16
880.978	-0.16
881.267	-0.16
