Data from 12-12-AQDScycling_Absorbance__231__00231.txt Node

Date: Tue Dec 12 11:55:41 EST 2023
User: kyuminlee
Spectrometer: FLMS00943
Trigger mode: 0
Integration Time (sec): 1.000000E-1
Scans to average: 1
Electric dark correction enabled: true
Nonlinearity correction enabled: false
Boxcar width: 0
XAxis mode: Wavelengths
Number of Pixels in Spectrum: 2048
>>>>>Begin Spectral Data<<<<<
179.651	0.47
180.037	0.47
180.424	0.47
180.81	-0.28
181.197	0.24
181.583	-0.42
181.97	0.37
182.356	-0
182.743	-0.72
183.129	-0.04
183.515	-0
183.901	-2.11
184.288	1.02
184.674	-0
185.06	-0.84
185.446	-0
185.832	-1.41
186.218	0.99
186.604	0.06
186.99	-0
187.376	0.79
187.762	0.87
188.148	0.93
188.534	-0.21
188.92	0.17
189.305	0.19
189.691	0.14
190.077	0.23
190.463	0.14
190.848	0.19
191.234	0
191.619	0.03
192.005	0.02
192.391	0.1
192.776	0.19
193.161	0.1
193.547	0.06
193.932	-0.07
194.318	0.02
194.703	0.07
195.088	0.19
195.473	0.05
195.859	0.2
196.244	0.15
196.629	0.11
197.014	0.05
197.399	0.04
197.784	0.23
198.169	0.06
198.554	0.09
198.939	0.1
199.324	0.23
199.709	0.03
200.094	0.11
200.478	0.05
200.863	0.09
201.248	0.11
201.633	0.04
202.017	0.19
202.402	0.12
202.787	0.08
203.171	0.19
203.556	0.27
203.94	0.1
204.325	0.12
204.709	0.22
205.093	0.13
205.478	0.01
205.862	0.08
206.246	-0.01
206.631	-0.01
207.015	0.06
207.399	0.13
207.783	0.22
208.167	0.12
208.551	0.19
208.935	0.04
209.319	0.11
209.703	0.09
210.087	0.1
210.471	0.04
210.855	0.11
211.239	0.18
211.623	0.22
212.007	0.22
212.39	0.39
212.774	0.3
213.158	0.07
213.541	0.12
213.925	0.15
214.309	0.22
214.692	0.21
215.076	0.23
215.459	0.11
215.842	0.02
216.226	0.2
216.609	0.27
216.993	0.16
217.376	0.28
217.759	0.16
218.142	0.31
218.525	0.43
218.909	0.26
219.292	0.32
219.675	0.33
220.058	0.33
220.441	0.38
220.824	0.46
221.207	0.46
221.59	0.48
221.973	0.52
222.355	0.55
222.738	0.59
223.121	0.64
223.504	0.47
223.886	0.63
224.269	0.74
224.652	0.57
225.034	0.75
225.417	0.71
225.799	0.78
226.182	0.83
226.564	0.86
226.947	0.69
227.329	0.75
227.711	0.84
228.094	0.94
228.476	0.79
228.858	0.81
229.24	0.78
229.623	0.87
230.005	0.76
230.387	0.77
230.769	0.71
231.151	0.85
231.533	0.86
231.915	0.86
232.297	0.96
232.679	0.87
233.061	0.93
233.442	1.01
233.824	0.97
234.206	1.05
234.588	1
234.969	1.06
235.351	0.89
235.733	1
236.114	1.08
236.496	1.02
236.877	1.08
237.259	0.98
237.64	1.05
238.022	0.94
238.403	0.9
238.784	1.02
239.165	0.96
239.547	1.07
239.928	0.91
240.309	1.12
240.69	1.04
241.071	1.12
241.452	1.16
241.834	0.94
242.215	1.14
242.595	1.08
242.976	1.12
243.357	1.09
243.738	0.95
244.119	1.1
244.5	1.08
244.881	1.14
245.261	1.11
245.642	1.26
246.023	1.23
246.403	1.14
246.784	1.25
247.164	1.31
247.545	1.33
247.925	1.27
248.306	1.22
248.686	1.25
249.067	1.26
249.447	1.39
249.827	1.43
250.207	1.59
250.588	1.26
250.968	1.72
251.348	1.43
251.728	1.33
252.108	1.29
252.488	1.36
252.868	1.32
253.248	1.28
253.628	1.31
254.008	1.47
254.388	1.21
254.768	1.23
255.147	1.37
255.527	1.33
255.907	1.25
256.287	1.38
256.666	1.34
257.046	1.49
257.425	1.49
257.805	1.28
258.184	1.32
258.564	1.25
258.943	1.32
259.323	1.43
259.702	1.35
260.081	1.35
260.461	1.42
260.84	1.5
261.219	1.6
261.598	1.41
261.977	1.34
262.356	1.44
262.736	1.53
263.115	1.4
263.494	1.39
263.873	1.42
264.251	1.51
264.63	1.55
265.009	1.39
265.388	1.3
265.767	1.34
266.145	1.36
266.524	1.36
266.903	1.37
267.281	1.42
267.66	1.42
268.039	1.44
268.417	1.33
268.796	1.38
269.174	1.42
269.552	1.36
269.931	1.33
270.309	1.27
270.687	1.44
271.066	1.54
271.444	1.36
271.822	1.43
272.2	1.45
272.578	1.37
272.956	1.28
273.334	1.31
273.712	1.4
274.09	1.4
274.468	1.21
274.846	1.3
275.224	1.3
275.602	1.33
275.98	1.61
276.357	1.34
276.735	1.38
277.113	1.35
277.49	1.37
277.868	1.21
278.246	1.22
278.623	1.31
279.001	1.27
279.378	1.36
279.756	1.36
280.133	1.49
280.51	1.3
280.888	1.39
281.265	1.33
281.642	1.45
282.019	1.58
282.396	1.58
282.773	1.44
283.151	1.45
283.528	1.52
283.905	1.31
284.282	1.38
284.659	1.39
285.035	1.34
285.412	1.31
285.789	1.47
286.166	1.32
286.543	1.4
286.919	1.48
287.296	1.46
287.673	1.71
288.049	1.48
288.426	1.6
288.802	1.43
289.179	1.44
289.555	1.72
289.932	1.38
290.308	1.27
290.684	1.29
291.061	1.37
291.437	1.53
291.813	1.33
292.189	1.35
292.565	1.32
292.942	1.27
293.318	1.35
293.694	1.39
294.07	1.31
294.446	1.45
294.822	1.38
295.197	1.38
295.573	1.46
295.949	1.43
296.325	1.39
296.701	1.59
297.076	1.49
297.452	1.49
297.828	1.42
298.203	1.51
298.579	1.38
298.954	1.45
299.33	1.44
299.705	1.56
300.081	1.53
300.456	1.43
300.831	1.43
301.206	1.4
301.582	1.51
301.957	1.41
302.332	1.47
302.707	1.4
303.082	1.37
303.457	1.5
303.832	1.58
304.207	1.55
304.582	1.4
304.957	1.52
305.332	1.51
305.707	1.55
306.082	1.51
306.456	1.63
306.831	1.42
307.206	1.42
307.58	1.48
307.955	1.47
308.33	1.59
308.704	1.48
309.079	1.48
309.453	1.47
309.828	1.56
310.202	1.44
310.576	1.43
310.951	1.61
311.325	1.46
311.699	1.55
312.073	1.45
312.447	1.45
312.821	1.33
313.196	1.58
313.57	1.42
313.944	1.43
314.317	1.32
314.691	1.6
315.065	1.66
315.439	1.52
315.813	1.48
316.187	1.47
316.56	1.62
316.934	1.6
317.308	1.6
317.681	1.48
318.055	1.49
318.428	1.39
318.802	1.52
319.175	1.46
319.549	1.5
319.922	1.36
320.295	1.39
320.669	1.52
321.042	1.5
321.415	1.83
321.788	1.53
322.162	1.4
322.535	1.64
322.908	1.53
323.281	1.43
323.654	1.7
324.027	1.48
324.4	1.55
324.773	1.48
325.145	1.47
325.518	1.6
325.891	1.44
326.264	1.76
326.636	1.35
327.009	1.34
327.382	1.49
327.754	1.59
328.127	1.42
328.499	1.46
328.872	1.4
329.244	1.48
329.616	1.5
329.989	1.49
330.361	1.49
330.733	1.43
331.106	1.34
331.478	1.62
331.85	1.44
332.222	1.46
332.594	1.37
332.966	1.45
333.338	1.58
333.71	1.55
334.082	1.71
334.454	1.46
334.826	1.48
335.197	1.45
335.569	1.38
335.941	1.41
336.312	1.5
336.684	1.53
337.056	1.4
337.427	1.51
337.799	1.57
338.17	1.51
338.542	1.4
338.913	1.58
339.284	1.58
339.656	1.48
340.027	1.51
340.398	1.61
340.769	1.45
341.141	1.59
341.512	1.5
341.883	1.51
342.254	1.44
342.625	1.48
342.996	1.45
343.367	1.53
343.738	1.5
344.108	1.39
344.479	1.56
344.85	1.34
345.221	1.47
345.591	1.43
345.962	1.46
346.333	1.38
346.703	1.31
347.074	1.37
347.444	1.28
347.815	1.32
348.185	1.36
348.556	1.31
348.926	1.33
349.296	1.28
349.666	1.39
350.037	1.24
350.407	1.31
350.777	1.29
351.147	1.31
351.517	1.32
351.887	1.31
352.257	1.38
352.627	1.34
352.997	1.25
353.367	1.4
353.737	1.35
354.106	1.29
354.476	1.34
354.846	1.37
355.216	1.32
355.585	1.3
355.955	1.24
356.324	1.36
356.694	1.28
357.063	1.2
357.433	1.15
357.802	1.19
358.171	1.21
358.541	1.19
358.91	1.15
359.279	1.11
359.648	1.08
360.017	1.09
360.387	1.07
360.756	1
361.125	1.02
361.494	1.02
361.863	0.93
362.231	0.91
362.6	0.94
362.969	0.87
363.338	0.87
363.707	0.88
364.075	0.85
364.444	0.79
364.813	0.79
365.181	0.76
365.55	0.78
365.918	0.73
366.287	0.7
366.655	0.7
367.024	0.7
367.392	0.69
367.76	0.64
368.128	0.63
368.497	0.62
368.865	0.59
369.233	0.58
369.601	0.58
369.969	0.55
370.337	0.53
370.705	0.54
371.073	0.52
371.441	0.51
371.809	0.5
372.177	0.49
372.544	0.49
372.912	0.47
373.28	0.45
373.647	0.44
374.015	0.45
374.383	0.43
374.75	0.43
375.118	0.41
375.485	0.4
375.853	0.39
376.22	0.37
376.587	0.35
376.955	0.37
377.322	0.36
377.689	0.34
378.056	0.33
378.423	0.34
378.79	0.35
379.157	0.33
379.524	0.33
379.891	0.32
380.258	0.31
380.625	0.3
380.992	0.3
381.359	0.28
381.726	0.3
382.092	0.26
382.459	0.28
382.826	0.27
383.192	0.26
383.559	0.25
383.925	0.28
384.292	0.26
384.658	0.27
385.025	0.24
385.391	0.25
385.757	0.26
386.123	0.26
386.49	0.26
386.856	0.25
387.222	0.24
387.588	0.23
387.954	0.24
388.32	0.24
388.686	0.23
389.052	0.22
389.418	0.23
389.784	0.23
390.15	0.22
390.515	0.22
390.881	0.22
391.247	0.22
391.613	0.22
391.978	0.21
392.344	0.22
392.709	0.21
393.075	0.21
393.44	0.2
393.806	0.2
394.171	0.2
394.536	0.21
394.902	0.2
395.267	0.19
395.632	0.19
395.997	0.2
396.362	0.19
396.727	0.2
397.092	0.2
397.457	0.19
397.822	0.19
398.187	0.2
398.552	0.19
398.917	0.17
399.282	0.19
399.646	0.17
400.011	0.19
400.376	0.18
400.74	0.19
401.105	0.18
401.47	0.18
401.834	0.17
402.199	0.18
402.563	0.16
402.927	0.16
403.292	0.19
403.656	0.18
404.02	0.18
404.384	0.17
404.749	0.18
405.113	0.17
405.477	0.17
405.841	0.15
406.205	0.16
406.569	0.16
406.933	0.16
407.296	0.17
407.66	0.18
408.024	0.16
408.388	0.17
408.752	0.15
409.115	0.15
409.479	0.15
409.842	0.13
410.206	0.15
410.569	0.15
410.933	0.15
411.296	0.15
411.66	0.15
412.023	0.14
412.386	0.15
412.749	0.14
413.113	0.14
413.476	0.12
413.839	0.14
414.202	0.12
414.565	0.12
414.928	0.13
415.291	0.13
415.654	0.12
416.017	0.14
416.38	0.12
416.742	0.11
417.105	0.11
417.468	0.12
417.83	0.12
418.193	0.12
418.556	0.13
418.918	0.11
419.281	0.12
419.643	0.12
420.005	0.12
420.368	0.12
420.73	0.1
421.092	0.11
421.455	0.09
421.817	0.1
422.179	0.1
422.541	0.1
422.903	0.1
423.265	0.11
423.627	0.09
423.989	0.11
424.351	0.1
424.713	0.11
425.075	0.09
425.436	0.09
425.798	0.09
426.16	0.11
426.521	0.11
426.883	0.1
427.245	0.09
427.606	0.09
427.967	0.1
428.329	0.09
428.69	0.11
429.052	0.1
429.413	0.1
429.774	0.09
430.135	0.09
430.497	0.09
430.858	0.08
431.219	0.07
431.58	0.1
431.941	0.08
432.302	0.09
432.663	0.08
433.024	0.1
433.384	0.11
433.745	0.09
434.106	0.09
434.467	0.1
434.827	0.1
435.188	0.1
435.548	0.1
435.909	0.08
436.269	0.1
436.63	0.09
436.99	0.09
437.351	0.11
437.711	0.09
438.071	0.08
438.431	0.08
438.792	0.09
439.152	0.09
439.512	0.08
439.872	0.09
440.232	0.09
440.592	0.1
440.952	0.09
441.312	0.09
441.671	0.08
442.031	0.09
442.391	0.08
442.751	0.09
443.11	0.08
443.47	0.07
443.83	0.08
444.189	0.08
444.549	0.08
444.908	0.09
445.267	0.08
445.627	0.07
445.986	0.06
446.345	0.07
446.705	0.08
447.064	0.08
447.423	0.08
447.782	0.08
448.141	0.07
448.5	0.06
448.859	0.08
449.218	0.07
449.577	0.08
449.936	0.08
450.295	0.09
450.653	0.08
451.012	0.08
451.371	0.09
451.729	0.08
452.088	0.08
452.447	0.09
452.805	0.09
453.163	0.08
453.522	0.09
453.88	0.07
454.239	0.07
454.597	0.08
454.955	0.08
455.313	0.08
455.671	0.08
456.029	0.08
456.388	0.07
456.746	0.07
457.104	0.06
457.461	0.06
457.819	0.07
458.177	0.06
458.535	0.06
458.893	0.06
459.25	0.05
459.608	0.07
459.966	0.06
460.323	0.05
460.681	0.05
461.038	0.06
461.396	0.06
461.753	0.06
462.111	0.05
462.468	0.05
462.825	0.05
463.182	0.06
463.54	0.05
463.897	0.06
464.254	0.06
464.611	0.06
464.968	0.06
465.325	0.06
465.682	0.05
466.039	0.05
466.395	0.05
466.752	0.05
467.109	0.05
467.466	0.06
467.822	0.05
468.179	0.05
468.535	0.05
468.892	0.05
469.248	0.05
469.605	0.06
469.961	0.05
470.318	0.06
470.674	0.06
471.03	0.05
471.386	0.06
471.743	0.06
472.099	0.06
472.455	0.05
472.811	0.04
473.167	0.05
473.523	0.04
473.879	0.04
474.235	0.04
474.59	0.04
474.946	0.04
475.302	0.05
475.657	0.04
476.013	0.05
476.369	0.04
476.724	0.05
477.08	0.05
477.435	0.04
477.791	0.04
478.146	0.05
478.501	0.04
478.857	0.05
479.212	0.04
479.567	0.04
479.922	0.04
480.277	0.04
480.632	0.04
480.987	0.05
481.342	0.04
481.697	0.04
482.052	0.04
482.407	0.04
482.762	0.04
483.116	0.04
483.471	0.04
483.826	0.03
484.18	0.04
484.535	0.03
484.89	0.03
485.244	0.04
485.598	0.04
485.953	0.04
486.307	0.04
486.661	0.04
487.016	0.04
487.37	0.05
487.724	0.04
488.078	0.05
488.432	0.04
488.786	0.04
489.14	0.04
489.494	0.04
489.848	0.04
490.202	0.04
490.556	0.04
490.91	0.03
491.263	0.04
491.617	0.04
491.971	0.04
492.324	0.04
492.678	0.05
493.031	0.04
493.385	0.04
493.738	0.04
494.091	0.04
494.445	0.04
494.798	0.04
495.151	0.04
495.504	0.04
495.857	0.04
496.21	0.04
496.564	0.04
496.916	0.04
497.269	0.03
497.622	0.04
497.975	0.04
498.328	0.05
498.681	0.04
499.033	0.04
499.386	0.04
499.739	0.03
500.091	0.03
500.444	0.04
500.796	0.03
501.149	0.03
501.501	0.04
501.854	0.03
502.206	0.03
502.558	0.04
502.91	0.04
503.263	0.03
503.615	0.04
503.967	0.03
504.319	0.04
504.671	0.03
505.023	0.03
505.375	0.03
505.726	0.03
506.078	0.04
506.43	0.03
506.782	0.03
507.133	0.03
507.485	0.03
507.837	0.04
508.188	0.03
508.54	0.04
508.891	0.04
509.243	0.03
509.594	0.04
509.945	0.03
510.296	0.03
510.648	0.04
510.999	0.03
511.35	0.03
511.701	0.04
512.052	0.04
512.403	0.03
512.754	0.03
513.105	0.03
513.456	0.03
513.807	0.03
514.157	0.03
514.508	0.03
514.859	0.03
515.209	0.03
515.56	0.03
515.91	0.02
516.261	0.03
516.611	0.02
516.962	0.02
517.312	0.02
517.662	0.02
518.013	0.03
518.363	0.03
518.713	0.03
519.063	0.03
519.413	0.02
519.763	0.02
520.113	0.03
520.463	0.02
520.813	0.03
521.163	0.03
521.512	0.03
521.862	0.03
522.212	0.03
522.562	0.03
522.911	0.02
523.261	0.02
523.61	0.03
523.96	0.03
524.309	0.03
524.658	0.03
525.008	0.03
525.357	0.02
525.706	0.03
526.056	0.02
526.405	0.03
526.754	0.03
527.103	0.03
527.452	0.02
527.801	0.03
528.15	0.03
528.499	0.03
528.847	0.03
529.196	0.03
529.545	0.03
529.893	0.04
530.242	0.03
530.591	0.03
530.939	0.04
531.288	0.03
531.636	0.04
531.985	0.03
532.333	0.04
532.681	0.03
533.029	0.03
533.378	0.03
533.726	0.04
534.074	0.04
534.422	0.03
534.77	0.04
535.118	0.03
535.466	0.03
535.814	0.03
536.162	0.03
536.509	0.04
536.857	0.03
537.205	0.03
537.552	0.03
537.9	0.03
538.248	0.03
538.595	0.02
538.943	0.03
539.29	0.03
539.637	0.03
539.985	0.03
540.332	0.03
540.679	0.03
541.026	0.02
541.373	0.03
541.721	0.01
542.068	0.02
542.415	0.02
542.762	0.02
543.108	0.02
543.455	0.01
543.802	0.02
544.149	0.01
544.496	0.02
544.842	0.02
545.189	0.02
545.535	0.01
545.882	0.02
546.228	0.01
546.575	0.01
546.921	0.01
547.267	0.01
547.614	0.01
547.96	0.02
548.306	0.01
548.652	0.01
548.998	0.01
549.344	0.01
549.69	0.02
550.036	0.01
550.382	0.02
550.728	0.01
551.074	0.02
551.42	0.02
551.765	0.02
552.111	0.02
552.457	0.02
552.802	0.02
553.148	0.02
553.493	0.02
553.839	0.02
554.184	0.03
554.529	0.02
554.875	0.02
555.22	0.03
555.565	0.02
555.91	0.02
556.255	0.02
556.6	0.02
556.945	0.02
557.29	0.03
557.635	0.02
557.98	0.02
558.325	0.02
558.67	0.02
559.014	0.02
559.359	0.03
559.704	0.02
560.048	0.01
560.393	0.02
560.737	0.01
561.082	0.01
561.426	0
561.77	0.01
562.115	0.01
562.459	0.01
562.803	0.01
563.147	0.01
563.491	0.01
563.835	0.02
564.179	0.01
564.523	0.01
564.867	0.01
565.211	0.02
565.555	0.02
565.899	0.02
566.242	0.02
566.586	0.01
566.93	0.01
567.273	0.02
567.617	0.02
567.96	0.02
568.304	0.02
568.647	0.01
568.99	0.03
569.334	0.03
569.677	0.01
570.02	0.03
570.363	0.03
570.706	0.01
571.049	0.02
571.392	0.02
571.735	0.01
572.078	0.01
572.421	0.03
572.764	0.02
573.106	0.01
573.449	0.01
573.792	0.01
574.134	0.01
574.477	0.01
574.819	0.02
575.162	0.01
575.504	0.01
575.847	0.01
576.189	0.02
576.531	0.02
576.873	0.02
577.215	0.02
577.558	0.02
577.9	0.01
578.242	0.01
578.584	0.01
578.926	0.02
579.267	0.01
579.609	0.02
579.951	0.01
580.293	0.02
580.634	0.02
580.976	0.01
581.318	0.02
581.659	0.01
582.001	0.02
582.342	0.01
582.683	0.02
583.025	0.01
583.366	0.01
583.707	0.02
584.049	0.01
584.39	0.01
584.731	0.01
585.072	0
585.413	0.02
585.754	0.02
586.095	0.01
586.435	0.02
586.776	0.02
587.117	0.02
587.458	0.02
587.798	0.02
588.139	0.02
588.48	0.01
588.82	0.01
589.161	0.01
589.501	0.01
589.841	0.01
590.182	0.02
590.522	0.01
590.862	0.02
591.202	0.01
591.542	0.01
591.882	0.01
592.222	0.01
592.562	0.01
592.902	0.01
593.242	0.01
593.582	0.02
593.922	0.01
594.261	0.01
594.601	0.01
594.941	0.01
595.28	0.02
595.62	0.01
595.959	0.01
596.299	0.01
596.638	0.01
596.977	0.01
597.317	0.02
597.656	0.01
597.995	0.01
598.334	0.01
598.673	0
599.012	0.01
599.351	0.02
599.69	0.01
600.029	0.01
600.368	0.01
600.707	0.01
601.046	0.01
601.384	0.02
601.723	0.02
602.061	0.01
602.4	0.01
602.738	0.02
603.077	0.01
603.415	0.01
603.754	0.01
604.092	0.01
604.43	0.01
604.768	0.02
605.107	0.02
605.445	0.01
605.783	0.01
606.121	0.01
606.459	0.01
606.796	0.02
607.134	0.01
607.472	0.01
607.81	0.02
608.148	0.01
608.485	0.01
608.823	0.01
609.16	0.01
609.498	0.02
609.835	0.01
610.173	0.01
610.51	0.01
610.847	0.02
611.185	0.02
611.522	0.03
611.859	0.02
612.196	0.02
612.533	0.02
612.87	0.02
613.207	0.03
613.544	0.02
613.881	0.03
614.217	0.02
614.554	0.02
614.891	0.02
615.228	0.02
615.564	0.02
615.901	0.03
616.237	0.03
616.574	0.02
616.91	0.03
617.246	0.02
617.583	0.03
617.919	0.03
618.255	0.03
618.591	0.03
618.927	0.03
619.263	0.03
619.599	0.03
619.935	0.03
620.271	0.03
620.607	0.03
620.943	0.02
621.279	0.03
621.614	0.02
621.95	0.03
622.286	0.02
622.621	0.02
622.957	0.02
623.292	0.02
623.627	0.02
623.963	0.02
624.298	0.02
624.633	0.02
624.968	0.02
625.304	0.02
625.639	0.02
625.974	0.02
626.309	0.01
626.644	0.02
626.979	0.02
627.313	0.02
627.648	0.01
627.983	0.02
628.318	0.01
628.652	0.02
628.987	0.02
629.321	0.01
629.656	0.02
629.99	0.01
630.325	0.02
630.659	0.02
630.993	0.01
631.327	0.02
631.662	0.01
631.996	0.02
632.33	0.02
632.664	0.02
632.998	0.01
633.332	0.02
633.666	0.02
633.999	0.02
634.333	0.02
634.667	0.01
635.001	0.01
635.334	0.01
635.668	0.01
636.001	0.01
636.335	0.01
636.668	0.02
637.001	0
637.335	0.01
637.668	0.01
638.001	0.01
638.334	0.01
638.668	0.01
639.001	0.01
639.334	0.01
639.667	0.01
639.999	0.01
640.332	0.01
640.665	0.01
640.998	0.01
641.331	0.01
641.663	-0
641.996	0
642.328	0.01
642.661	0.01
642.993	0.01
643.326	0.01
643.658	0.01
643.99	0.01
644.323	0.01
644.655	0.01
644.987	0.01
645.319	0.01
645.651	0.02
645.983	0.01
646.315	0.01
646.647	0.01
646.979	0.02
647.31	0.02
647.642	0.02
647.974	0.01
648.305	0.03
648.637	0.02
648.968	0.02
649.3	0.02
649.631	0.03
649.963	0.02
650.294	0.03
650.625	0.02
650.957	0.03
651.288	0.03
651.619	0.03
651.95	0.03
652.281	0.02
652.612	0.02
652.943	0.03
653.274	0.02
653.604	0.03
653.935	0.02
654.266	0.02
654.596	0.02
654.927	0.02
655.258	0.03
655.588	0.03
655.918	0.03
656.249	0.01
656.579	0.02
656.909	0.02
657.24	0.02
657.57	0.03
657.9	0.03
658.23	0.03
658.56	0.03
658.89	0.03
659.22	0.02
659.55	0.03
659.88	0.03
660.209	0.03
660.539	0.04
660.869	0.04
661.198	0.04
661.528	0.03
661.857	0.03
662.187	0.04
662.516	0.03
662.846	0.03
663.175	0.03
663.504	0.03
663.833	0.03
664.163	0.03
664.492	0.03
664.821	0.03
665.15	0.03
665.479	0.03
665.807	0.02
666.136	0.03
666.465	0.03
666.794	0.02
667.122	0.02
667.451	0.02
667.78	0.02
668.108	0.02
668.437	0.02
668.765	0.03
669.093	0.03
669.422	0.03
669.75	0.03
670.078	0.03
670.406	0.03
670.734	0.03
671.062	0.03
671.39	0.02
671.718	0.04
672.046	0.03
672.374	0.03
672.702	0.03
673.029	0.03
673.357	0.03
673.685	0.04
674.012	0.03
674.34	0.03
674.667	0.04
674.995	0.03
675.322	0.03
675.649	0.03
675.977	0.03
676.304	0.03
676.631	0.03
676.958	0.03
677.285	0.02
677.612	0.02
677.939	0.03
678.266	0.03
678.593	0.03
678.92	0.02
679.246	0.02
679.573	0.02
679.9	0.02
680.226	0.02
680.553	0.02
680.879	0.02
681.206	0.02
681.532	0.02
681.858	0.02
682.184	0.02
682.511	0.02
682.837	0.02
683.163	0.02
683.489	0.02
683.815	0.02
684.141	0.02
684.467	0.02
684.793	0.02
685.118	0.02
685.444	0.03
685.77	0.03
686.095	0.02
686.421	0.03
686.746	0.03
687.072	0.03
687.397	0.03
687.723	0.03
688.048	0.03
688.373	0.03
688.698	0.03
689.023	0.03
689.349	0.03
689.674	0.03
689.999	0.03
690.323	0.02
690.648	0.02
690.973	0.02
691.298	0.02
691.623	0.02
691.947	0.02
692.272	0.02
692.596	0.02
692.921	0.02
693.245	0.02
693.57	0.02
693.894	0.03
694.218	0.02
694.543	0.02
694.867	0.02
695.191	0.02
695.515	0.03
695.839	0.02
696.163	0.02
696.487	0.02
696.811	0.02
697.135	0.02
697.458	0.02
697.782	0.02
698.106	0.02
698.429	0.02
698.753	0.02
699.076	0.02
699.4	0.02
699.723	0.03
700.046	0.02
700.37	0.02
700.693	0.03
701.016	0.02
701.339	0.02
701.662	0.03
701.985	0.03
702.308	0.03
702.631	0.03
702.954	0.03
703.277	0.03
703.599	0.03
703.922	0.02
704.245	0.02
704.567	0.02
704.89	0.02
705.212	0.02
705.535	0.02
705.857	0.02
706.179	0.02
706.502	0.01
706.824	0.01
707.146	0.02
707.468	0.02
707.79	0.02
708.112	0.03
708.434	0.03
708.756	0.03
709.078	0.02
709.399	0.02
709.721	0.02
710.043	0.03
710.364	0.03
710.686	0.02
711.007	0.02
711.329	0.03
711.65	0.03
711.972	0.03
712.293	0.03
712.614	0.03
712.935	0.03
713.256	0.02
713.577	0.03
713.898	0.02
714.219	0.02
714.54	0.02
714.861	0.01
715.182	0.02
715.503	0.03
715.823	0.02
716.144	0.01
716.464	0.01
716.785	0.02
717.105	0.02
717.426	0.02
717.746	0.01
718.066	0.01
718.387	0.02
718.707	0.01
719.027	0.02
719.347	0.01
719.667	0.01
719.987	0
720.307	0.01
720.627	0.01
720.947	0.01
721.266	0.01
721.586	-0
721.906	0.02
722.225	0
722.545	0.01
722.864	0
723.184	0.01
723.503	0.01
723.823	0.01
724.142	0.01
724.461	0.01
724.78	0.01
725.099	0.01
725.418	0.02
725.737	0.01
726.056	0.01
726.375	0.02
726.694	0.01
727.013	0.02
727.331	0
727.65	0.01
727.969	0.02
728.287	0.01
728.606	0.01
728.924	0.02
729.242	0.02
729.561	0.03
729.879	0.02
730.197	0.01
730.515	0.02
730.834	0.01
731.152	0.02
731.47	0.02
731.788	0.01
732.105	0.01
732.423	0.01
732.741	0.01
733.059	0
733.376	0.01
733.694	0.01
734.012	0.01
734.329	0.02
734.647	0.02
734.964	0.02
735.281	0.02
735.599	0.02
735.916	0.02
736.233	0.01
736.55	0.01
736.867	0.02
737.184	0.03
737.501	0.01
737.818	0.02
738.135	0.02
738.452	0.02
738.768	0.02
739.085	0.02
739.402	0.02
739.718	0.02
740.035	0.03
740.351	0.02
740.668	0.03
740.984	0.02
741.3	0.02
741.617	0.02
741.933	0.02
742.249	0.03
742.565	0.02
742.881	0.03
743.197	0.03
743.513	0.02
743.829	0.01
744.144	0.02
744.46	0.03
744.776	0.03
745.091	0.03
745.407	0.02
745.722	0.02
746.038	0.03
746.353	0.02
746.669	0.03
746.984	0.02
747.299	0.03
747.614	0.03
747.93	0.03
748.245	0.02
748.56	0.02
748.875	0.03
749.189	0.03
749.504	0.03
749.819	0.03
750.134	0.02
750.448	0.03
750.763	0.03
751.078	0.02
751.392	0.03
751.707	0.04
752.021	0.03
752.335	0.03
752.65	0.03
752.964	0.03
753.278	0.03
753.592	0.02
753.906	0.03
754.22	0.03
754.534	0.02
754.848	0.03
755.162	0.03
755.476	0.03
755.789	0.03
756.103	0.02
756.417	0.02
756.73	0.03
757.044	0.03
757.357	0.03
757.671	0.03
757.984	0.03
758.297	0.03
758.61	0.04
758.924	0.04
759.237	0.03
759.55	0.03
759.863	0.03
760.176	0.03
760.488	0.04
760.801	0.03
761.114	0.03
761.427	0.03
761.739	0.03
762.052	0.02
762.365	0.03
762.677	0.03
762.99	0.02
763.302	0.02
763.614	0.03
763.926	0.03
764.239	0.02
764.551	0.02
764.863	0.03
765.175	0.03
765.487	0.03
765.799	0.02
766.111	0.02
766.423	0.02
766.734	0.03
767.046	0.02
767.358	0.03
767.669	0.03
767.981	0.03
768.292	0.03
768.604	0.02
768.915	0.02
769.226	0.02
769.537	0.01
769.849	0.02
770.16	0.02
770.471	0.01
770.782	0.02
771.093	0.02
771.404	0.01
771.715	0.02
772.025	0.02
772.336	0.02
772.647	0.02
772.957	0.02
773.268	0.02
773.578	0.01
773.889	0.02
774.199	0.03
774.51	0.02
774.82	0.01
775.13	0.03
775.44	0.02
775.75	0.02
776.06	0.02
776.37	0.02
776.68	0.02
776.99	0.02
777.3	0.02
777.61	0.03
777.92	0.02
778.229	0.02
778.539	0.03
778.848	0.03
779.158	0.03
779.467	0.02
779.777	0.03
780.086	0.03
780.395	0.02
780.704	0.03
781.013	0.02
781.323	0.01
781.632	0.02
781.941	0.03
782.249	0.03
782.558	0.02
782.867	0.02
783.176	0.02
783.485	0.02
783.793	0.02
784.102	0.03
784.41	0.02
784.719	0.02
785.027	0.02
785.335	0.02
785.644	0.02
785.952	0.02
786.26	0.02
786.568	0.02
786.876	0.01
787.184	0.02
787.492	0.02
787.8	0.02
788.108	0.03
788.416	0.02
788.723	0.01
789.031	0.02
789.338	0.02
789.646	0.02
789.953	0.03
790.261	0.03
790.568	0.02
790.876	0.02
791.183	0.02
791.49	0.02
791.797	0.02
792.104	0.02
792.411	0.03
792.718	0.02
793.025	0.02
793.332	0.02
793.639	0.03
793.945	0.03
794.252	0.03
794.559	0.02
794.865	0.04
795.172	0.03
795.478	0.04
795.784	0.03
796.091	0.03
796.397	0.04
796.703	0.03
797.009	0.04
797.315	0.03
797.622	0.03
797.927	0.04
798.233	0.03
798.539	0.03
798.845	0.03
799.151	0.03
799.456	0.03
799.762	0.03
800.068	0.03
800.373	0.03
800.679	0.03
800.984	0.02
801.289	0.03
801.595	0.02
801.9	0.03
802.205	0.03
802.51	0.02
802.815	0.02
803.12	0.02
803.425	0.03
803.73	0.03
804.035	0.03
804.339	0.02
804.644	0.02
804.949	0.03
805.253	0.02
805.558	0.03
805.862	0.02
806.167	0.03
806.471	0.02
806.775	0.03
807.08	0.03
807.384	0.03
807.688	0.03
807.992	0.03
808.296	0.03
808.6	0.03
808.904	0.04
809.207	0.03
809.511	0.04
809.815	0.04
810.119	0.04
810.422	0.03
810.726	0.04
811.029	0.04
811.332	0.04
811.636	0.04
811.939	0.03
812.242	0.04
812.546	0.04
812.849	0.04
813.152	0.04
813.455	0.04
813.758	0.04
814.06	0.04
814.363	0.04
814.666	0.04
814.969	0.04
815.271	0.04
815.574	0.04
815.877	0.03
816.179	0.03
816.481	0.03
816.784	0.03
817.086	0.03
817.388	0.03
817.69	0.02
817.993	0.02
818.295	0.03
818.597	0.01
818.899	0.02
819.2	0.02
819.502	0.02
819.804	0.02
820.106	0.01
820.407	0.01
820.709	0.02
821.01	0.01
821.312	0.02
821.613	0.02
821.915	0.02
822.216	0.02
822.517	0.01
822.818	0.01
823.119	0.01
823.42	0.02
823.721	0.01
824.022	0.01
824.323	0.02
824.624	0.01
824.925	0.03
825.226	0.03
825.526	0.02
825.827	0.02
826.127	0.02
826.428	0.03
826.728	0.03
827.028	0.03
827.329	0.02
827.629	0.02
827.929	0.03
828.229	0.03
828.529	0.02
828.829	0.02
829.129	0.02
829.429	0.02
829.729	0.02
830.029	0.02
830.328	0.02
830.628	0.02
830.927	0.01
831.227	0.01
831.526	0.02
831.826	0.02
832.125	0.02
832.424	0.02
832.724	0.02
833.023	0.02
833.322	0.02
833.621	0.01
833.92	0.01
834.219	0.02
834.518	0.02
834.816	0.01
835.115	0.02
835.414	0.01
835.712	0.01
836.011	0
836.309	0.01
836.608	0
836.906	0
837.205	-0.01
837.503	0
837.801	0
838.099	-0
838.397	-0.01
838.695	-0.01
838.993	0
839.291	-0.01
839.589	-0.01
839.887	-0.02
840.184	-0.02
840.482	-0.03
840.78	-0.02
841.077	-0.03
841.375	-0.03
841.672	-0.02
841.969	-0.03
842.267	-0.02
842.564	-0.04
842.861	-0.03
843.158	-0.04
843.455	-0.06
843.752	-0.05
844.049	-0.04
844.346	-0.04
844.643	-0.05
844.94	-0.05
845.236	-0.04
845.533	-0.05
845.83	-0.05
846.126	-0.05
846.423	-0.05
846.719	-0.06
847.015	-0.05
847.312	-0.05
847.608	-0.07
847.904	-0.07
848.2	-0.07
848.496	-0.07
848.792	-0.06
849.088	-0.06
849.384	-0.06
849.68	-0.07
849.975	-0.06
850.271	-0.07
850.567	-0.07
850.862	-0.06
851.158	-0.07
851.453	-0.07
851.748	-0.08
852.044	-0.07
852.339	-0.07
852.634	-0.09
852.929	-0.07
853.224	-0.08
853.519	-0.08
853.814	-0.08
854.109	-0.09
854.404	-0.07
854.699	-0.09
854.994	-0.08
855.288	-0.08
855.583	-0.08
855.877	-0.09
856.172	-0.08
856.466	-0.09
856.76	-0.09
857.055	-0.08
857.349	-0.11
857.643	-0.1
857.937	-0.11
858.231	-0.1
858.525	-0.11
858.819	-0.1
859.113	-0.11
859.407	-0.12
859.701	-0.11
859.994	-0.12
860.288	-0.1
860.581	-0.12
860.875	-0.12
861.168	-0.12
861.462	-0.13
861.755	-0.12
862.048	-0.12
862.341	-0.13
862.634	-0.12
862.928	-0.12
863.221	-0.12
863.513	-0.13
863.806	-0.13
864.099	-0.14
864.392	-0.13
864.685	-0.12
864.977	-0.13
865.27	-0.14
865.562	-0.13
865.855	-0.14
866.147	-0.13
866.44	-0.13
866.732	-0.14
867.024	-0.16
867.316	-0.14
867.608	-0.14
867.9	-0.15
868.192	-0.15
868.484	-0.15
868.776	-0.14
869.068	-0.15
869.359	-0.15
869.651	-0.15
869.943	-0.17
870.234	-0.16
870.526	-0.17
870.817	-0.17
871.108	-0.16
871.4	-0.15
871.691	-0.16
871.982	-0.17
872.273	-0.18
872.564	-0.17
872.855	-0.17
873.146	-0.18
873.437	-0.17
873.728	-0.19
874.019	-0.18
874.309	-0.18
874.6	-0.17
874.89	-0.18
875.181	-0.18
875.471	-0.18
875.762	-0.18
876.052	-0.18
876.342	-0.16
876.632	-0.18
876.922	-0.18
877.213	-0.18
877.503	-0.19
877.792	-0.18
878.082	-0.19
878.372	-0.18
878.662	-0.19
878.952	-0.19
879.241	-0.2
879.531	-0.18
879.82	-0.19
880.11	-0.18
880.399	-0.19
880.688	-0.18
880.978	-0.18
881.267	-0.18
