Data from 12-12-AQDScycling_Absorbance__705__00705.txt Node

Date: Tue Dec 12 13:52:59 EST 2023
User: kyuminlee
Spectrometer: FLMS00943
Trigger mode: 0
Integration Time (sec): 1.000000E-1
Scans to average: 1
Electric dark correction enabled: true
Nonlinearity correction enabled: false
Boxcar width: 0
XAxis mode: Wavelengths
Number of Pixels in Spectrum: 2048
>>>>>Begin Spectral Data<<<<<
179.651	-0.04
180.037	-0.04
180.424	-0.04
180.81	-0
181.197	0.04
181.583	0.03
181.97	0.02
182.356	-0.64
182.743	-1.12
183.129	0.65
183.515	0.37
183.901	-0
184.288	0.19
184.674	-0
185.06	-0
185.446	-0
185.832	0.4
186.218	-0.09
186.604	-0.17
186.99	-0
187.376	-0.01
187.762	0.34
188.148	-0
188.534	-0.01
188.92	0.26
189.305	0
189.691	0.07
190.077	0.14
190.463	0.13
190.848	0.12
191.234	-0.01
191.619	0.06
192.005	0.2
192.391	0.24
192.776	0.07
193.161	0.19
193.547	0.1
193.932	0.01
194.318	0.09
194.703	0.13
195.088	0.36
195.473	0.22
195.859	0.24
196.244	0.2
196.629	0.17
197.014	0.05
197.399	0.15
197.784	0.08
198.169	0.12
198.554	0.22
198.939	0.1
199.324	0.24
199.709	-0
200.094	0.11
200.478	0.18
200.863	0.32
201.248	0.13
201.633	0.22
202.017	0.12
202.402	0.2
202.787	0.07
203.171	0.1
203.556	0.04
203.94	0.32
204.325	0.17
204.709	0.15
205.093	0.13
205.478	0.12
205.862	0.11
206.246	0.21
206.631	0.06
207.015	0.05
207.399	0.17
207.783	0.07
208.167	0.11
208.551	0.33
208.935	0.25
209.319	0.14
209.703	0.18
210.087	0.24
210.471	0.14
210.855	0.12
211.239	0.17
211.623	0.21
212.007	0.28
212.39	0.2
212.774	-0
213.158	0.11
213.541	0.26
213.925	0.14
214.309	0.37
214.692	0.23
215.076	0.21
215.459	0.14
215.842	0.13
216.226	0.34
216.609	0.26
216.993	0.34
217.376	0.47
217.759	0.43
218.142	0.34
218.525	0.66
218.909	0.46
219.292	0.4
219.675	0.48
220.058	0.43
220.441	0.43
220.824	0.48
221.207	0.56
221.59	0.47
221.973	0.5
222.355	0.64
222.738	0.67
223.121	0.57
223.504	0.56
223.886	0.63
224.269	0.83
224.652	0.64
225.034	0.77
225.417	0.82
225.799	0.83
226.182	0.81
226.564	0.8
226.947	0.77
227.329	0.77
227.711	1.01
228.094	0.87
228.476	0.99
228.858	0.79
229.24	0.82
229.623	0.82
230.005	0.8
230.387	0.83
230.769	0.72
231.151	0.84
231.533	0.98
231.915	0.98
232.297	1.05
232.679	0.95
233.061	1.2
233.442	0.89
233.824	1.12
234.206	1.1
234.588	0.95
234.969	0.91
235.351	0.99
235.733	1.26
236.114	1.26
236.496	1.12
236.877	1.03
237.259	1.15
237.64	0.99
238.022	1.01
238.403	1.09
238.784	1.12
239.165	0.94
239.547	1.12
239.928	1.09
240.309	1.09
240.69	1.02
241.071	1.02
241.452	1.16
241.834	1.01
242.215	1.05
242.595	1.02
242.976	1.06
243.357	1.14
243.738	1
244.119	1.27
244.5	1.11
244.881	1.17
245.261	1.13
245.642	1.09
246.023	1.26
246.403	1.21
246.784	1.38
247.164	1.44
247.545	1.14
247.925	1.36
248.306	1.19
248.686	1.43
249.067	1.28
249.447	1.34
249.827	1.54
250.207	1.41
250.588	1.26
250.968	1.24
251.348	1.41
251.728	1.36
252.108	1.43
252.488	1.46
252.868	1.38
253.248	1.34
253.628	1.48
254.008	1.35
254.388	1.3
254.768	1.36
255.147	1.35
255.527	1.37
255.907	1.36
256.287	1.39
256.666	1.4
257.046	1.51
257.425	1.44
257.805	1.31
258.184	1.37
258.564	1.4
258.943	1.25
259.323	1.31
259.702	1.45
260.081	1.42
260.461	1.45
260.84	1.34
261.219	1.73
261.598	1.45
261.977	1.64
262.356	1.49
262.736	1.5
263.115	1.61
263.494	1.44
263.873	1.49
264.251	1.47
264.63	1.56
265.009	1.57
265.388	1.36
265.767	1.43
266.145	1.46
266.524	1.45
266.903	1.32
267.281	1.41
267.66	1.54
268.039	1.34
268.417	1.42
268.796	1.27
269.174	1.4
269.552	1.32
269.931	1.49
270.309	1.29
270.687	1.62
271.066	1.49
271.444	1.42
271.822	1.36
272.2	1.47
272.578	1.41
272.956	1.46
273.334	1.38
273.712	1.45
274.09	1.55
274.468	1.34
274.846	1.38
275.224	1.39
275.602	1.42
275.98	1.51
276.357	1.32
276.735	1.45
277.113	1.43
277.49	1.29
277.868	1.26
278.246	1.36
278.623	1.3
279.001	1.31
279.378	1.49
279.756	1.7
280.133	1.76
280.51	1.36
280.888	1.37
281.265	1.28
281.642	1.44
282.019	1.42
282.396	1.54
282.773	1.4
283.151	1.48
283.528	1.42
283.905	1.44
284.282	1.39
284.659	1.43
285.035	1.36
285.412	1.23
285.789	1.46
286.166	1.45
286.543	1.36
286.919	1.55
287.296	1.4
287.673	1.67
288.049	1.7
288.426	1.65
288.802	1.36
289.179	1.46
289.555	1.62
289.932	1.41
290.308	1.38
290.684	1.39
291.061	1.28
291.437	1.45
291.813	1.36
292.189	1.22
292.565	1.35
292.942	1.36
293.318	1.25
293.694	1.33
294.07	1.33
294.446	1.39
294.822	1.54
295.197	1.42
295.573	1.34
295.949	1.52
296.325	1.53
296.701	1.65
297.076	1.59
297.452	1.48
297.828	1.43
298.203	1.6
298.579	1.45
298.954	1.6
299.33	1.51
299.705	1.43
300.081	1.54
300.456	1.61
300.831	1.39
301.206	1.46
301.582	1.57
301.957	1.57
302.332	1.48
302.707	1.47
303.082	1.56
303.457	1.53
303.832	1.68
304.207	1.52
304.582	1.34
304.957	1.51
305.332	1.66
305.707	1.57
306.082	1.56
306.456	1.73
306.831	1.48
307.206	1.53
307.58	1.55
307.955	1.61
308.33	1.58
308.704	1.54
309.079	1.45
309.453	1.65
309.828	1.52
310.202	1.47
310.576	1.56
310.951	1.64
311.325	1.73
311.699	1.43
312.073	1.34
312.447	1.6
312.821	1.41
313.196	1.44
313.57	1.44
313.944	1.4
314.317	1.61
314.691	1.38
315.065	1.51
315.439	1.53
315.813	1.62
316.187	1.42
316.56	1.66
316.934	1.72
317.308	1.5
317.681	1.54
318.055	1.57
318.428	1.58
318.802	1.58
319.175	1.54
319.549	1.46
319.922	1.41
320.295	1.39
320.669	1.5
321.042	1.55
321.415	1.78
321.788	1.53
322.162	1.63
322.535	1.55
322.908	1.47
323.281	1.48
323.654	1.42
324.027	1.55
324.4	1.51
324.773	1.55
325.145	1.52
325.518	1.5
325.891	1.42
326.264	1.52
326.636	1.49
327.009	1.46
327.382	1.57
327.754	1.41
328.127	1.47
328.499	1.59
328.872	1.44
329.244	1.41
329.616	1.38
329.989	1.48
330.361	1.56
330.733	1.46
331.106	1.43
331.478	1.55
331.85	1.45
332.222	1.45
332.594	1.44
332.966	1.49
333.338	1.63
333.71	1.56
334.082	1.68
334.454	1.5
334.826	1.51
335.197	1.53
335.569	1.35
335.941	1.42
336.312	1.51
336.684	1.63
337.056	1.57
337.427	1.56
337.799	1.55
338.17	1.55
338.542	1.43
338.913	1.59
339.284	1.78
339.656	1.55
340.027	1.57
340.398	1.52
340.769	1.45
341.141	1.74
341.512	1.62
341.883	1.6
342.254	1.56
342.625	1.62
342.996	1.5
343.367	1.58
343.738	1.54
344.108	1.49
344.479	1.54
344.85	1.39
345.221	1.56
345.591	1.36
345.962	1.31
346.333	1.48
346.703	1.3
347.074	1.37
347.444	1.34
347.815	1.38
348.185	1.32
348.556	1.32
348.926	1.3
349.296	1.57
349.666	1.31
350.037	1.28
350.407	1.28
350.777	1.31
351.147	1.37
351.517	1.42
351.887	1.37
352.257	1.37
352.627	1.25
352.997	1.27
353.367	1.33
353.737	1.41
354.106	1.33
354.476	1.25
354.846	1.32
355.216	1.35
355.585	1.34
355.955	1.35
356.324	1.29
356.694	1.23
357.063	1.25
357.433	1.2
357.802	1.29
358.171	1.24
358.541	1.16
358.91	1.18
359.279	1.19
359.648	1.08
360.017	1.12
360.387	1.07
360.756	1.02
361.125	1.03
361.494	1.03
361.863	0.98
362.231	0.98
362.6	0.94
362.969	0.93
363.338	0.91
363.707	0.91
364.075	0.92
364.444	0.85
364.813	0.82
365.181	0.8
365.55	0.79
365.918	0.79
366.287	0.79
366.655	0.75
367.024	0.72
367.392	0.72
367.76	0.68
368.128	0.66
368.497	0.66
368.865	0.63
369.233	0.63
369.601	0.6
369.969	0.58
370.337	0.59
370.705	0.57
371.073	0.54
371.441	0.53
371.809	0.55
372.177	0.53
372.544	0.52
372.912	0.5
373.28	0.52
373.647	0.5
374.015	0.49
374.383	0.47
374.75	0.47
375.118	0.45
375.485	0.46
375.853	0.44
376.22	0.41
376.587	0.4
376.955	0.43
377.322	0.4
377.689	0.39
378.056	0.39
378.423	0.38
378.79	0.39
379.157	0.39
379.524	0.36
379.891	0.38
380.258	0.36
380.625	0.34
380.992	0.34
381.359	0.33
381.726	0.36
382.092	0.33
382.459	0.34
382.826	0.33
383.192	0.31
383.559	0.31
383.925	0.31
384.292	0.31
384.658	0.33
385.025	0.29
385.391	0.31
385.757	0.31
386.123	0.3
386.49	0.31
386.856	0.32
387.222	0.28
387.588	0.29
387.954	0.3
388.32	0.3
388.686	0.28
389.052	0.27
389.418	0.28
389.784	0.28
390.15	0.26
390.515	0.27
390.881	0.29
391.247	0.3
391.613	0.27
391.978	0.26
392.344	0.28
392.709	0.27
393.075	0.26
393.44	0.26
393.806	0.26
394.171	0.26
394.536	0.26
394.902	0.25
395.267	0.24
395.632	0.25
395.997	0.24
396.362	0.25
396.727	0.26
397.092	0.25
397.457	0.23
397.822	0.24
398.187	0.25
398.552	0.24
398.917	0.23
399.282	0.24
399.646	0.22
400.011	0.24
400.376	0.24
400.74	0.25
401.105	0.25
401.47	0.24
401.834	0.23
402.199	0.22
402.563	0.21
402.927	0.21
403.292	0.23
403.656	0.24
404.02	0.24
404.384	0.23
404.749	0.23
405.113	0.22
405.477	0.21
405.841	0.21
406.205	0.21
406.569	0.2
406.933	0.21
407.296	0.2
407.66	0.23
408.024	0.21
408.388	0.21
408.752	0.21
409.115	0.2
409.479	0.2
409.842	0.21
410.206	0.19
410.569	0.21
410.933	0.21
411.296	0.2
411.66	0.19
412.023	0.18
412.386	0.19
412.749	0.2
413.113	0.2
413.476	0.17
413.839	0.17
414.202	0.18
414.565	0.17
414.928	0.19
415.291	0.17
415.654	0.18
416.017	0.18
416.38	0.16
416.742	0.16
417.105	0.15
417.468	0.17
417.83	0.18
418.193	0.17
418.556	0.17
418.918	0.17
419.281	0.16
419.643	0.16
420.005	0.17
420.368	0.18
420.73	0.16
421.092	0.16
421.455	0.15
421.817	0.15
422.179	0.14
422.541	0.15
422.903	0.15
423.265	0.16
423.627	0.14
423.989	0.15
424.351	0.14
424.713	0.15
425.075	0.13
425.436	0.14
425.798	0.13
426.16	0.15
426.521	0.14
426.883	0.16
427.245	0.14
427.606	0.13
427.967	0.14
428.329	0.14
428.69	0.14
429.052	0.15
429.413	0.15
429.774	0.13
430.135	0.13
430.497	0.13
430.858	0.12
431.219	0.11
431.58	0.13
431.941	0.13
432.302	0.14
432.663	0.13
433.024	0.14
433.384	0.13
433.745	0.12
434.106	0.13
434.467	0.13
434.827	0.14
435.188	0.14
435.548	0.14
435.909	0.13
436.269	0.14
436.63	0.12
436.99	0.13
437.351	0.13
437.711	0.13
438.071	0.13
438.431	0.13
438.792	0.12
439.152	0.12
439.512	0.13
439.872	0.13
440.232	0.13
440.592	0.13
440.952	0.13
441.312	0.12
441.671	0.12
442.031	0.12
442.391	0.12
442.751	0.12
443.11	0.12
443.47	0.1
443.83	0.12
444.189	0.11
444.549	0.12
444.908	0.12
445.267	0.11
445.627	0.11
445.986	0.09
446.345	0.1
446.705	0.11
447.064	0.1
447.423	0.1
447.782	0.1
448.141	0.1
448.5	0.1
448.859	0.12
449.218	0.1
449.577	0.1
449.936	0.11
450.295	0.11
450.653	0.1
451.012	0.11
451.371	0.11
451.729	0.11
452.088	0.12
452.447	0.12
452.805	0.12
453.163	0.11
453.522	0.12
453.88	0.1
454.239	0.11
454.597	0.11
454.955	0.1
455.313	0.1
455.671	0.11
456.029	0.1
456.388	0.1
456.746	0.1
457.104	0.1
457.461	0.09
457.819	0.09
458.177	0.09
458.535	0.09
458.893	0.09
459.25	0.09
459.608	0.09
459.966	0.08
460.323	0.09
460.681	0.08
461.038	0.09
461.396	0.08
461.753	0.08
462.111	0.08
462.468	0.07
462.825	0.08
463.182	0.09
463.54	0.07
463.897	0.08
464.254	0.08
464.611	0.08
464.968	0.08
465.325	0.08
465.682	0.08
466.039	0.09
466.395	0.08
466.752	0.08
467.109	0.08
467.466	0.08
467.822	0.08
468.179	0.07
468.535	0.07
468.892	0.07
469.248	0.08
469.605	0.07
469.961	0.07
470.318	0.08
470.674	0.08
471.03	0.07
471.386	0.08
471.743	0.07
472.099	0.07
472.455	0.07
472.811	0.07
473.167	0.08
473.523	0.06
473.879	0.07
474.235	0.07
474.59	0.07
474.946	0.07
475.302	0.07
475.657	0.07
476.013	0.06
476.369	0.06
476.724	0.07
477.08	0.07
477.435	0.06
477.791	0.06
478.146	0.07
478.501	0.07
478.857	0.07
479.212	0.07
479.567	0.06
479.922	0.06
480.277	0.06
480.632	0.06
480.987	0.06
481.342	0.06
481.697	0.05
482.052	0.06
482.407	0.06
482.762	0.06
483.116	0.06
483.471	0.05
483.826	0.05
484.18	0.05
484.535	0.05
484.89	0.05
485.244	0.06
485.598	0.06
485.953	0.06
486.307	0.06
486.661	0.06
487.016	0.05
487.37	0.06
487.724	0.05
488.078	0.05
488.432	0.06
488.786	0.05
489.14	0.05
489.494	0.05
489.848	0.05
490.202	0.05
490.556	0.05
490.91	0.05
491.263	0.05
491.617	0.05
491.971	0.05
492.324	0.05
492.678	0.05
493.031	0.06
493.385	0.06
493.738	0.05
494.091	0.05
494.445	0.06
494.798	0.05
495.151	0.05
495.504	0.05
495.857	0.05
496.21	0.05
496.564	0.05
496.916	0.05
497.269	0.04
497.622	0.05
497.975	0.05
498.328	0.05
498.681	0.05
499.033	0.05
499.386	0.04
499.739	0.04
500.091	0.04
500.444	0.04
500.796	0.04
501.149	0.04
501.501	0.05
501.854	0.05
502.206	0.05
502.558	0.04
502.91	0.05
503.263	0.05
503.615	0.05
503.967	0.05
504.319	0.05
504.671	0.05
505.023	0.04
505.375	0.04
505.726	0.05
506.078	0.05
506.43	0.05
506.782	0.04
507.133	0.04
507.485	0.04
507.837	0.06
508.188	0.04
508.54	0.05
508.891	0.05
509.243	0.04
509.594	0.04
509.945	0.04
510.296	0.04
510.648	0.04
510.999	0.04
511.35	0.04
511.701	0.05
512.052	0.05
512.403	0.05
512.754	0.05
513.105	0.04
513.456	0.05
513.807	0.04
514.157	0.04
514.508	0.05
514.859	0.04
515.209	0.05
515.56	0.04
515.91	0.04
516.261	0.05
516.611	0.04
516.962	0.04
517.312	0.04
517.662	0.05
518.013	0.04
518.363	0.05
518.713	0.05
519.063	0.05
519.413	0.05
519.763	0.04
520.113	0.04
520.463	0.05
520.813	0.05
521.163	0.05
521.512	0.05
521.862	0.05
522.212	0.05
522.562	0.05
522.911	0.05
523.261	0.05
523.61	0.05
523.96	0.05
524.309	0.05
524.658	0.05
525.008	0.05
525.357	0.04
525.706	0.05
526.056	0.04
526.405	0.04
526.754	0.05
527.103	0.04
527.452	0.04
527.801	0.04
528.15	0.05
528.499	0.05
528.847	0.05
529.196	0.05
529.545	0.06
529.893	0.06
530.242	0.05
530.591	0.06
530.939	0.06
531.288	0.05
531.636	0.06
531.985	0.06
532.333	0.05
532.681	0.05
533.029	0.05
533.378	0.05
533.726	0.05
534.074	0.06
534.422	0.05
534.77	0.05
535.118	0.05
535.466	0.05
535.814	0.05
536.162	0.05
536.509	0.06
536.857	0.04
537.205	0.06
537.552	0.06
537.9	0.05
538.248	0.05
538.595	0.05
538.943	0.05
539.29	0.06
539.637	0.06
539.985	0.05
540.332	0.05
540.679	0.05
541.026	0.05
541.373	0.05
541.721	0.04
542.068	0.05
542.415	0.05
542.762	0.04
543.108	0.04
543.455	0.04
543.802	0.04
544.149	0.05
544.496	0.05
544.842	0.04
545.189	0.03
545.535	0.03
545.882	0.04
546.228	0.03
546.575	0.03
546.921	0.03
547.267	0.03
547.614	0.04
547.96	0.03
548.306	0.04
548.652	0.03
548.998	0.04
549.344	0.03
549.69	0.04
550.036	0.03
550.382	0.03
550.728	0.04
551.074	0.04
551.42	0.04
551.765	0.04
552.111	0.04
552.457	0.04
552.802	0.04
553.148	0.04
553.493	0.03
553.839	0.04
554.184	0.05
554.529	0.03
554.875	0.04
555.22	0.05
555.565	0.04
555.91	0.04
556.255	0.05
556.6	0.05
556.945	0.03
557.29	0.04
557.635	0.04
557.98	0.04
558.325	0.04
558.67	0.04
559.014	0.05
559.359	0.04
559.704	0.05
560.048	0.03
560.393	0.04
560.737	0.03
561.082	0.04
561.426	0.03
561.77	0.03
562.115	0.03
562.459	0.03
562.803	0.04
563.147	0.03
563.491	0.04
563.835	0.05
564.179	0.04
564.523	0.04
564.867	0.03
565.211	0.04
565.555	0.04
565.899	0.04
566.242	0.04
566.586	0.03
566.93	0.04
567.273	0.04
567.617	0.04
567.96	0.04
568.304	0.05
568.647	0.04
568.99	0.05
569.334	0.05
569.677	0.04
570.02	0.04
570.363	0.05
570.706	0.04
571.049	0.05
571.392	0.05
571.735	0.04
572.078	0.05
572.421	0.05
572.764	0.05
573.106	0.04
573.449	0.04
573.792	0.04
574.134	0.04
574.477	0.05
574.819	0.04
575.162	0.04
575.504	0.04
575.847	0.04
576.189	0.04
576.531	0.03
576.873	0.04
577.215	0.04
577.558	0.04
577.9	0.03
578.242	0.04
578.584	0.03
578.926	0.04
579.267	0.04
579.609	0.04
579.951	0.04
580.293	0.04
580.634	0.04
580.976	0.04
581.318	0.04
581.659	0.03
582.001	0.04
582.342	0.03
582.683	0.04
583.025	0.03
583.366	0.04
583.707	0.04
584.049	0.03
584.39	0.03
584.731	0.03
585.072	0.03
585.413	0.04
585.754	0.04
586.095	0.04
586.435	0.04
586.776	0.04
587.117	0.04
587.458	0.04
587.798	0.04
588.139	0.03
588.48	0.03
588.82	0.03
589.161	0.03
589.501	0.03
589.841	0.04
590.182	0.04
590.522	0.03
590.862	0.04
591.202	0.03
591.542	0.04
591.882	0.04
592.222	0.04
592.562	0.03
592.902	0.04
593.242	0.03
593.582	0.04
593.922	0.04
594.261	0.03
594.601	0.03
594.941	0.04
595.28	0.03
595.62	0.04
595.959	0.03
596.299	0.03
596.638	0.03
596.977	0.04
597.317	0.04
597.656	0.04
597.995	0.04
598.334	0.05
598.673	0.04
599.012	0.04
599.351	0.05
599.69	0.04
600.029	0.04
600.368	0.05
600.707	0.05
601.046	0.05
601.384	0.04
601.723	0.05
602.061	0.04
602.4	0.04
602.738	0.04
603.077	0.05
603.415	0.03
603.754	0.04
604.092	0.04
604.43	0.04
604.768	0.04
605.107	0.05
605.445	0.04
605.783	0.04
606.121	0.03
606.459	0.04
606.796	0.04
607.134	0.03
607.472	0.04
607.81	0.04
608.148	0.03
608.485	0.04
608.823	0.04
609.16	0.04
609.498	0.04
609.835	0.03
610.173	0.03
610.51	0.04
610.847	0.04
611.185	0.04
611.522	0.04
611.859	0.05
612.196	0.04
612.533	0.04
612.87	0.05
613.207	0.05
613.544	0.05
613.881	0.06
614.217	0.05
614.554	0.05
614.891	0.05
615.228	0.04
615.564	0.05
615.901	0.05
616.237	0.05
616.574	0.04
616.91	0.06
617.246	0.05
617.583	0.05
617.919	0.05
618.255	0.06
618.591	0.05
618.927	0.05
619.263	0.06
619.599	0.05
619.935	0.05
620.271	0.05
620.607	0.05
620.943	0.05
621.279	0.05
621.614	0.05
621.95	0.05
622.286	0.05
622.621	0.04
622.957	0.05
623.292	0.05
623.627	0.05
623.963	0.04
624.298	0.05
624.633	0.04
624.968	0.05
625.304	0.05
625.639	0.05
625.974	0.04
626.309	0.04
626.644	0.04
626.979	0.05
627.313	0.05
627.648	0.04
627.983	0.05
628.318	0.04
628.652	0.04
628.987	0.04
629.321	0.05
629.656	0.04
629.99	0.03
630.325	0.04
630.659	0.04
630.993	0.03
631.327	0.04
631.662	0.03
631.996	0.03
632.33	0.03
632.664	0.04
632.998	0.03
633.332	0.04
633.666	0.04
633.999	0.04
634.333	0.03
634.667	0.03
635.001	0.03
635.334	0.03
635.668	0.03
636.001	0.03
636.335	0.04
636.668	0.03
637.001	0.03
637.335	0.03
637.668	0.03
638.001	0.03
638.334	0.04
638.668	0.03
639.001	0.03
639.334	0.03
639.667	0.03
639.999	0.03
640.332	0.03
640.665	0.03
640.998	0.04
641.331	0.04
641.663	0.04
641.996	0.04
642.328	0.04
642.661	0.04
642.993	0.04
643.326	0.04
643.658	0.04
643.99	0.03
644.323	0.04
644.655	0.04
644.987	0.04
645.319	0.04
645.651	0.04
645.983	0.04
646.315	0.04
646.647	0.04
646.979	0.05
647.31	0.05
647.642	0.04
647.974	0.04
648.305	0.04
648.637	0.04
648.968	0.04
649.3	0.04
649.631	0.05
649.963	0.04
650.294	0.04
650.625	0.04
650.957	0.04
651.288	0.04
651.619	0.04
651.95	0.05
652.281	0.05
652.612	0.04
652.943	0.05
653.274	0.05
653.604	0.05
653.935	0.04
654.266	0.05
654.596	0.05
654.927	0.05
655.258	0.04
655.588	0.05
655.918	0.05
656.249	0.03
656.579	0.04
656.909	0.04
657.24	0.04
657.57	0.05
657.9	0.04
658.23	0.04
658.56	0.05
658.89	0.05
659.22	0.04
659.55	0.04
659.88	0.04
660.209	0.04
660.539	0.05
660.869	0.05
661.198	0.05
661.528	0.04
661.857	0.04
662.187	0.04
662.516	0.04
662.846	0.04
663.175	0.04
663.504	0.04
663.833	0.04
664.163	0.05
664.492	0.04
664.821	0.05
665.15	0.04
665.479	0.04
665.807	0.04
666.136	0.04
666.465	0.05
666.794	0.05
667.122	0.05
667.451	0.04
667.78	0.05
668.108	0.05
668.437	0.04
668.765	0.05
669.093	0.05
669.422	0.04
669.75	0.05
670.078	0.05
670.406	0.05
670.734	0.05
671.062	0.05
671.39	0.05
671.718	0.05
672.046	0.05
672.374	0.04
672.702	0.05
673.029	0.04
673.357	0.04
673.685	0.05
674.012	0.05
674.34	0.04
674.667	0.05
674.995	0.05
675.322	0.05
675.649	0.04
675.977	0.05
676.304	0.05
676.631	0.05
676.958	0.04
677.285	0.04
677.612	0.04
677.939	0.04
678.266	0.05
678.593	0.04
678.92	0.04
679.246	0.04
679.573	0.04
679.9	0.04
680.226	0.05
680.553	0.04
680.879	0.04
681.206	0.05
681.532	0.04
681.858	0.04
682.184	0.05
682.511	0.04
682.837	0.05
683.163	0.05
683.489	0.05
683.815	0.05
684.141	0.05
684.467	0.05
684.793	0.04
685.118	0.05
685.444	0.05
685.77	0.05
686.095	0.05
686.421	0.04
686.746	0.05
687.072	0.05
687.397	0.04
687.723	0.05
688.048	0.05
688.373	0.05
688.698	0.04
689.023	0.04
689.349	0.04
689.674	0.04
689.999	0.04
690.323	0.04
690.648	0.04
690.973	0.03
691.298	0.04
691.623	0.04
691.947	0.04
692.272	0.04
692.596	0.05
692.921	0.05
693.245	0.05
693.57	0.05
693.894	0.05
694.218	0.05
694.543	0.05
694.867	0.06
695.191	0.04
695.515	0.06
695.839	0.04
696.163	0.05
696.487	0.05
696.811	0.05
697.135	0.05
697.458	0.05
697.782	0.05
698.106	0.05
698.429	0.05
698.753	0.04
699.076	0.05
699.4	0.04
699.723	0.04
700.046	0.04
700.37	0.05
700.693	0.05
701.016	0.05
701.339	0.05
701.662	0.05
701.985	0.05
702.308	0.04
702.631	0.05
702.954	0.05
703.277	0.05
703.599	0.05
703.922	0.04
704.245	0.04
704.567	0.04
704.89	0.05
705.212	0.04
705.535	0.04
705.857	0.04
706.179	0.03
706.502	0.04
706.824	0.03
707.146	0.03
707.468	0.05
707.79	0.04
708.112	0.05
708.434	0.05
708.756	0.04
709.078	0.05
709.399	0.04
709.721	0.05
710.043	0.05
710.364	0.05
710.686	0.05
711.007	0.04
711.329	0.06
711.65	0.05
711.972	0.05
712.293	0.05
712.614	0.05
712.935	0.05
713.256	0.05
713.577	0.05
713.898	0.05
714.219	0.05
714.54	0.05
714.861	0.04
715.182	0.04
715.503	0.04
715.823	0.05
716.144	0.04
716.464	0.03
716.785	0.03
717.105	0.04
717.426	0.04
717.746	0.04
718.066	0.03
718.387	0.03
718.707	0.03
719.027	0.05
719.347	0.02
719.667	0.04
719.987	0.03
720.307	0.03
720.627	0.04
720.947	0.04
721.266	0.04
721.586	0.03
721.906	0.04
722.225	0.04
722.545	0.03
722.864	0.03
723.184	0.04
723.503	0.04
723.823	0.05
724.142	0.04
724.461	0.03
724.78	0.04
725.099	0.05
725.418	0.05
725.737	0.04
726.056	0.04
726.375	0.04
726.694	0.05
727.013	0.04
727.331	0.03
727.65	0.04
727.969	0.05
728.287	0.04
728.606	0.04
728.924	0.04
729.242	0.04
729.561	0.03
729.879	0.04
730.197	0.04
730.515	0.04
730.834	0.03
731.152	0.04
731.47	0.04
731.788	0.05
732.105	0.04
732.423	0.04
732.741	0.04
733.059	0.04
733.376	0.05
733.694	0.04
734.012	0.03
734.329	0.04
734.647	0.04
734.964	0.05
735.281	0.05
735.599	0.05
735.916	0.05
736.233	0.04
736.55	0.05
736.867	0.05
737.184	0.05
737.501	0.05
737.818	0.04
738.135	0.05
738.452	0.04
738.768	0.05
739.085	0.05
739.402	0.03
739.718	0.05
740.035	0.04
740.351	0.05
740.668	0.04
740.984	0.04
741.3	0.04
741.617	0.04
741.933	0.04
742.249	0.05
742.565	0.04
742.881	0.05
743.197	0.05
743.513	0.04
743.829	0.04
744.144	0.03
744.46	0.05
744.776	0.05
745.091	0.04
745.407	0.04
745.722	0.03
746.038	0.04
746.353	0.03
746.669	0.04
746.984	0.03
747.299	0.04
747.614	0.04
747.93	0.04
748.245	0.04
748.56	0.04
748.875	0.03
749.189	0.03
749.504	0.04
749.819	0.04
750.134	0.03
750.448	0.04
750.763	0.03
751.078	0.03
751.392	0.03
751.707	0.05
752.021	0.04
752.335	0.04
752.65	0.04
752.964	0.04
753.278	0.05
753.592	0.04
753.906	0.04
754.22	0.04
754.534	0.04
754.848	0.04
755.162	0.04
755.476	0.05
755.789	0.04
756.103	0.03
756.417	0.05
756.73	0.04
757.044	0.05
757.357	0.05
757.671	0.04
757.984	0.04
758.297	0.05
758.61	0.05
758.924	0.04
759.237	0.04
759.55	0.04
759.863	0.04
760.176	0.05
760.488	0.04
760.801	0.04
761.114	0.04
761.427	0.05
761.739	0.05
762.052	0.03
762.365	0.03
762.677	0.04
762.99	0.03
763.302	0.04
763.614	0.04
763.926	0.04
764.239	0.03
764.551	0.03
764.863	0.04
765.175	0.04
765.487	0.04
765.799	0.03
766.111	0.03
766.423	0.05
766.734	0.04
767.046	0.03
767.358	0.04
767.669	0.04
767.981	0.04
768.292	0.04
768.604	0.04
768.915	0.04
769.226	0.04
769.537	0.03
769.849	0.04
770.16	0.04
770.471	0.04
770.782	0.04
771.093	0.04
771.404	0.02
771.715	0.03
772.025	0.04
772.336	0.04
772.647	0.03
772.957	0.04
773.268	0.05
773.578	0.04
773.889	0.05
774.199	0.05
774.51	0.05
774.82	0.04
775.13	0.05
775.44	0.04
775.75	0.04
776.06	0.05
776.37	0.04
776.68	0.05
776.99	0.04
777.3	0.04
777.61	0.05
777.92	0.04
778.229	0.04
778.539	0.04
778.848	0.04
779.158	0.05
779.467	0.04
779.777	0.04
780.086	0.05
780.395	0.04
780.704	0.04
781.013	0.03
781.323	0.04
781.632	0.03
781.941	0.04
782.249	0.04
782.558	0.03
782.867	0.04
783.176	0.03
783.485	0.04
783.793	0.04
784.102	0.04
784.41	0.03
784.719	0.03
785.027	0.04
785.335	0.04
785.644	0.04
785.952	0.03
786.26	0.04
786.568	0.03
786.876	0.04
787.184	0.04
787.492	0.04
787.8	0.04
788.108	0.04
788.416	0.03
788.723	0.04
789.031	0.03
789.338	0.03
789.646	0.04
789.953	0.04
790.261	0.05
790.568	0.04
790.876	0.04
791.183	0.05
791.49	0.04
791.797	0.04
792.104	0.04
792.411	0.05
792.718	0.03
793.025	0.04
793.332	0.04
793.639	0.05
793.945	0.05
794.252	0.04
794.559	0.05
794.865	0.05
795.172	0.05
795.478	0.05
795.784	0.04
796.091	0.05
796.397	0.05
796.703	0.06
797.009	0.06
797.315	0.05
797.622	0.05
797.927	0.05
798.233	0.05
798.539	0.06
798.845	0.05
799.151	0.05
799.456	0.05
799.762	0.05
800.068	0.05
800.373	0.06
800.679	0.05
800.984	0.05
801.289	0.05
801.595	0.05
801.9	0.05
802.205	0.05
802.51	0.05
802.815	0.06
803.12	0.05
803.425	0.06
803.73	0.04
804.035	0.05
804.339	0.05
804.644	0.05
804.949	0.05
805.253	0.04
805.558	0.05
805.862	0.04
806.167	0.05
806.471	0.04
806.775	0.04
807.08	0.05
807.384	0.04
807.688	0.04
807.992	0.05
808.296	0.04
808.6	0.05
808.904	0.05
809.207	0.05
809.511	0.05
809.815	0.06
810.119	0.05
810.422	0.05
810.726	0.06
811.029	0.05
811.332	0.05
811.636	0.06
811.939	0.05
812.242	0.06
812.546	0.06
812.849	0.05
813.152	0.06
813.455	0.06
813.758	0.06
814.06	0.06
814.363	0.06
814.666	0.07
814.969	0.06
815.271	0.06
815.574	0.06
815.877	0.06
816.179	0.05
816.481	0.05
816.784	0.06
817.086	0.06
817.388	0.04
817.69	0.05
817.993	0.04
818.295	0.04
818.597	0.04
818.899	0.04
819.2	0.04
819.502	0.04
819.804	0.04
820.106	0.04
820.407	0.04
820.709	0.04
821.01	0.04
821.312	0.04
821.613	0.04
821.915	0.03
822.216	0.04
822.517	0.04
822.818	0.04
823.119	0.03
823.42	0.04
823.721	0.02
824.022	0.03
824.323	0.04
824.624	0.04
824.925	0.04
825.226	0.05
825.526	0.04
825.827	0.04
826.127	0.04
826.428	0.04
826.728	0.03
827.028	0.04
827.329	0.03
827.629	0.02
827.929	0.03
828.229	0.03
828.529	0.04
828.829	0.03
829.129	0.02
829.429	0.03
829.729	0.03
830.029	0.03
830.328	0.03
830.628	0.02
830.927	0.02
831.227	0.03
831.526	0.03
831.826	0.03
832.125	0.03
832.424	0.02
832.724	0.03
833.023	0.03
833.322	0.04
833.621	0.02
833.92	0.02
834.219	0.02
834.518	0.02
834.816	0.01
835.115	0.03
835.414	0.02
835.712	0.01
836.011	0.02
836.309	0.01
836.608	0.01
836.906	0.01
837.205	0
837.503	-0
837.801	-0
838.099	-0.01
838.397	-0.01
838.695	-0
838.993	0
839.291	-0.01
839.589	-0.01
839.887	-0.01
840.184	-0.01
840.482	-0.01
840.78	-0.01
841.077	-0.02
841.375	-0.01
841.672	-0.01
841.969	-0.01
842.267	-0.01
842.564	-0.01
842.861	-0.01
843.158	-0.02
843.455	-0.03
843.752	-0.02
844.049	-0.03
844.346	-0.02
844.643	-0.03
844.94	-0.03
845.236	-0.02
845.533	-0.02
845.83	-0.03
846.126	-0.03
846.423	-0.02
846.719	-0.03
847.015	-0.03
847.312	-0.03
847.608	-0.04
847.904	-0.04
848.2	-0.04
848.496	-0.03
848.792	-0.03
849.088	-0.02
849.384	-0.03
849.68	-0.03
849.975	-0.04
850.271	-0.04
850.567	-0.04
850.862	-0.04
851.158	-0.04
851.453	-0.05
851.748	-0.05
852.044	-0.05
852.339	-0.04
852.634	-0.06
852.929	-0.05
853.224	-0.06
853.519	-0.06
853.814	-0.05
854.109	-0.06
854.404	-0.06
854.699	-0.06
854.994	-0.05
855.288	-0.05
855.583	-0.05
855.877	-0.06
856.172	-0.06
856.466	-0.07
856.76	-0.07
857.055	-0.07
857.349	-0.07
857.643	-0.09
857.937	-0.09
858.231	-0.08
858.525	-0.08
858.819	-0.09
859.113	-0.1
859.407	-0.1
859.701	-0.11
859.994	-0.11
860.288	-0.09
860.581	-0.1
860.875	-0.1
861.168	-0.11
861.462	-0.11
861.755	-0.11
862.048	-0.11
862.341	-0.11
862.634	-0.11
862.928	-0.1
863.221	-0.11
863.513	-0.12
863.806	-0.12
864.099	-0.12
864.392	-0.11
864.685	-0.11
864.977	-0.11
865.27	-0.12
865.562	-0.12
865.855	-0.12
866.147	-0.12
866.44	-0.11
866.732	-0.12
867.024	-0.13
867.316	-0.13
867.608	-0.13
867.9	-0.13
868.192	-0.12
868.484	-0.12
868.776	-0.14
869.068	-0.12
869.359	-0.12
869.651	-0.13
869.943	-0.14
870.234	-0.13
870.526	-0.15
870.817	-0.14
871.108	-0.13
871.4	-0.14
871.691	-0.14
871.982	-0.15
872.273	-0.16
872.564	-0.15
872.855	-0.15
873.146	-0.16
873.437	-0.16
873.728	-0.16
874.019	-0.15
874.309	-0.16
874.6	-0.15
874.89	-0.16
875.181	-0.16
875.471	-0.15
875.762	-0.16
876.052	-0.15
876.342	-0.15
876.632	-0.15
876.922	-0.17
877.213	-0.17
877.503	-0.18
877.792	-0.16
878.082	-0.17
878.372	-0.16
878.662	-0.19
878.952	-0.18
879.241	-0.18
879.531	-0.16
879.82	-0.18
880.11	-0.16
880.399	-0.17
880.688	-0.14
880.978	-0.14
881.267	-0.14
