Data from 12-12-AQDScycling_Absorbance__216__00216.txt Node

Date: Tue Dec 12 11:52:27 EST 2023
User: kyuminlee
Spectrometer: FLMS00943
Trigger mode: 0
Integration Time (sec): 1.000000E-1
Scans to average: 1
Electric dark correction enabled: true
Nonlinearity correction enabled: false
Boxcar width: 0
XAxis mode: Wavelengths
Number of Pixels in Spectrum: 2048
>>>>>Begin Spectral Data<<<<<
179.651	0.39
180.037	0.39
180.424	0.39
180.81	0.46
181.197	0.4
181.583	-0.48
181.97	-0.2
182.356	-0
182.743	-1.06
183.129	1.07
183.515	0.56
183.901	-2
184.288	0.15
184.674	-0
185.06	-0
185.446	-0
185.832	-0.61
186.218	0.24
186.604	-0
186.99	-0
187.376	-0
187.762	-0.58
188.148	1.12
188.534	-0.25
188.92	0.06
189.305	0.12
189.691	0.23
190.077	0.19
190.463	-0.02
190.848	-0.02
191.234	0.1
191.619	0.03
192.005	0.13
192.391	0.19
192.776	0.09
193.161	0.05
193.547	0.2
193.932	0.18
194.318	0.05
194.703	0.12
195.088	0.15
195.473	0.1
195.859	0.1
196.244	0.18
196.629	0.12
197.014	0.19
197.399	0.06
197.784	0.16
198.169	0.21
198.554	0.24
198.939	0.05
199.324	0.08
199.709	0.06
200.094	0.06
200.478	0.02
200.863	0.14
201.248	0.11
201.633	0.23
202.017	0.11
202.402	0.09
202.787	0.11
203.171	0.21
203.556	0.16
203.94	0.18
204.325	0.27
204.709	0.19
205.093	0.02
205.478	0.18
205.862	0.2
206.246	0.1
206.631	-0.01
207.015	0.08
207.399	0.11
207.783	0.08
208.167	0.16
208.551	0.16
208.935	0.18
209.319	0.04
209.703	0.1
210.087	0.33
210.471	0.05
210.855	0.1
211.239	0.15
211.623	0.23
212.007	0.24
212.39	0.22
212.774	0.25
213.158	0.19
213.541	0.17
213.925	0.18
214.309	0.32
214.692	0.32
215.076	0.21
215.459	0.13
215.842	0.13
216.226	0.18
216.609	0.28
216.993	0.11
217.376	0.53
217.759	0.27
218.142	0.26
218.525	0.53
218.909	0.3
219.292	0.32
219.675	0.51
220.058	0.43
220.441	0.61
220.824	0.47
221.207	0.62
221.59	0.52
221.973	0.49
222.355	0.52
222.738	0.64
223.121	0.54
223.504	0.56
223.886	0.63
224.269	0.66
224.652	0.59
225.034	0.78
225.417	0.77
225.799	0.72
226.182	0.77
226.564	0.75
226.947	0.89
227.329	0.8
227.711	1.18
228.094	0.93
228.476	1
228.858	0.87
229.24	0.76
229.623	0.86
230.005	0.76
230.387	0.84
230.769	0.8
231.151	1
231.533	0.97
231.915	0.9
232.297	0.88
232.679	0.89
233.061	0.89
233.442	0.99
233.824	1.06
234.206	1.07
234.588	0.95
234.969	1.09
235.351	1.04
235.733	1.11
236.114	1.15
236.496	0.97
236.877	1.03
237.259	1.02
237.64	1.03
238.022	0.98
238.403	0.93
238.784	1.04
239.165	0.88
239.547	1.02
239.928	1.01
240.309	1.02
240.69	0.97
241.071	1.02
241.452	1.08
241.834	0.98
242.215	1.06
242.595	1.08
242.976	1.06
243.357	1.1
243.738	1.03
244.119	1.14
244.5	1.12
244.881	1.36
245.261	1.12
245.642	1.12
246.023	1.13
246.403	1.19
246.784	1.17
247.164	1.31
247.545	1.25
247.925	1.17
248.306	1.18
248.686	1.38
249.067	1.33
249.447	1.28
249.827	1.47
250.207	1.42
250.588	1.28
250.968	1.4
251.348	1.33
251.728	1.5
252.108	1.32
252.488	1.37
252.868	1.37
253.248	1.23
253.628	1.37
254.008	1.51
254.388	1.28
254.768	1.4
255.147	1.43
255.527	1.39
255.907	1.32
256.287	1.33
256.666	1.31
257.046	1.49
257.425	1.4
257.805	1.36
258.184	1.33
258.564	1.38
258.943	1.36
259.323	1.46
259.702	1.51
260.081	1.42
260.461	1.47
260.84	1.41
261.219	1.56
261.598	1.45
261.977	1.45
262.356	1.48
262.736	1.51
263.115	1.6
263.494	1.39
263.873	1.39
264.251	1.38
264.63	1.44
265.009	1.4
265.388	1.4
265.767	1.27
266.145	1.49
266.524	1.3
266.903	1.45
267.281	1.34
267.66	1.47
268.039	1.35
268.417	1.36
268.796	1.37
269.174	1.43
269.552	1.31
269.931	1.5
270.309	1.23
270.687	1.55
271.066	1.61
271.444	1.25
271.822	1.41
272.2	1.32
272.578	1.32
272.956	1.41
273.334	1.24
273.712	1.33
274.09	1.49
274.468	1.32
274.846	1.28
275.224	1.36
275.602	1.48
275.98	1.52
276.357	1.41
276.735	1.38
277.113	1.41
277.49	1.33
277.868	1.25
278.246	1.49
278.623	1.36
279.001	1.27
279.378	1.36
279.756	1.45
280.133	1.59
280.51	1.44
280.888	1.36
281.265	1.33
281.642	1.4
282.019	1.53
282.396	1.5
282.773	1.46
283.151	1.46
283.528	1.35
283.905	1.27
284.282	1.63
284.659	1.46
285.035	1.34
285.412	1.28
285.789	1.54
286.166	1.4
286.543	1.26
286.919	1.51
287.296	1.32
287.673	1.67
288.049	1.43
288.426	1.5
288.802	1.41
289.179	1.47
289.555	1.54
289.932	1.56
290.308	1.33
290.684	1.51
291.061	1.34
291.437	1.52
291.813	1.32
292.189	1.31
292.565	1.32
292.942	1.34
293.318	1.46
293.694	1.34
294.07	1.24
294.446	1.33
294.822	1.48
295.197	1.43
295.573	1.51
295.949	1.39
296.325	1.47
296.701	1.4
297.076	1.56
297.452	1.56
297.828	1.54
298.203	1.54
298.579	1.5
298.954	1.4
299.33	1.49
299.705	1.47
300.081	1.58
300.456	1.51
300.831	1.39
301.206	1.47
301.582	1.54
301.957	1.41
302.332	1.53
302.707	1.42
303.082	1.46
303.457	1.52
303.832	1.42
304.207	1.41
304.582	1.46
304.957	1.48
305.332	1.5
305.707	1.54
306.082	1.51
306.456	1.68
306.831	1.6
307.206	1.54
307.58	1.6
307.955	1.42
308.33	1.45
308.704	1.46
309.079	1.48
309.453	1.58
309.828	1.48
310.202	1.49
310.576	1.45
310.951	1.52
311.325	1.51
311.699	1.58
312.073	1.45
312.447	1.5
312.821	1.4
313.196	1.56
313.57	1.4
313.944	1.43
314.317	1.38
314.691	1.54
315.065	1.52
315.439	1.59
315.813	1.6
316.187	1.46
316.56	1.7
316.934	1.58
317.308	1.36
317.681	1.51
318.055	1.44
318.428	1.49
318.802	1.63
319.175	1.51
319.549	1.51
319.922	1.35
320.295	1.44
320.669	1.56
321.042	1.55
321.415	1.72
321.788	1.47
322.162	1.48
322.535	1.55
322.908	1.58
323.281	1.6
323.654	1.73
324.027	1.44
324.4	1.64
324.773	1.53
325.145	1.63
325.518	1.52
325.891	1.49
326.264	1.62
326.636	1.33
327.009	1.43
327.382	1.43
327.754	1.54
328.127	1.45
328.499	1.49
328.872	1.45
329.244	1.52
329.616	1.45
329.989	1.33
330.361	1.5
330.733	1.38
331.106	1.31
331.478	1.59
331.85	1.53
332.222	1.31
332.594	1.46
332.966	1.5
333.338	1.66
333.71	1.6
334.082	1.58
334.454	1.5
334.826	1.5
335.197	1.55
335.569	1.57
335.941	1.33
336.312	1.45
336.684	1.55
337.056	1.44
337.427	1.5
337.799	1.57
338.17	1.56
338.542	1.45
338.913	1.64
339.284	1.52
339.656	1.51
340.027	1.53
340.398	1.64
340.769	1.69
341.141	1.68
341.512	1.46
341.883	1.72
342.254	1.41
342.625	1.49
342.996	1.4
343.367	1.42
343.738	1.5
344.108	1.4
344.479	1.44
344.85	1.39
345.221	1.54
345.591	1.39
345.962	1.54
346.333	1.46
346.703	1.37
347.074	1.46
347.444	1.33
347.815	1.42
348.185	1.47
348.556	1.35
348.926	1.36
349.296	1.5
349.666	1.39
350.037	1.26
350.407	1.29
350.777	1.31
351.147	1.28
351.517	1.27
351.887	1.35
352.257	1.39
352.627	1.23
352.997	1.29
353.367	1.34
353.737	1.4
354.106	1.33
354.476	1.26
354.846	1.39
355.216	1.37
355.585	1.44
355.955	1.32
356.324	1.27
356.694	1.25
357.063	1.26
357.433	1.15
357.802	1.2
358.171	1.29
358.541	1.16
358.91	1.21
359.279	1.17
359.648	1.13
360.017	1.17
360.387	1.1
360.756	1.05
361.125	1.09
361.494	1.09
361.863	0.97
362.231	0.97
362.6	1
362.969	1.01
363.338	0.97
363.707	0.97
364.075	0.95
364.444	0.85
364.813	0.88
365.181	0.87
365.55	0.86
365.918	0.86
366.287	0.84
366.655	0.8
367.024	0.81
367.392	0.8
367.76	0.75
368.128	0.74
368.497	0.73
368.865	0.73
369.233	0.71
369.601	0.73
369.969	0.68
370.337	0.72
370.705	0.65
371.073	0.67
371.441	0.64
371.809	0.67
372.177	0.67
372.544	0.63
372.912	0.62
373.28	0.61
373.647	0.62
374.015	0.6
374.383	0.62
374.75	0.6
375.118	0.59
375.485	0.58
375.853	0.56
376.22	0.55
376.587	0.57
376.955	0.56
377.322	0.54
377.689	0.54
378.056	0.53
378.423	0.52
378.79	0.55
379.157	0.53
379.524	0.52
379.891	0.53
380.258	0.5
380.625	0.52
380.992	0.52
381.359	0.5
381.726	0.53
382.092	0.52
382.459	0.51
382.826	0.51
383.192	0.49
383.559	0.52
383.925	0.48
384.292	0.49
384.658	0.51
385.025	0.48
385.391	0.52
385.757	0.49
386.123	0.52
386.49	0.49
386.856	0.5
387.222	0.5
387.588	0.49
387.954	0.51
388.32	0.52
388.686	0.49
389.052	0.48
389.418	0.5
389.784	0.49
390.15	0.49
390.515	0.48
390.881	0.52
391.247	0.5
391.613	0.51
391.978	0.5
392.344	0.5
392.709	0.5
393.075	0.49
393.44	0.49
393.806	0.48
394.171	0.48
394.536	0.47
394.902	0.47
395.267	0.47
395.632	0.48
395.997	0.46
396.362	0.47
396.727	0.48
397.092	0.49
397.457	0.47
397.822	0.46
398.187	0.45
398.552	0.46
398.917	0.45
399.282	0.45
399.646	0.45
400.011	0.46
400.376	0.45
400.74	0.46
401.105	0.44
401.47	0.46
401.834	0.42
402.199	0.43
402.563	0.41
402.927	0.43
403.292	0.43
403.656	0.42
404.02	0.42
404.384	0.42
404.749	0.41
405.113	0.4
405.477	0.41
405.841	0.4
406.205	0.41
406.569	0.4
406.933	0.37
407.296	0.38
407.66	0.39
408.024	0.39
408.388	0.39
408.752	0.38
409.115	0.37
409.479	0.36
409.842	0.36
410.206	0.37
410.569	0.37
410.933	0.36
411.296	0.35
411.66	0.35
412.023	0.37
412.386	0.36
412.749	0.35
413.113	0.35
413.476	0.33
413.839	0.34
414.202	0.33
414.565	0.33
414.928	0.34
415.291	0.33
415.654	0.32
416.017	0.32
416.38	0.32
416.742	0.32
417.105	0.31
417.468	0.33
417.83	0.32
418.193	0.32
418.556	0.32
418.918	0.31
419.281	0.3
419.643	0.3
420.005	0.3
420.368	0.29
420.73	0.3
421.092	0.31
421.455	0.29
421.817	0.27
422.179	0.3
422.541	0.28
422.903	0.29
423.265	0.29
423.627	0.29
423.989	0.29
424.351	0.29
424.713	0.29
425.075	0.28
425.436	0.27
425.798	0.27
426.16	0.3
426.521	0.29
426.883	0.3
427.245	0.27
427.606	0.25
427.967	0.27
428.329	0.28
428.69	0.28
429.052	0.27
429.413	0.29
429.774	0.27
430.135	0.27
430.497	0.26
430.858	0.27
431.219	0.26
431.58	0.27
431.941	0.27
432.302	0.27
432.663	0.27
433.024	0.27
433.384	0.27
433.745	0.26
434.106	0.26
434.467	0.28
434.827	0.27
435.188	0.26
435.548	0.28
435.909	0.26
436.269	0.28
436.63	0.25
436.99	0.26
437.351	0.26
437.711	0.26
438.071	0.24
438.431	0.27
438.792	0.24
439.152	0.25
439.512	0.26
439.872	0.26
440.232	0.27
440.592	0.26
440.952	0.24
441.312	0.25
441.671	0.24
442.031	0.24
442.391	0.24
442.751	0.24
443.11	0.25
443.47	0.25
443.83	0.23
444.189	0.22
444.549	0.24
444.908	0.23
445.267	0.23
445.627	0.23
445.986	0.22
446.345	0.22
446.705	0.22
447.064	0.22
447.423	0.22
447.782	0.22
448.141	0.23
448.5	0.21
448.859	0.23
449.218	0.21
449.577	0.23
449.936	0.22
450.295	0.22
450.653	0.22
451.012	0.22
451.371	0.23
451.729	0.22
452.088	0.23
452.447	0.22
452.805	0.22
453.163	0.21
453.522	0.22
453.88	0.21
454.239	0.22
454.597	0.2
454.955	0.21
455.313	0.2
455.671	0.2
456.029	0.19
456.388	0.19
456.746	0.21
457.104	0.19
457.461	0.18
457.819	0.19
458.177	0.17
458.535	0.18
458.893	0.18
459.25	0.18
459.608	0.18
459.966	0.17
460.323	0.17
460.681	0.16
461.038	0.17
461.396	0.17
461.753	0.16
462.111	0.16
462.468	0.16
462.825	0.16
463.182	0.16
463.54	0.16
463.897	0.17
464.254	0.16
464.611	0.16
464.968	0.15
465.325	0.15
465.682	0.15
466.039	0.15
466.395	0.15
466.752	0.15
467.109	0.14
467.466	0.15
467.822	0.15
468.179	0.14
468.535	0.13
468.892	0.15
469.248	0.14
469.605	0.13
469.961	0.15
470.318	0.15
470.674	0.15
471.03	0.15
471.386	0.15
471.743	0.14
472.099	0.14
472.455	0.13
472.811	0.13
473.167	0.13
473.523	0.13
473.879	0.12
474.235	0.12
474.59	0.12
474.946	0.12
475.302	0.12
475.657	0.11
476.013	0.12
476.369	0.12
476.724	0.12
477.08	0.12
477.435	0.11
477.791	0.11
478.146	0.12
478.501	0.11
478.857	0.12
479.212	0.11
479.567	0.11
479.922	0.1
480.277	0.11
480.632	0.11
480.987	0.11
481.342	0.1
481.697	0.1
482.052	0.1
482.407	0.09
482.762	0.1
483.116	0.1
483.471	0.09
483.826	0.09
484.18	0.09
484.535	0.09
484.89	0.09
485.244	0.09
485.598	0.1
485.953	0.09
486.307	0.09
486.661	0.1
487.016	0.09
487.37	0.09
487.724	0.09
488.078	0.09
488.432	0.09
488.786	0.09
489.14	0.09
489.494	0.09
489.848	0.08
490.202	0.08
490.556	0.09
490.91	0.08
491.263	0.08
491.617	0.09
491.971	0.09
492.324	0.08
492.678	0.08
493.031	0.09
493.385	0.08
493.738	0.08
494.091	0.09
494.445	0.08
494.798	0.08
495.151	0.08
495.504	0.08
495.857	0.08
496.21	0.08
496.564	0.08
496.916	0.08
497.269	0.07
497.622	0.08
497.975	0.08
498.328	0.08
498.681	0.08
499.033	0.08
499.386	0.08
499.739	0.08
500.091	0.07
500.444	0.07
500.796	0.07
501.149	0.07
501.501	0.07
501.854	0.07
502.206	0.07
502.558	0.08
502.91	0.08
503.263	0.07
503.615	0.07
503.967	0.07
504.319	0.07
504.671	0.06
505.023	0.07
505.375	0.06
505.726	0.07
506.078	0.07
506.43	0.06
506.782	0.06
507.133	0.07
507.485	0.07
507.837	0.07
508.188	0.07
508.54	0.06
508.891	0.07
509.243	0.06
509.594	0.07
509.945	0.07
510.296	0.07
510.648	0.06
510.999	0.06
511.35	0.06
511.701	0.07
512.052	0.07
512.403	0.06
512.754	0.06
513.105	0.06
513.456	0.06
513.807	0.06
514.157	0.07
514.508	0.06
514.859	0.05
515.209	0.06
515.56	0.07
515.91	0.06
516.261	0.06
516.611	0.06
516.962	0.05
517.312	0.06
517.662	0.06
518.013	0.06
518.363	0.06
518.713	0.05
519.063	0.06
519.413	0.06
519.763	0.06
520.113	0.06
520.463	0.06
520.813	0.06
521.163	0.07
521.512	0.06
521.862	0.06
522.212	0.06
522.562	0.06
522.911	0.06
523.261	0.06
523.61	0.06
523.96	0.06
524.309	0.07
524.658	0.06
525.008	0.06
525.357	0.06
525.706	0.06
526.056	0.06
526.405	0.06
526.754	0.06
527.103	0.06
527.452	0.06
527.801	0.06
528.15	0.06
528.499	0.06
528.847	0.06
529.196	0.07
529.545	0.06
529.893	0.07
530.242	0.07
530.591	0.07
530.939	0.07
531.288	0.07
531.636	0.07
531.985	0.07
532.333	0.07
532.681	0.07
533.029	0.06
533.378	0.07
533.726	0.07
534.074	0.07
534.422	0.07
534.77	0.07
535.118	0.07
535.466	0.06
535.814	0.06
536.162	0.07
536.509	0.07
536.857	0.07
537.205	0.07
537.552	0.06
537.9	0.07
538.248	0.06
538.595	0.07
538.943	0.07
539.29	0.06
539.637	0.06
539.985	0.07
540.332	0.06
540.679	0.06
541.026	0.06
541.373	0.06
541.721	0.06
542.068	0.06
542.415	0.06
542.762	0.05
543.108	0.05
543.455	0.05
543.802	0.05
544.149	0.05
544.496	0.05
544.842	0.05
545.189	0.04
545.535	0.05
545.882	0.05
546.228	0.05
546.575	0.05
546.921	0.05
547.267	0.05
547.614	0.05
547.96	0.05
548.306	0.05
548.652	0.04
548.998	0.06
549.344	0.06
549.69	0.05
550.036	0.06
550.382	0.05
550.728	0.05
551.074	0.06
551.42	0.06
551.765	0.06
552.111	0.06
552.457	0.07
552.802	0.06
553.148	0.06
553.493	0.06
553.839	0.06
554.184	0.06
554.529	0.05
554.875	0.06
555.22	0.06
555.565	0.06
555.91	0.06
556.255	0.06
556.6	0.06
556.945	0.05
557.29	0.05
557.635	0.07
557.98	0.06
558.325	0.05
558.67	0.05
559.014	0.06
559.359	0.06
559.704	0.05
560.048	0.04
560.393	0.05
560.737	0.05
561.082	0.05
561.426	0.04
561.77	0.05
562.115	0.05
562.459	0.05
562.803	0.05
563.147	0.05
563.491	0.05
563.835	0.05
564.179	0.05
564.523	0.05
564.867	0.05
565.211	0.06
565.555	0.06
565.899	0.05
566.242	0.06
566.586	0.05
566.93	0.06
567.273	0.06
567.617	0.05
567.96	0.05
568.304	0.06
568.647	0.05
568.99	0.06
569.334	0.06
569.677	0.05
570.02	0.05
570.363	0.05
570.706	0.06
571.049	0.05
571.392	0.05
571.735	0.05
572.078	0.05
572.421	0.05
572.764	0.05
573.106	0.05
573.449	0.05
573.792	0.05
574.134	0.05
574.477	0.06
574.819	0.05
575.162	0.05
575.504	0.05
575.847	0.06
576.189	0.06
576.531	0.06
576.873	0.06
577.215	0.06
577.558	0.06
577.9	0.06
578.242	0.05
578.584	0.05
578.926	0.05
579.267	0.05
579.609	0.05
579.951	0.05
580.293	0.05
580.634	0.05
580.976	0.05
581.318	0.05
581.659	0.05
582.001	0.05
582.342	0.05
582.683	0.05
583.025	0.04
583.366	0.05
583.707	0.05
584.049	0.05
584.39	0.05
584.731	0.05
585.072	0.04
585.413	0.06
585.754	0.05
586.095	0.05
586.435	0.05
586.776	0.06
587.117	0.06
587.458	0.05
587.798	0.05
588.139	0.05
588.48	0.05
588.82	0.05
589.161	0.05
589.501	0.05
589.841	0.05
590.182	0.05
590.522	0.05
590.862	0.05
591.202	0.05
591.542	0.05
591.882	0.05
592.222	0.05
592.562	0.05
592.902	0.04
593.242	0.05
593.582	0.05
593.922	0.06
594.261	0.04
594.601	0.05
594.941	0.05
595.28	0.05
595.62	0.05
595.959	0.05
596.299	0.05
596.638	0.05
596.977	0.05
597.317	0.06
597.656	0.05
597.995	0.05
598.334	0.05
598.673	0.05
599.012	0.04
599.351	0.05
599.69	0.04
600.029	0.06
600.368	0.05
600.707	0.05
601.046	0.05
601.384	0.05
601.723	0.05
602.061	0.04
602.4	0.05
602.738	0.05
603.077	0.05
603.415	0.05
603.754	0.05
604.092	0.05
604.43	0.05
604.768	0.05
605.107	0.05
605.445	0.05
605.783	0.05
606.121	0.05
606.459	0.05
606.796	0.05
607.134	0.05
607.472	0.04
607.81	0.05
608.148	0.04
608.485	0.05
608.823	0.05
609.16	0.05
609.498	0.05
609.835	0.05
610.173	0.05
610.51	0.05
610.847	0.06
611.185	0.05
611.522	0.06
611.859	0.05
612.196	0.06
612.533	0.06
612.87	0.06
613.207	0.06
613.544	0.06
613.881	0.06
614.217	0.06
614.554	0.05
614.891	0.06
615.228	0.06
615.564	0.05
615.901	0.07
616.237	0.06
616.574	0.06
616.91	0.06
617.246	0.06
617.583	0.07
617.919	0.07
618.255	0.07
618.591	0.07
618.927	0.07
619.263	0.07
619.599	0.07
619.935	0.07
620.271	0.07
620.607	0.07
620.943	0.06
621.279	0.06
621.614	0.07
621.95	0.06
622.286	0.06
622.621	0.06
622.957	0.06
623.292	0.05
623.627	0.05
623.963	0.05
624.298	0.05
624.633	0.05
624.968	0.04
625.304	0.05
625.639	0.05
625.974	0.05
626.309	0.05
626.644	0.06
626.979	0.06
627.313	0.05
627.648	0.05
627.983	0.05
628.318	0.05
628.652	0.05
628.987	0.05
629.321	0.05
629.656	0.05
629.99	0.05
630.325	0.05
630.659	0.05
630.993	0.05
631.327	0.05
631.662	0.04
631.996	0.06
632.33	0.05
632.664	0.05
632.998	0.05
633.332	0.05
633.666	0.05
633.999	0.04
634.333	0.05
634.667	0.04
635.001	0.04
635.334	0.05
635.668	0.04
636.001	0.04
636.335	0.04
636.668	0.05
637.001	0.04
637.335	0.04
637.668	0.05
638.001	0.04
638.334	0.05
638.668	0.04
639.001	0.04
639.334	0.04
639.667	0.04
639.999	0.04
640.332	0.05
640.665	0.04
640.998	0.04
641.331	0.04
641.663	0.04
641.996	0.04
642.328	0.04
642.661	0.05
642.993	0.04
643.326	0.05
643.658	0.03
643.99	0.03
644.323	0.03
644.655	0.04
644.987	0.04
645.319	0.05
645.651	0.05
645.983	0.04
646.315	0.04
646.647	0.04
646.979	0.06
647.31	0.05
647.642	0.05
647.974	0.05
648.305	0.06
648.637	0.05
648.968	0.05
649.3	0.05
649.631	0.06
649.963	0.06
650.294	0.06
650.625	0.05
650.957	0.06
651.288	0.06
651.619	0.06
651.95	0.06
652.281	0.06
652.612	0.05
652.943	0.06
653.274	0.06
653.604	0.06
653.935	0.05
654.266	0.05
654.596	0.05
654.927	0.06
655.258	0.05
655.588	0.06
655.918	0.05
656.249	0.03
656.579	0.05
656.909	0.05
657.24	0.06
657.57	0.06
657.9	0.05
658.23	0.06
658.56	0.06
658.89	0.07
659.22	0.06
659.55	0.06
659.88	0.07
660.209	0.06
660.539	0.07
660.869	0.07
661.198	0.06
661.528	0.06
661.857	0.06
662.187	0.06
662.516	0.06
662.846	0.06
663.175	0.06
663.504	0.06
663.833	0.05
664.163	0.06
664.492	0.05
664.821	0.05
665.15	0.06
665.479	0.06
665.807	0.05
666.136	0.06
666.465	0.05
666.794	0.05
667.122	0.06
667.451	0.05
667.78	0.05
668.108	0.05
668.437	0.05
668.765	0.06
669.093	0.05
669.422	0.05
669.75	0.05
670.078	0.06
670.406	0.06
670.734	0.06
671.062	0.06
671.39	0.05
671.718	0.06
672.046	0.06
672.374	0.05
672.702	0.05
673.029	0.05
673.357	0.06
673.685	0.06
674.012	0.06
674.34	0.05
674.667	0.06
674.995	0.06
675.322	0.06
675.649	0.05
675.977	0.06
676.304	0.05
676.631	0.06
676.958	0.05
677.285	0.04
677.612	0.04
677.939	0.06
678.266	0.05
678.593	0.05
678.92	0.05
679.246	0.04
679.573	0.05
679.9	0.04
680.226	0.04
680.553	0.04
680.879	0.04
681.206	0.05
681.532	0.04
681.858	0.04
682.184	0.04
682.511	0.04
682.837	0.04
683.163	0.05
683.489	0.04
683.815	0.04
684.141	0.05
684.467	0.05
684.793	0.04
685.118	0.05
685.444	0.04
685.77	0.04
686.095	0.05
686.421	0.05
686.746	0.05
687.072	0.05
687.397	0.05
687.723	0.06
688.048	0.06
688.373	0.05
688.698	0.05
689.023	0.05
689.349	0.05
689.674	0.06
689.999	0.05
690.323	0.04
690.648	0.04
690.973	0.04
691.298	0.04
691.623	0.05
691.947	0.04
692.272	0.04
692.596	0.04
692.921	0.04
693.245	0.04
693.57	0.04
693.894	0.05
694.218	0.04
694.543	0.04
694.867	0.04
695.191	0.04
695.515	0.05
695.839	0.03
696.163	0.04
696.487	0.04
696.811	0.04
697.135	0.04
697.458	0.04
697.782	0.04
698.106	0.05
698.429	0.04
698.753	0.04
699.076	0.04
699.4	0.04
699.723	0.04
700.046	0.03
700.37	0.04
700.693	0.05
701.016	0.04
701.339	0.05
701.662	0.05
701.985	0.05
702.308	0.04
702.631	0.05
702.954	0.06
703.277	0.04
703.599	0.05
703.922	0.04
704.245	0.04
704.567	0.04
704.89	0.04
705.212	0.04
705.535	0.04
705.857	0.04
706.179	0.03
706.502	0.03
706.824	0.03
707.146	0.04
707.468	0.04
707.79	0.04
708.112	0.04
708.434	0.04
708.756	0.04
709.078	0.04
709.399	0.04
709.721	0.04
710.043	0.04
710.364	0.04
710.686	0.05
711.007	0.04
711.329	0.06
711.65	0.04
711.972	0.04
712.293	0.05
712.614	0.04
712.935	0.05
713.256	0.04
713.577	0.05
713.898	0.04
714.219	0.04
714.54	0.03
714.861	0.03
715.182	0.04
715.503	0.04
715.823	0.04
716.144	0.04
716.464	0.03
716.785	0.03
717.105	0.03
717.426	0.04
717.746	0.03
718.066	0.03
718.387	0.03
718.707	0.03
719.027	0.04
719.347	0.02
719.667	0.04
719.987	0.03
720.307	0.02
720.627	0.02
720.947	0.03
721.266	0.03
721.586	0.02
721.906	0.02
722.225	0.02
722.545	0.03
722.864	0.01
723.184	0.03
723.503	0.02
723.823	0.03
724.142	0.02
724.461	0.02
724.78	0.03
725.099	0.02
725.418	0.03
725.737	0.03
726.056	0.03
726.375	0.03
726.694	0.02
727.013	0.04
727.331	0.02
727.65	0.03
727.969	0.03
728.287	0.03
728.606	0.03
728.924	0.03
729.242	0.03
729.561	0.03
729.879	0.03
730.197	0.03
730.515	0.03
730.834	0.03
731.152	0.02
731.47	0.02
731.788	0.03
732.105	0.02
732.423	0.02
732.741	0.03
733.059	0.02
733.376	0.03
733.694	0.02
734.012	0.02
734.329	0.03
734.647	0.02
734.964	0.03
735.281	0.04
735.599	0.03
735.916	0.04
736.233	0.03
736.55	0.03
736.867	0.03
737.184	0.04
737.501	0.03
737.818	0.03
738.135	0.03
738.452	0.03
738.768	0.03
739.085	0.03
739.402	0.03
739.718	0.04
740.035	0.04
740.351	0.04
740.668	0.04
740.984	0.03
741.3	0.03
741.617	0.04
741.933	0.03
742.249	0.03
742.565	0.03
742.881	0.04
743.197	0.03
743.513	0.03
743.829	0.03
744.144	0.03
744.46	0.03
744.776	0.04
745.091	0.03
745.407	0.04
745.722	0.04
746.038	0.03
746.353	0.03
746.669	0.05
746.984	0.03
747.299	0.04
747.614	0.04
747.93	0.04
748.245	0.04
748.56	0.04
748.875	0.04
749.189	0.04
749.504	0.04
749.819	0.05
750.134	0.04
750.448	0.04
750.763	0.04
751.078	0.03
751.392	0.04
751.707	0.05
752.021	0.05
752.335	0.04
752.65	0.04
752.964	0.04
753.278	0.04
753.592	0.04
753.906	0.03
754.22	0.04
754.534	0.04
754.848	0.03
755.162	0.03
755.476	0.04
755.789	0.04
756.103	0.03
756.417	0.05
756.73	0.04
757.044	0.03
757.357	0.04
757.671	0.04
757.984	0.04
758.297	0.05
758.61	0.05
758.924	0.04
759.237	0.04
759.55	0.04
759.863	0.03
760.176	0.05
760.488	0.04
760.801	0.04
761.114	0.04
761.427	0.04
761.739	0.04
762.052	0.04
762.365	0.04
762.677	0.04
762.99	0.03
763.302	0.04
763.614	0.03
763.926	0.04
764.239	0.03
764.551	0.03
764.863	0.03
765.175	0.04
765.487	0.04
765.799	0.02
766.111	0.02
766.423	0.03
766.734	0.03
767.046	0.03
767.358	0.03
767.669	0.03
767.981	0.04
768.292	0.03
768.604	0.04
768.915	0.03
769.226	0.03
769.537	0.03
769.849	0.04
770.16	0.03
770.471	0.03
770.782	0.03
771.093	0.02
771.404	0.01
771.715	0.03
772.025	0.03
772.336	0.03
772.647	0.02
772.957	0.03
773.268	0.02
773.578	0.03
773.889	0.03
774.199	0.03
774.51	0.03
774.82	0.03
775.13	0.03
775.44	0.03
775.75	0.03
776.06	0.04
776.37	0.03
776.68	0.04
776.99	0.04
777.3	0.02
777.61	0.04
777.92	0.03
778.229	0.03
778.539	0.03
778.848	0.03
779.158	0.03
779.467	0.03
779.777	0.03
780.086	0.04
780.395	0.02
780.704	0.02
781.013	0.03
781.323	0.03
781.632	0.03
781.941	0.04
782.249	0.03
782.558	0.03
782.867	0.03
783.176	0.03
783.485	0.03
783.793	0.04
784.102	0.03
784.41	0.02
784.719	0.03
785.027	0.03
785.335	0.03
785.644	0.03
785.952	0.02
786.26	0.03
786.568	0.02
786.876	0.02
787.184	0.03
787.492	0.03
787.8	0.03
788.108	0.03
788.416	0.02
788.723	0.03
789.031	0.02
789.338	0.02
789.646	0.02
789.953	0.02
790.261	0.03
790.568	0.03
790.876	0.03
791.183	0.03
791.49	0.03
791.797	0.03
792.104	0.02
792.411	0.03
792.718	0.03
793.025	0.03
793.332	0.03
793.639	0.03
793.945	0.03
794.252	0.04
794.559	0.03
794.865	0.04
795.172	0.04
795.478	0.03
795.784	0.04
796.091	0.04
796.397	0.04
796.703	0.04
797.009	0.05
797.315	0.04
797.622	0.05
797.927	0.03
798.233	0.03
798.539	0.04
798.845	0.04
799.151	0.04
799.456	0.04
799.762	0.04
800.068	0.03
800.373	0.04
800.679	0.03
800.984	0.04
801.289	0.04
801.595	0.04
801.9	0.03
802.205	0.03
802.51	0.03
802.815	0.03
803.12	0.03
803.425	0.03
803.73	0.03
804.035	0.03
804.339	0.03
804.644	0.03
804.949	0.03
805.253	0.03
805.558	0.04
805.862	0.03
806.167	0.04
806.471	0.03
806.775	0.04
807.08	0.05
807.384	0.04
807.688	0.03
807.992	0.04
808.296	0.04
808.6	0.04
808.904	0.04
809.207	0.04
809.511	0.04
809.815	0.04
810.119	0.03
810.422	0.04
810.726	0.05
811.029	0.05
811.332	0.04
811.636	0.04
811.939	0.04
812.242	0.04
812.546	0.04
812.849	0.04
813.152	0.05
813.455	0.05
813.758	0.05
814.06	0.04
814.363	0.03
814.666	0.04
814.969	0.04
815.271	0.05
815.574	0.04
815.877	0.04
816.179	0.04
816.481	0.04
816.784	0.03
817.086	0.03
817.388	0.03
817.69	0.02
817.993	0.02
818.295	0.02
818.597	0.03
818.899	0.02
819.2	0.02
819.502	0.02
819.804	0.02
820.106	0.03
820.407	0.01
820.709	0.02
821.01	0.02
821.312	0.02
821.613	0.02
821.915	0.02
822.216	0.02
822.517	0.02
822.818	0.02
823.119	0.03
823.42	0.03
823.721	0.01
824.022	0.02
824.323	0.02
824.624	0.02
824.925	0.02
825.226	0.03
825.526	0.02
825.827	0.03
826.127	0.03
826.428	0.03
826.728	0.03
827.028	0.03
827.329	0.02
827.629	0.02
827.929	0.02
828.229	0.03
828.529	0.03
828.829	0.03
829.129	0.02
829.429	0.03
829.729	0.02
830.029	0.02
830.328	0.02
830.628	0.02
830.927	0.01
831.227	0.02
831.526	0.02
831.826	0.02
832.125	0.02
832.424	0.01
832.724	0.02
833.023	0.02
833.322	0.02
833.621	0.02
833.92	0.01
834.219	0.02
834.518	0.02
834.816	0.01
835.115	0.02
835.414	0.02
835.712	0.02
836.011	0.01
836.309	0.02
836.608	0
836.906	0.01
837.205	0
837.503	0.01
837.801	-0
838.099	-0
838.397	-0.01
838.695	-0.01
838.993	-0
839.291	-0.01
839.589	-0.01
839.887	-0.01
840.184	-0.02
840.482	-0.02
840.78	-0.02
841.077	-0.03
841.375	-0.02
841.672	-0.02
841.969	-0.03
842.267	-0.03
842.564	-0.03
842.861	-0.02
843.158	-0.02
843.455	-0.05
843.752	-0.04
844.049	-0.04
844.346	-0.04
844.643	-0.05
844.94	-0.05
845.236	-0.03
845.533	-0.04
845.83	-0.04
846.126	-0.06
846.423	-0.05
846.719	-0.06
847.015	-0.05
847.312	-0.05
847.608	-0.06
847.904	-0.06
848.2	-0.07
848.496	-0.06
848.792	-0.06
849.088	-0.05
849.384	-0.07
849.68	-0.07
849.975	-0.06
850.271	-0.07
850.567	-0.07
850.862	-0.07
851.158	-0.07
851.453	-0.07
851.748	-0.08
852.044	-0.07
852.339	-0.06
852.634	-0.09
852.929	-0.06
853.224	-0.08
853.519	-0.08
853.814	-0.07
854.109	-0.08
854.404	-0.08
854.699	-0.08
854.994	-0.08
855.288	-0.08
855.583	-0.08
855.877	-0.09
856.172	-0.08
856.466	-0.08
856.76	-0.09
857.055	-0.09
857.349	-0.1
857.643	-0.1
857.937	-0.1
858.231	-0.1
858.525	-0.1
858.819	-0.1
859.113	-0.11
859.407	-0.11
859.701	-0.12
859.994	-0.11
860.288	-0.12
860.581	-0.11
860.875	-0.12
861.168	-0.13
861.462	-0.12
861.755	-0.12
862.048	-0.13
862.341	-0.12
862.634	-0.12
862.928	-0.12
863.221	-0.13
863.513	-0.12
863.806	-0.13
864.099	-0.13
864.392	-0.13
864.685	-0.13
864.977	-0.13
865.27	-0.14
865.562	-0.13
865.855	-0.13
866.147	-0.13
866.44	-0.13
866.732	-0.13
867.024	-0.14
867.316	-0.14
867.608	-0.14
867.9	-0.14
868.192	-0.15
868.484	-0.14
868.776	-0.15
869.068	-0.15
869.359	-0.15
869.651	-0.15
869.943	-0.16
870.234	-0.16
870.526	-0.16
870.817	-0.15
871.108	-0.14
871.4	-0.16
871.691	-0.17
871.982	-0.17
872.273	-0.19
872.564	-0.16
872.855	-0.17
873.146	-0.17
873.437	-0.18
873.728	-0.19
874.019	-0.18
874.309	-0.18
874.6	-0.17
874.89	-0.17
875.181	-0.18
875.471	-0.18
875.762	-0.17
876.052	-0.18
876.342	-0.16
876.632	-0.18
876.922	-0.17
877.213	-0.17
877.503	-0.2
877.792	-0.18
878.082	-0.19
878.372	-0.19
878.662	-0.2
878.952	-0.19
879.241	-0.18
879.531	-0.18
879.82	-0.19
880.11	-0.18
880.399	-0.19
880.688	-0.17
880.978	-0.17
881.267	-0.17
