Data from 12-12-AQDScycling_Absorbance__797__00797.txt Node

Date: Tue Dec 12 14:15:59 EST 2023
User: kyuminlee
Spectrometer: FLMS00943
Trigger mode: 0
Integration Time (sec): 1.000000E-1
Scans to average: 1
Electric dark correction enabled: true
Nonlinearity correction enabled: false
Boxcar width: 0
XAxis mode: Wavelengths
Number of Pixels in Spectrum: 2048
>>>>>Begin Spectral Data<<<<<
179.651	-0
180.037	-0
180.424	-0
180.81	0.33
181.197	0.05
181.583	-0.2
181.97	-0.39
182.356	-0
182.743	-0
183.129	1.38
183.515	-0
183.901	-0
184.288	0.36
184.674	0.25
185.06	-0.24
185.446	-0.13
185.832	-0
186.218	-0
186.604	0.05
186.99	-0
187.376	-0
187.762	-0.14
188.148	0.03
188.534	0.05
188.92	0.14
189.305	0.04
189.691	0.34
190.077	0.14
190.463	0.06
190.848	-0
191.234	0.1
191.619	0.17
192.005	0.2
192.391	0.34
192.776	0.05
193.161	0.1
193.547	0.17
193.932	0.07
194.318	0.03
194.703	0.31
195.088	0.07
195.473	0.08
195.859	0.15
196.244	0.34
196.629	0.22
197.014	0.18
197.399	0.23
197.784	0.13
198.169	0.12
198.554	0.18
198.939	0.06
199.324	0.24
199.709	0.13
200.094	0.03
200.478	0.19
200.863	0.23
201.248	0.29
201.633	0.11
202.017	0.23
202.402	0.24
202.787	0.18
203.171	0.1
203.556	0.25
203.94	0.12
204.325	0.21
204.709	0.37
205.093	0.02
205.478	0.28
205.862	0.05
206.246	0.41
206.631	0.13
207.015	0.08
207.399	0.35
207.783	0.08
208.167	0.08
208.551	0.18
208.935	0.12
209.319	0.15
209.703	0.16
210.087	0.33
210.471	0.01
210.855	0.17
211.239	0.18
211.623	0.2
212.007	0.3
212.39	0.17
212.774	0.26
213.158	0.06
213.541	0.17
213.925	0.17
214.309	0.21
214.692	0.31
215.076	0.16
215.459	0.16
215.842	0.23
216.226	0.22
216.609	0.27
216.993	0.16
217.376	0.5
217.759	0.18
218.142	0.49
218.525	0.33
218.909	0.37
219.292	0.34
219.675	0.5
220.058	0.34
220.441	0.47
220.824	0.45
221.207	0.64
221.59	0.68
221.973	0.61
222.355	0.55
222.738	0.8
223.121	0.64
223.504	0.69
223.886	0.73
224.269	0.75
224.652	0.67
225.034	0.77
225.417	0.67
225.799	0.97
226.182	0.76
226.564	0.79
226.947	0.75
227.329	0.76
227.711	0.96
228.094	1.03
228.476	0.91
228.858	0.87
229.24	0.86
229.623	0.99
230.005	0.81
230.387	0.89
230.769	0.78
231.151	1.01
231.533	0.95
231.915	0.98
232.297	0.98
232.679	0.98
233.061	1.04
233.442	0.92
233.824	1.02
234.206	1.07
234.588	1.06
234.969	1.12
235.351	0.97
235.733	1.1
236.114	1.14
236.496	1.04
236.877	1.1
237.259	1.16
237.64	1.08
238.022	1.04
238.403	1.06
238.784	1.09
239.165	0.94
239.547	1
239.928	1.21
240.309	1.12
240.69	1.03
241.071	1.13
241.452	1.01
241.834	1.05
242.215	1.05
242.595	0.97
242.976	1.12
243.357	1.2
243.738	1.01
244.119	1.25
244.5	1.08
244.881	1.22
245.261	1.15
245.642	1.22
246.023	1.1
246.403	1.16
246.784	1.37
247.164	1.26
247.545	1.22
247.925	1.33
248.306	1.24
248.686	1.49
249.067	1.33
249.447	1.27
249.827	1.6
250.207	1.4
250.588	1.2
250.968	1.37
251.348	1.29
251.728	1.33
252.108	1.31
252.488	1.41
252.868	1.35
253.248	1.39
253.628	1.5
254.008	1.4
254.388	1.26
254.768	1.32
255.147	1.28
255.527	1.41
255.907	1.28
256.287	1.38
256.666	1.43
257.046	1.54
257.425	1.6
257.805	1.34
258.184	1.31
258.564	1.32
258.943	1.36
259.323	1.37
259.702	1.54
260.081	1.45
260.461	1.47
260.84	1.4
261.219	1.53
261.598	1.46
261.977	1.43
262.356	1.7
262.736	1.5
263.115	1.53
263.494	1.27
263.873	1.36
264.251	1.45
264.63	1.41
265.009	1.45
265.388	1.39
265.767	1.49
266.145	1.45
266.524	1.38
266.903	1.38
267.281	1.36
267.66	1.47
268.039	1.52
268.417	1.4
268.796	1.33
269.174	1.47
269.552	1.42
269.931	1.42
270.309	1.48
270.687	1.6
271.066	1.57
271.444	1.5
271.822	1.81
272.2	1.43
272.578	1.41
272.956	1.41
273.334	1.31
273.712	1.3
274.09	1.45
274.468	1.43
274.846	1.15
275.224	1.3
275.602	1.42
275.98	1.65
276.357	1.41
276.735	1.47
277.113	1.42
277.49	1.37
277.868	1.37
278.246	1.29
278.623	1.35
279.001	1.26
279.378	1.36
279.756	1.42
280.133	1.45
280.51	1.46
280.888	1.54
281.265	1.39
281.642	1.59
282.019	1.57
282.396	1.56
282.773	1.44
283.151	1.48
283.528	1.48
283.905	1.47
284.282	1.41
284.659	1.59
285.035	1.35
285.412	1.44
285.789	1.39
286.166	1.37
286.543	1.58
286.919	1.45
287.296	1.49
287.673	1.66
288.049	1.56
288.426	1.71
288.802	1.56
289.179	1.53
289.555	1.81
289.932	1.43
290.308	1.32
290.684	1.33
291.061	1.33
291.437	1.55
291.813	1.29
292.189	1.33
292.565	1.35
292.942	1.49
293.318	1.39
293.694	1.38
294.07	1.36
294.446	1.32
294.822	1.6
295.197	1.44
295.573	1.44
295.949	1.32
296.325	1.43
296.701	1.47
297.076	1.55
297.452	1.5
297.828	1.41
298.203	1.46
298.579	1.43
298.954	1.38
299.33	1.37
299.705	1.34
300.081	1.43
300.456	1.37
300.831	1.31
301.206	1.3
301.582	1.4
301.957	1.32
302.332	1.31
302.707	1.32
303.082	1.19
303.457	1.31
303.832	1.25
304.207	1.25
304.582	1.22
304.957	1.16
305.332	1.18
305.707	1.15
306.082	1.14
306.456	1.16
306.831	1.09
307.206	1.05
307.58	1.14
307.955	1.02
308.33	1.03
308.704	1.1
309.079	1.01
309.453	1.04
309.828	1.02
310.202	0.95
310.576	0.99
310.951	0.96
311.325	1.03
311.699	0.98
312.073	0.98
312.447	0.94
312.821	0.96
313.196	0.94
313.57	0.88
313.944	0.87
314.317	0.92
314.691	0.93
315.065	0.91
315.439	0.92
315.813	0.92
316.187	0.89
316.56	0.92
316.934	0.9
317.308	0.86
317.681	0.85
318.055	0.87
318.428	0.88
318.802	0.92
319.175	0.88
319.549	0.84
319.922	0.84
320.295	0.83
320.669	0.92
321.042	0.89
321.415	0.91
321.788	0.87
322.162	0.82
322.535	0.84
322.908	0.85
323.281	0.85
323.654	0.86
324.027	0.85
324.4	0.85
324.773	0.88
325.145	0.89
325.518	0.84
325.891	0.85
326.264	0.85
326.636	0.85
327.009	0.84
327.382	0.92
327.754	0.87
328.127	0.85
328.499	0.87
328.872	0.92
329.244	0.9
329.616	0.85
329.989	0.91
330.361	0.88
330.733	0.86
331.106	0.88
331.478	0.94
331.85	0.91
332.222	0.89
332.594	0.88
332.966	0.91
333.338	0.94
333.71	0.94
334.082	0.99
334.454	0.92
334.826	0.97
335.197	0.99
335.569	0.98
335.941	0.91
336.312	0.92
336.684	0.98
337.056	0.99
337.427	1.01
337.799	1
338.17	1
338.542	1.01
338.913	1.06
339.284	1.05
339.656	1.07
340.027	1.06
340.398	1.04
340.769	1.03
341.141	1.07
341.512	1.04
341.883	1.08
342.254	1.09
342.625	1.05
342.996	1.1
343.367	1.07
343.738	1.14
344.108	1.08
344.479	1.14
344.85	1.08
345.221	1.22
345.591	1.11
345.962	1.18
346.333	1.17
346.703	1.11
347.074	1.13
347.444	1.12
347.815	1.13
348.185	1.12
348.556	1.22
348.926	1.19
349.296	1.19
349.666	1.24
350.037	1.12
350.407	1.19
350.777	1.21
351.147	1.21
351.517	1.28
351.887	1.26
352.257	1.29
352.627	1.25
352.997	1.21
353.367	1.29
353.737	1.4
354.106	1.39
354.476	1.24
354.846	1.35
355.216	1.47
355.585	1.49
355.955	1.38
356.324	1.42
356.694	1.46
357.063	1.47
357.433	1.41
357.802	1.45
358.171	1.48
358.541	1.43
358.91	1.46
359.279	1.45
359.648	1.32
360.017	1.55
360.387	1.46
360.756	1.42
361.125	1.54
361.494	1.52
361.863	1.52
362.231	1.64
362.6	1.44
362.969	1.7
363.338	1.46
363.707	1.71
364.075	1.61
364.444	1.45
364.813	1.55
365.181	1.65
365.55	1.55
365.918	1.59
366.287	1.64
366.655	1.55
367.024	1.6
367.392	1.58
367.76	1.52
368.128	1.61
368.497	1.53
368.865	1.48
369.233	1.52
369.601	1.55
369.969	1.48
370.337	1.59
370.705	1.79
371.073	1.63
371.441	1.49
371.809	1.42
372.177	1.47
372.544	1.64
372.912	1.56
373.28	1.55
373.647	1.48
374.015	1.54
374.383	1.95
374.75	1.6
375.118	1.64
375.485	1.64
375.853	1.72
376.22	1.52
376.587	1.49
376.955	1.67
377.322	1.62
377.689	1.55
378.056	1.48
378.423	1.44
378.79	1.53
379.157	1.51
379.524	1.65
379.891	1.47
380.258	1.58
380.625	1.54
380.992	1.55
381.359	1.5
381.726	1.59
382.092	1.6
382.459	1.43
382.826	1.41
383.192	1.53
383.559	1.51
383.925	1.6
384.292	1.64
384.658	1.67
385.025	1.47
385.391	1.66
385.757	1.63
386.123	1.65
386.49	1.58
386.856	1.58
387.222	1.61
387.588	1.59
387.954	1.74
388.32	1.57
388.686	1.66
389.052	1.57
389.418	1.71
389.784	1.55
390.15	1.58
390.515	1.42
390.881	1.77
391.247	1.51
391.613	1.7
391.978	1.47
392.344	1.53
392.709	1.56
393.075	1.62
393.44	1.56
393.806	1.65
394.171	1.51
394.536	1.59
394.902	1.6
395.267	1.47
395.632	1.52
395.997	1.59
396.362	1.54
396.727	1.57
397.092	1.54
397.457	1.61
397.822	1.62
398.187	1.62
398.552	1.61
398.917	1.51
399.282	1.42
399.646	1.46
400.011	1.63
400.376	1.47
400.74	1.49
401.105	1.51
401.47	1.52
401.834	1.55
402.199	1.54
402.563	1.55
402.927	1.5
403.292	1.65
403.656	1.52
404.02	1.71
404.384	1.7
404.749	1.55
405.113	1.61
405.477	1.71
405.841	1.62
406.205	1.55
406.569	1.59
406.933	1.5
407.296	1.48
407.66	1.54
408.024	1.62
408.388	1.57
408.752	1.58
409.115	1.63
409.479	1.57
409.842	1.5
410.206	1.64
410.569	1.52
410.933	1.62
411.296	1.45
411.66	1.52
412.023	1.46
412.386	1.49
412.749	1.4
413.113	1.66
413.476	1.47
413.839	1.49
414.202	1.49
414.565	1.49
414.928	1.46
415.291	1.3
415.654	1.47
416.017	1.56
416.38	1.52
416.742	1.51
417.105	1.44
417.468	1.46
417.83	1.48
418.193	1.67
418.556	1.46
418.918	1.42
419.281	1.5
419.643	1.5
420.005	1.47
420.368	1.6
420.73	1.41
421.092	1.52
421.455	1.59
421.817	1.37
422.179	1.44
422.541	1.55
422.903	1.74
423.265	1.59
423.627	1.53
423.989	1.51
424.351	1.49
424.713	1.5
425.075	1.5
425.436	1.65
425.798	1.47
426.16	1.47
426.521	1.46
426.883	1.57
427.245	1.56
427.606	1.46
427.967	1.39
428.329	1.43
428.69	1.52
429.052	1.41
429.413	1.69
429.774	1.53
430.135	1.6
430.497	1.6
430.858	1.47
431.219	1.54
431.58	1.44
431.941	1.48
432.302	1.43
432.663	1.47
433.024	1.66
433.384	1.53
433.745	1.47
434.106	1.56
434.467	1.53
434.827	1.45
435.188	1.49
435.548	1.66
435.909	1.52
436.269	1.69
436.63	1.43
436.99	1.48
437.351	1.4
437.711	1.52
438.071	1.47
438.431	1.48
438.792	1.51
439.152	1.44
439.512	1.36
439.872	1.41
440.232	1.42
440.592	1.45
440.952	1.43
441.312	1.42
441.671	1.52
442.031	1.41
442.391	1.45
442.751	1.36
443.11	1.46
443.47	1.36
443.83	1.33
444.189	1.42
444.549	1.4
444.908	1.38
445.267	1.39
445.627	1.42
445.986	1.36
446.345	1.35
446.705	1.38
447.064	1.35
447.423	1.39
447.782	1.36
448.141	1.32
448.5	1.28
448.859	1.28
449.218	1.27
449.577	1.31
449.936	1.29
450.295	1.26
450.653	1.28
451.012	1.26
451.371	1.3
451.729	1.24
452.088	1.26
452.447	1.26
452.805	1.23
453.163	1.2
453.522	1.23
453.88	1.22
454.239	1.2
454.597	1.18
454.955	1.16
455.313	1.18
455.671	1.15
456.029	1.14
456.388	1.12
456.746	1.09
457.104	1.09
457.461	1.1
457.819	1.11
458.177	1.04
458.535	1.06
458.893	1.06
459.25	1.03
459.608	1.04
459.966	0.96
460.323	1
460.681	0.96
461.038	0.97
461.396	0.95
461.753	0.93
462.111	0.94
462.468	0.91
462.825	0.9
463.182	0.88
463.54	0.87
463.897	0.87
464.254	0.86
464.611	0.85
464.968	0.83
465.325	0.84
465.682	0.81
466.039	0.79
466.395	0.79
466.752	0.77
467.109	0.75
467.466	0.75
467.822	0.75
468.179	0.73
468.535	0.73
468.892	0.7
469.248	0.7
469.605	0.68
469.961	0.67
470.318	0.67
470.674	0.66
471.03	0.64
471.386	0.63
471.743	0.62
472.099	0.61
472.455	0.6
472.811	0.59
473.167	0.58
473.523	0.57
473.879	0.55
474.235	0.55
474.59	0.54
474.946	0.53
475.302	0.53
475.657	0.51
476.013	0.51
476.369	0.5
476.724	0.5
477.08	0.49
477.435	0.48
477.791	0.47
478.146	0.47
478.501	0.45
478.857	0.44
479.212	0.43
479.567	0.43
479.922	0.41
480.277	0.41
480.632	0.4
480.987	0.4
481.342	0.38
481.697	0.38
482.052	0.37
482.407	0.36
482.762	0.36
483.116	0.35
483.471	0.35
483.826	0.33
484.18	0.34
484.535	0.32
484.89	0.31
485.244	0.32
485.598	0.31
485.953	0.3
486.307	0.3
486.661	0.3
487.016	0.28
487.37	0.29
487.724	0.28
488.078	0.27
488.432	0.27
488.786	0.26
489.14	0.26
489.494	0.24
489.848	0.25
490.202	0.24
490.556	0.24
490.91	0.24
491.263	0.23
491.617	0.23
491.971	0.22
492.324	0.22
492.678	0.22
493.031	0.22
493.385	0.21
493.738	0.21
494.091	0.21
494.445	0.2
494.798	0.2
495.151	0.2
495.504	0.19
495.857	0.19
496.21	0.19
496.564	0.18
496.916	0.19
497.269	0.17
497.622	0.18
497.975	0.17
498.328	0.17
498.681	0.17
499.033	0.16
499.386	0.16
499.739	0.15
500.091	0.15
500.444	0.16
500.796	0.15
501.149	0.15
501.501	0.14
501.854	0.15
502.206	0.14
502.558	0.15
502.91	0.14
503.263	0.15
503.615	0.13
503.967	0.14
504.319	0.14
504.671	0.14
505.023	0.13
505.375	0.13
505.726	0.13
506.078	0.13
506.43	0.13
506.782	0.12
507.133	0.13
507.485	0.13
507.837	0.14
508.188	0.13
508.54	0.13
508.891	0.13
509.243	0.12
509.594	0.12
509.945	0.12
510.296	0.11
510.648	0.13
510.999	0.11
511.35	0.12
511.701	0.12
512.052	0.12
512.403	0.12
512.754	0.12
513.105	0.11
513.456	0.11
513.807	0.11
514.157	0.12
514.508	0.1
514.859	0.11
515.209	0.11
515.56	0.11
515.91	0.11
516.261	0.11
516.611	0.11
516.962	0.11
517.312	0.11
517.662	0.11
518.013	0.11
518.363	0.11
518.713	0.1
519.063	0.11
519.413	0.11
519.763	0.1
520.113	0.11
520.463	0.11
520.813	0.11
521.163	0.12
521.512	0.11
521.862	0.11
522.212	0.11
522.562	0.12
522.911	0.1
523.261	0.1
523.61	0.1
523.96	0.1
524.309	0.11
524.658	0.11
525.008	0.11
525.357	0.1
525.706	0.11
526.056	0.11
526.405	0.1
526.754	0.11
527.103	0.1
527.452	0.1
527.801	0.11
528.15	0.1
528.499	0.11
528.847	0.11
529.196	0.11
529.545	0.11
529.893	0.11
530.242	0.11
530.591	0.11
530.939	0.11
531.288	0.11
531.636	0.12
531.985	0.11
532.333	0.1
532.681	0.11
533.029	0.11
533.378	0.11
533.726	0.11
534.074	0.11
534.422	0.11
534.77	0.11
535.118	0.11
535.466	0.11
535.814	0.1
536.162	0.11
536.509	0.11
536.857	0.11
537.205	0.11
537.552	0.11
537.9	0.11
538.248	0.1
538.595	0.11
538.943	0.11
539.29	0.11
539.637	0.1
539.985	0.11
540.332	0.1
540.679	0.1
541.026	0.1
541.373	0.11
541.721	0.1
542.068	0.11
542.415	0.11
542.762	0.1
543.108	0.1
543.455	0.1
543.802	0.1
544.149	0.1
544.496	0.11
544.842	0.1
545.189	0.09
545.535	0.09
545.882	0.1
546.228	0.09
546.575	0.09
546.921	0.09
547.267	0.09
547.614	0.1
547.96	0.09
548.306	0.09
548.652	0.09
548.998	0.1
549.344	0.09
549.69	0.1
550.036	0.09
550.382	0.09
550.728	0.09
551.074	0.1
551.42	0.1
551.765	0.1
552.111	0.1
552.457	0.11
552.802	0.11
553.148	0.1
553.493	0.1
553.839	0.1
554.184	0.11
554.529	0.1
554.875	0.1
555.22	0.1
555.565	0.1
555.91	0.1
556.255	0.11
556.6	0.1
556.945	0.1
557.29	0.1
557.635	0.1
557.98	0.1
558.325	0.1
558.67	0.11
559.014	0.1
559.359	0.11
559.704	0.1
560.048	0.1
560.393	0.1
560.737	0.09
561.082	0.1
561.426	0.09
561.77	0.09
562.115	0.09
562.459	0.09
562.803	0.09
563.147	0.1
563.491	0.1
563.835	0.1
564.179	0.09
564.523	0.1
564.867	0.1
565.211	0.1
565.555	0.1
565.899	0.1
566.242	0.1
566.586	0.09
566.93	0.1
567.273	0.11
567.617	0.1
567.96	0.1
568.304	0.1
568.647	0.1
568.99	0.1
569.334	0.1
569.677	0.1
570.02	0.11
570.363	0.1
570.706	0.1
571.049	0.1
571.392	0.11
571.735	0.1
572.078	0.11
572.421	0.12
572.764	0.11
573.106	0.11
573.449	0.1
573.792	0.1
574.134	0.1
574.477	0.1
574.819	0.1
575.162	0.1
575.504	0.09
575.847	0.1
576.189	0.1
576.531	0.1
576.873	0.1
577.215	0.09
577.558	0.1
577.9	0.09
578.242	0.1
578.584	0.09
578.926	0.09
579.267	0.09
579.609	0.1
579.951	0.1
580.293	0.1
580.634	0.1
580.976	0.1
581.318	0.09
581.659	0.1
582.001	0.1
582.342	0.09
582.683	0.1
583.025	0.1
583.366	0.09
583.707	0.1
584.049	0.09
584.39	0.1
584.731	0.1
585.072	0.09
585.413	0.1
585.754	0.1
586.095	0.09
586.435	0.1
586.776	0.1
587.117	0.1
587.458	0.1
587.798	0.1
588.139	0.1
588.48	0.09
588.82	0.09
589.161	0.09
589.501	0.09
589.841	0.09
590.182	0.09
590.522	0.09
590.862	0.09
591.202	0.1
591.542	0.09
591.882	0.09
592.222	0.1
592.562	0.1
592.902	0.09
593.242	0.09
593.582	0.1
593.922	0.1
594.261	0.09
594.601	0.09
594.941	0.09
595.28	0.09
595.62	0.09
595.959	0.09
596.299	0.09
596.638	0.09
596.977	0.09
597.317	0.1
597.656	0.1
597.995	0.1
598.334	0.1
598.673	0.09
599.012	0.1
599.351	0.1
599.69	0.09
600.029	0.1
600.368	0.11
600.707	0.1
601.046	0.1
601.384	0.1
601.723	0.11
602.061	0.1
602.4	0.11
602.738	0.1
603.077	0.1
603.415	0.09
603.754	0.1
604.092	0.09
604.43	0.1
604.768	0.1
605.107	0.1
605.445	0.09
605.783	0.09
606.121	0.09
606.459	0.09
606.796	0.1
607.134	0.09
607.472	0.09
607.81	0.09
608.148	0.09
608.485	0.1
608.823	0.1
609.16	0.09
609.498	0.1
609.835	0.09
610.173	0.09
610.51	0.09
610.847	0.1
611.185	0.1
611.522	0.1
611.859	0.1
612.196	0.1
612.533	0.1
612.87	0.1
613.207	0.1
613.544	0.1
613.881	0.11
614.217	0.1
614.554	0.1
614.891	0.1
615.228	0.1
615.564	0.1
615.901	0.11
616.237	0.11
616.574	0.1
616.91	0.11
617.246	0.1
617.583	0.1
617.919	0.11
618.255	0.11
618.591	0.1
618.927	0.1
619.263	0.11
619.599	0.11
619.935	0.1
620.271	0.1
620.607	0.11
620.943	0.1
621.279	0.11
621.614	0.1
621.95	0.11
622.286	0.1
622.621	0.1
622.957	0.1
623.292	0.1
623.627	0.1
623.963	0.1
624.298	0.1
624.633	0.09
624.968	0.1
625.304	0.1
625.639	0.1
625.974	0.1
626.309	0.09
626.644	0.09
626.979	0.1
627.313	0.1
627.648	0.1
627.983	0.1
628.318	0.09
628.652	0.09
628.987	0.09
629.321	0.1
629.656	0.09
629.99	0.09
630.325	0.1
630.659	0.09
630.993	0.08
631.327	0.09
631.662	0.08
631.996	0.08
632.33	0.08
632.664	0.09
632.998	0.08
633.332	0.08
633.666	0.08
633.999	0.08
634.333	0.08
634.667	0.08
635.001	0.08
635.334	0.08
635.668	0.08
636.001	0.08
636.335	0.07
636.668	0.08
637.001	0.08
637.335	0.08
637.668	0.08
638.001	0.08
638.334	0.09
638.668	0.08
639.001	0.08
639.334	0.08
639.667	0.08
639.999	0.08
640.332	0.08
640.665	0.07
640.998	0.08
641.331	0.09
641.663	0.08
641.996	0.08
642.328	0.08
642.661	0.08
642.993	0.09
643.326	0.09
643.658	0.08
643.99	0.08
644.323	0.08
644.655	0.08
644.987	0.08
645.319	0.09
645.651	0.09
645.983	0.09
646.315	0.09
646.647	0.09
646.979	0.1
647.31	0.09
647.642	0.09
647.974	0.09
648.305	0.09
648.637	0.09
648.968	0.09
649.3	0.09
649.631	0.09
649.963	0.08
650.294	0.09
650.625	0.08
650.957	0.09
651.288	0.08
651.619	0.09
651.95	0.09
652.281	0.09
652.612	0.09
652.943	0.09
653.274	0.09
653.604	0.09
653.935	0.09
654.266	0.09
654.596	0.09
654.927	0.08
655.258	0.09
655.588	0.09
655.918	0.09
656.249	0.07
656.579	0.09
656.909	0.08
657.24	0.08
657.57	0.09
657.9	0.09
658.23	0.09
658.56	0.09
658.89	0.09
659.22	0.08
659.55	0.09
659.88	0.09
660.209	0.09
660.539	0.1
660.869	0.09
661.198	0.09
661.528	0.08
661.857	0.09
662.187	0.09
662.516	0.09
662.846	0.08
663.175	0.08
663.504	0.08
663.833	0.08
664.163	0.08
664.492	0.08
664.821	0.08
665.15	0.08
665.479	0.08
665.807	0.07
666.136	0.09
666.465	0.08
666.794	0.09
667.122	0.09
667.451	0.08
667.78	0.09
668.108	0.09
668.437	0.08
668.765	0.08
669.093	0.09
669.422	0.09
669.75	0.09
670.078	0.09
670.406	0.08
670.734	0.09
671.062	0.09
671.39	0.08
671.718	0.09
672.046	0.09
672.374	0.08
672.702	0.08
673.029	0.08
673.357	0.08
673.685	0.09
674.012	0.08
674.34	0.08
674.667	0.09
674.995	0.09
675.322	0.09
675.649	0.08
675.977	0.09
676.304	0.08
676.631	0.08
676.958	0.08
677.285	0.07
677.612	0.07
677.939	0.08
678.266	0.08
678.593	0.08
678.92	0.08
679.246	0.08
679.573	0.08
679.9	0.07
680.226	0.08
680.553	0.07
680.879	0.08
681.206	0.08
681.532	0.08
681.858	0.08
682.184	0.08
682.511	0.09
682.837	0.08
683.163	0.08
683.489	0.08
683.815	0.08
684.141	0.08
684.467	0.08
684.793	0.08
685.118	0.08
685.444	0.08
685.77	0.08
686.095	0.07
686.421	0.08
686.746	0.08
687.072	0.08
687.397	0.08
687.723	0.08
688.048	0.08
688.373	0.07
688.698	0.08
689.023	0.07
689.349	0.07
689.674	0.08
689.999	0.07
690.323	0.06
690.648	0.07
690.973	0.07
691.298	0.07
691.623	0.06
691.947	0.07
692.272	0.07
692.596	0.07
692.921	0.08
693.245	0.07
693.57	0.08
693.894	0.08
694.218	0.07
694.543	0.08
694.867	0.07
695.191	0.07
695.515	0.08
695.839	0.07
696.163	0.08
696.487	0.08
696.811	0.08
697.135	0.07
697.458	0.07
697.782	0.07
698.106	0.08
698.429	0.08
698.753	0.07
699.076	0.08
699.4	0.08
699.723	0.08
700.046	0.07
700.37	0.08
700.693	0.08
701.016	0.07
701.339	0.08
701.662	0.08
701.985	0.08
702.308	0.07
702.631	0.07
702.954	0.08
703.277	0.07
703.599	0.07
703.922	0.07
704.245	0.07
704.567	0.07
704.89	0.07
705.212	0.07
705.535	0.06
705.857	0.06
706.179	0.06
706.502	0.06
706.824	0.06
707.146	0.06
707.468	0.07
707.79	0.06
708.112	0.07
708.434	0.07
708.756	0.07
709.078	0.07
709.399	0.06
709.721	0.06
710.043	0.07
710.364	0.07
710.686	0.07
711.007	0.07
711.329	0.07
711.65	0.06
711.972	0.07
712.293	0.08
712.614	0.08
712.935	0.07
713.256	0.08
713.577	0.08
713.898	0.07
714.219	0.07
714.54	0.07
714.861	0.06
715.182	0.07
715.503	0.07
715.823	0.06
716.144	0.06
716.464	0.06
716.785	0.06
717.105	0.06
717.426	0.07
717.746	0.06
718.066	0.06
718.387	0.06
718.707	0.05
719.027	0.07
719.347	0.05
719.667	0.06
719.987	0.06
720.307	0.05
720.627	0.05
720.947	0.06
721.266	0.06
721.586	0.05
721.906	0.06
722.225	0.05
722.545	0.06
722.864	0.05
723.184	0.06
723.503	0.06
723.823	0.07
724.142	0.06
724.461	0.06
724.78	0.06
725.099	0.06
725.418	0.06
725.737	0.07
726.056	0.07
726.375	0.07
726.694	0.06
727.013	0.06
727.331	0.05
727.65	0.06
727.969	0.06
728.287	0.06
728.606	0.06
728.924	0.06
729.242	0.05
729.561	0.06
729.879	0.06
730.197	0.06
730.515	0.05
730.834	0.06
731.152	0.06
731.47	0.06
731.788	0.06
732.105	0.06
732.423	0.06
732.741	0.06
733.059	0.06
733.376	0.07
733.694	0.06
734.012	0.06
734.329	0.06
734.647	0.06
734.964	0.07
735.281	0.07
735.599	0.07
735.916	0.07
736.233	0.06
736.55	0.07
736.867	0.06
737.184	0.07
737.501	0.06
737.818	0.07
738.135	0.07
738.452	0.06
738.768	0.07
739.085	0.06
739.402	0.05
739.718	0.06
740.035	0.07
740.351	0.07
740.668	0.07
740.984	0.06
741.3	0.06
741.617	0.06
741.933	0.06
742.249	0.07
742.565	0.06
742.881	0.07
743.197	0.06
743.513	0.06
743.829	0.05
744.144	0.06
744.46	0.07
744.776	0.06
745.091	0.06
745.407	0.06
745.722	0.06
746.038	0.05
746.353	0.05
746.669	0.06
746.984	0.05
747.299	0.06
747.614	0.06
747.93	0.06
748.245	0.05
748.56	0.06
748.875	0.05
749.189	0.05
749.504	0.05
749.819	0.05
750.134	0.05
750.448	0.04
750.763	0.05
751.078	0.04
751.392	0.05
751.707	0.06
752.021	0.06
752.335	0.06
752.65	0.06
752.964	0.06
753.278	0.06
753.592	0.05
753.906	0.05
754.22	0.06
754.534	0.06
754.848	0.06
755.162	0.05
755.476	0.06
755.789	0.06
756.103	0.05
756.417	0.06
756.73	0.06
757.044	0.06
757.357	0.06
757.671	0.06
757.984	0.06
758.297	0.06
758.61	0.06
758.924	0.05
759.237	0.05
759.55	0.06
759.863	0.05
760.176	0.05
760.488	0.05
760.801	0.05
761.114	0.05
761.427	0.05
761.739	0.05
762.052	0.04
762.365	0.05
762.677	0.05
762.99	0.04
763.302	0.05
763.614	0.06
763.926	0.06
764.239	0.05
764.551	0.05
764.863	0.05
765.175	0.05
765.487	0.06
765.799	0.05
766.111	0.04
766.423	0.05
766.734	0.04
767.046	0.05
767.358	0.05
767.669	0.05
767.981	0.05
768.292	0.05
768.604	0.05
768.915	0.05
769.226	0.05
769.537	0.04
769.849	0.05
770.16	0.04
770.471	0.04
770.782	0.04
771.093	0.05
771.404	0.04
771.715	0.05
772.025	0.04
772.336	0.05
772.647	0.04
772.957	0.05
773.268	0.04
773.578	0.05
773.889	0.05
774.199	0.05
774.51	0.05
774.82	0.04
775.13	0.05
775.44	0.05
775.75	0.05
776.06	0.06
776.37	0.06
776.68	0.06
776.99	0.05
777.3	0.06
777.61	0.07
777.92	0.06
778.229	0.06
778.539	0.05
778.848	0.05
779.158	0.06
779.467	0.06
779.777	0.06
780.086	0.06
780.395	0.05
780.704	0.05
781.013	0.04
781.323	0.04
781.632	0.05
781.941	0.05
782.249	0.05
782.558	0.04
782.867	0.05
783.176	0.04
783.485	0.04
783.793	0.05
784.102	0.06
784.41	0.04
784.719	0.05
785.027	0.04
785.335	0.05
785.644	0.05
785.952	0.05
786.26	0.05
786.568	0.04
786.876	0.04
787.184	0.04
787.492	0.04
787.8	0.05
788.108	0.04
788.416	0.05
788.723	0.04
789.031	0.04
789.338	0.05
789.646	0.05
789.953	0.05
790.261	0.05
790.568	0.06
790.876	0.05
791.183	0.05
791.49	0.05
791.797	0.05
792.104	0.05
792.411	0.05
792.718	0.05
793.025	0.05
793.332	0.05
793.639	0.05
793.945	0.06
794.252	0.06
794.559	0.05
794.865	0.06
795.172	0.05
795.478	0.05
795.784	0.05
796.091	0.06
796.397	0.06
796.703	0.06
797.009	0.06
797.315	0.06
797.622	0.05
797.927	0.05
798.233	0.05
798.539	0.06
798.845	0.06
799.151	0.06
799.456	0.06
799.762	0.05
800.068	0.06
800.373	0.06
800.679	0.05
800.984	0.06
801.289	0.06
801.595	0.06
801.9	0.05
802.205	0.05
802.51	0.05
802.815	0.07
803.12	0.05
803.425	0.06
803.73	0.06
804.035	0.05
804.339	0.06
804.644	0.06
804.949	0.06
805.253	0.06
805.558	0.06
805.862	0.05
806.167	0.05
806.471	0.04
806.775	0.06
807.08	0.05
807.384	0.05
807.688	0.05
807.992	0.05
808.296	0.05
808.6	0.05
808.904	0.06
809.207	0.06
809.511	0.06
809.815	0.06
810.119	0.05
810.422	0.06
810.726	0.07
811.029	0.07
811.332	0.07
811.636	0.07
811.939	0.06
812.242	0.06
812.546	0.06
812.849	0.06
813.152	0.06
813.455	0.06
813.758	0.06
814.06	0.06
814.363	0.06
814.666	0.06
814.969	0.06
815.271	0.06
815.574	0.06
815.877	0.05
816.179	0.06
816.481	0.05
816.784	0.06
817.086	0.05
817.388	0.04
817.69	0.04
817.993	0.04
818.295	0.04
818.597	0.04
818.899	0.04
819.2	0.04
819.502	0.04
819.804	0.05
820.106	0.04
820.407	0.04
820.709	0.05
821.01	0.04
821.312	0.05
821.613	0.03
821.915	0.04
822.216	0.04
822.517	0.04
822.818	0.04
823.119	0.04
823.42	0.04
823.721	0.04
824.022	0.03
824.323	0.04
824.624	0.04
824.925	0.04
825.226	0.04
825.526	0.03
825.827	0.04
826.127	0.04
826.428	0.04
826.728	0.04
827.028	0.04
827.329	0.03
827.629	0.03
827.929	0.03
828.229	0.04
828.529	0.03
828.829	0.03
829.129	0.04
829.429	0.03
829.729	0.03
830.029	0.03
830.328	0.03
830.628	0.03
830.927	0.03
831.227	0.03
831.526	0.04
831.826	0.03
832.125	0.03
832.424	0.02
832.724	0.03
833.023	0.03
833.322	0.04
833.621	0.03
833.92	0.03
834.219	0.02
834.518	0.03
834.816	0.02
835.115	0.02
835.414	0.01
835.712	0.02
836.011	0.01
836.309	0.01
836.608	0.01
836.906	0
837.205	0
837.503	0.01
837.801	-0
838.099	-0.01
838.397	-0.01
838.695	-0.01
838.993	-0
839.291	-0.01
839.589	-0
839.887	-0.01
840.184	-0.02
840.482	-0.01
840.78	-0.01
841.077	-0.01
841.375	-0.02
841.672	-0.01
841.969	-0.01
842.267	-0.01
842.564	-0.02
842.861	-0
843.158	-0.01
843.455	-0.02
843.752	-0.02
844.049	-0.02
844.346	-0.01
844.643	-0.02
844.94	-0.02
845.236	-0.02
845.533	-0.01
845.83	-0.02
846.126	-0.02
846.423	-0.03
846.719	-0.03
847.015	-0.02
847.312	-0.03
847.608	-0.04
847.904	-0.04
848.2	-0.03
848.496	-0.04
848.792	-0.04
849.088	-0.03
849.384	-0.03
849.68	-0.05
849.975	-0.04
850.271	-0.04
850.567	-0.04
850.862	-0.05
851.158	-0.05
851.453	-0.05
851.748	-0.05
852.044	-0.04
852.339	-0.05
852.634	-0.06
852.929	-0.05
853.224	-0.05
853.519	-0.05
853.814	-0.05
854.109	-0.07
854.404	-0.06
854.699	-0.07
854.994	-0.06
855.288	-0.06
855.583	-0.06
855.877	-0.07
856.172	-0.06
856.466	-0.06
856.76	-0.06
857.055	-0.07
857.349	-0.07
857.643	-0.07
857.937	-0.08
858.231	-0.08
858.525	-0.08
858.819	-0.09
859.113	-0.09
859.407	-0.1
859.701	-0.1
859.994	-0.1
860.288	-0.08
860.581	-0.1
860.875	-0.1
861.168	-0.11
861.462	-0.1
861.755	-0.1
862.048	-0.11
862.341	-0.1
862.634	-0.1
862.928	-0.1
863.221	-0.1
863.513	-0.11
863.806	-0.11
864.099	-0.11
864.392	-0.1
864.685	-0.11
864.977	-0.11
865.27	-0.12
865.562	-0.12
865.855	-0.11
866.147	-0.12
866.44	-0.11
866.732	-0.12
867.024	-0.13
867.316	-0.13
867.608	-0.13
867.9	-0.12
868.192	-0.12
868.484	-0.13
868.776	-0.12
869.068	-0.12
869.359	-0.12
869.651	-0.14
869.943	-0.15
870.234	-0.14
870.526	-0.14
870.817	-0.14
871.108	-0.13
871.4	-0.14
871.691	-0.15
871.982	-0.15
872.273	-0.15
872.564	-0.15
872.855	-0.14
873.146	-0.15
873.437	-0.15
873.728	-0.16
874.019	-0.14
874.309	-0.16
874.6	-0.16
874.89	-0.16
875.181	-0.15
875.471	-0.15
875.762	-0.16
876.052	-0.15
876.342	-0.14
876.632	-0.16
876.922	-0.17
877.213	-0.16
877.503	-0.18
877.792	-0.17
878.082	-0.17
878.372	-0.15
878.662	-0.18
878.952	-0.17
879.241	-0.16
879.531	-0.17
879.82	-0.16
880.11	-0.17
880.399	-0.17
880.688	-0.16
880.978	-0.16
881.267	-0.16
