Data from 12-12-AQDScycling_Absorbance__611__00611.txt Node

Date: Tue Dec 12 13:29:29 EST 2023
User: kyuminlee
Spectrometer: FLMS00943
Trigger mode: 0
Integration Time (sec): 1.000000E-1
Scans to average: 1
Electric dark correction enabled: true
Nonlinearity correction enabled: false
Boxcar width: 0
XAxis mode: Wavelengths
Number of Pixels in Spectrum: 2048
>>>>>Begin Spectral Data<<<<<
179.651	-0
180.037	-0
180.424	-0
180.81	-0
181.197	0.18
181.583	-0
181.97	-0.04
182.356	-0
182.743	-0
183.129	0.11
183.515	-0
183.901	-2.17
184.288	0.33
184.674	-0
185.06	-1.19
185.446	-0
185.832	-0
186.218	0.55
186.604	-0
186.99	-0
187.376	0.76
187.762	-0.25
188.148	0.53
188.534	-0
188.92	0.09
189.305	0.07
189.691	0.35
190.077	0.05
190.463	0.11
190.848	0.04
191.234	0.17
191.619	0.13
192.005	0.19
192.391	0.19
192.776	0.18
193.161	0.02
193.547	0.16
193.932	0.04
194.318	-0.01
194.703	0.12
195.088	0.21
195.473	0.18
195.859	0.25
196.244	0.27
196.629	0.13
197.014	0.08
197.399	0.15
197.784	0.13
198.169	0.14
198.554	0.22
198.939	0.02
199.324	0.17
199.709	0.14
200.094	0.17
200.478	0.09
200.863	0.11
201.248	0.26
201.633	0.07
202.017	0.05
202.402	0.17
202.787	0.1
203.171	0.03
203.556	0.37
203.94	0.05
204.325	0.21
204.709	0.18
205.093	0.05
205.478	0.11
205.862	0.05
206.246	0.09
206.631	-0.01
207.015	0.16
207.399	0.27
207.783	0.05
208.167	0.16
208.551	0.17
208.935	0.17
209.319	0.13
209.703	0.2
210.087	0.18
210.471	0.04
210.855	0.11
211.239	0.25
211.623	0.33
212.007	0.35
212.39	0.3
212.774	0.15
213.158	0.09
213.541	0.23
213.925	0.22
214.309	0.3
214.692	0.22
215.076	0.23
215.459	0.19
215.842	0.13
216.226	0.38
216.609	0.29
216.993	0.24
217.376	0.32
217.759	0.22
218.142	0.4
218.525	0.42
218.909	0.36
219.292	0.31
219.675	0.57
220.058	0.45
220.441	0.52
220.824	0.61
221.207	0.5
221.59	0.48
221.973	0.49
222.355	0.68
222.738	0.54
223.121	0.5
223.504	0.54
223.886	0.64
224.269	0.61
224.652	0.66
225.034	0.81
225.417	0.79
225.799	0.81
226.182	0.84
226.564	0.74
226.947	0.77
227.329	0.8
227.711	0.87
228.094	0.97
228.476	0.82
228.858	0.77
229.24	0.81
229.623	0.88
230.005	0.76
230.387	0.86
230.769	0.87
231.151	0.91
231.533	1.02
231.915	1.07
232.297	0.97
232.679	0.94
233.061	0.96
233.442	1.08
233.824	1.18
234.206	1.15
234.588	1.02
234.969	0.98
235.351	1
235.733	1.08
236.114	1.04
236.496	1.1
236.877	1.12
237.259	1.15
237.64	1.16
238.022	0.95
238.403	1.01
238.784	1.1
239.165	0.91
239.547	1.07
239.928	0.99
240.309	1.01
240.69	1.04
241.071	1.17
241.452	1.18
241.834	1.11
242.215	1.06
242.595	0.98
242.976	1.08
243.357	1.04
243.738	1.03
244.119	1.25
244.5	1.14
244.881	1.1
245.261	1.15
245.642	1.22
246.023	1.17
246.403	1.18
246.784	1.19
247.164	1.25
247.545	1.27
247.925	1.47
248.306	1.34
248.686	1.31
249.067	1.21
249.447	1.35
249.827	1.55
250.207	1.55
250.588	1.4
250.968	1.29
251.348	1.49
251.728	1.5
252.108	1.41
252.488	1.28
252.868	1.39
253.248	1.32
253.628	1.43
254.008	1.39
254.388	1.29
254.768	1.31
255.147	1.37
255.527	1.35
255.907	1.33
256.287	1.4
256.666	1.47
257.046	1.52
257.425	1.38
257.805	1.33
258.184	1.31
258.564	1.39
258.943	1.35
259.323	1.42
259.702	1.68
260.081	1.38
260.461	1.49
260.84	1.46
261.219	1.6
261.598	1.56
261.977	1.5
262.356	1.46
262.736	1.5
263.115	1.44
263.494	1.41
263.873	1.34
264.251	1.49
264.63	1.52
265.009	1.42
265.388	1.42
265.767	1.31
266.145	1.34
266.524	1.38
266.903	1.45
267.281	1.26
267.66	1.47
268.039	1.55
268.417	1.35
268.796	1.47
269.174	1.41
269.552	1.35
269.931	1.5
270.309	1.35
270.687	1.54
271.066	1.53
271.444	1.4
271.822	1.57
272.2	1.43
272.578	1.42
272.956	1.42
273.334	1.4
273.712	1.57
274.09	1.41
274.468	1.46
274.846	1.25
275.224	1.41
275.602	1.43
275.98	1.46
276.357	1.38
276.735	1.44
277.113	1.43
277.49	1.32
277.868	1.3
278.246	1.42
278.623	1.23
279.001	1.32
279.378	1.43
279.756	1.4
280.133	1.45
280.51	1.36
280.888	1.33
281.265	1.36
281.642	1.5
282.019	1.52
282.396	1.52
282.773	1.45
283.151	1.69
283.528	1.43
283.905	1.48
284.282	1.43
284.659	1.55
285.035	1.25
285.412	1.41
285.789	1.53
286.166	1.38
286.543	1.42
286.919	1.64
287.296	1.39
287.673	1.53
288.049	1.39
288.426	1.63
288.802	1.48
289.179	1.49
289.555	1.59
289.932	1.48
290.308	1.39
290.684	1.38
291.061	1.3
291.437	1.5
291.813	1.4
292.189	1.36
292.565	1.26
292.942	1.27
293.318	1.45
293.694	1.41
294.07	1.33
294.446	1.4
294.822	1.43
295.197	1.36
295.573	1.35
295.949	1.34
296.325	1.47
296.701	1.39
297.076	1.48
297.452	1.39
297.828	1.41
298.203	1.42
298.579	1.35
298.954	1.38
299.33	1.31
299.705	1.29
300.081	1.39
300.456	1.31
300.831	1.19
301.206	1.21
301.582	1.29
301.957	1.2
302.332	1.22
302.707	1.23
303.082	1.12
303.457	1.13
303.832	1.12
304.207	1.08
304.582	1.09
304.957	1.05
305.332	1.06
305.707	1.03
306.082	0.99
306.456	1.03
306.831	0.99
307.206	0.94
307.58	0.99
307.955	0.94
308.33	0.88
308.704	0.94
309.079	0.9
309.453	0.88
309.828	0.85
310.202	0.84
310.576	0.84
310.951	0.81
311.325	0.8
311.699	0.75
312.073	0.77
312.447	0.77
312.821	0.76
313.196	0.74
313.57	0.7
313.944	0.71
314.317	0.7
314.691	0.73
315.065	0.69
315.439	0.68
315.813	0.67
316.187	0.66
316.56	0.69
316.934	0.66
317.308	0.65
317.681	0.64
318.055	0.67
318.428	0.62
318.802	0.66
319.175	0.64
319.549	0.61
319.922	0.63
320.295	0.62
320.669	0.66
321.042	0.63
321.415	0.63
321.788	0.61
322.162	0.59
322.535	0.6
322.908	0.6
323.281	0.59
323.654	0.61
324.027	0.59
324.4	0.6
324.773	0.6
325.145	0.59
325.518	0.59
325.891	0.59
326.264	0.61
326.636	0.6
327.009	0.61
327.382	0.61
327.754	0.61
328.127	0.59
328.499	0.61
328.872	0.61
329.244	0.6
329.616	0.61
329.989	0.63
330.361	0.62
330.733	0.61
331.106	0.62
331.478	0.65
331.85	0.64
332.222	0.67
332.594	0.66
332.966	0.66
333.338	0.71
333.71	0.71
334.082	0.71
334.454	0.7
334.826	0.74
335.197	0.73
335.569	0.73
335.941	0.71
336.312	0.74
336.684	0.73
337.056	0.77
337.427	0.81
337.799	0.8
338.17	0.8
338.542	0.8
338.913	0.85
339.284	0.82
339.656	0.82
340.027	0.85
340.398	0.86
340.769	0.85
341.141	0.89
341.512	0.86
341.883	0.89
342.254	0.91
342.625	0.93
342.996	0.91
343.367	0.92
343.738	0.94
344.108	0.97
344.479	1.04
344.85	0.93
345.221	0.98
345.591	0.97
345.962	1.03
346.333	1
346.703	0.97
347.074	1.06
347.444	1.02
347.815	1.07
348.185	1.04
348.556	1.08
348.926	1.04
349.296	1.21
349.666	1.1
350.037	1.07
350.407	1.06
350.777	1.16
351.147	1.19
351.517	1.2
351.887	1.22
352.257	1.24
352.627	1.26
352.997	1.17
353.367	1.26
353.737	1.37
354.106	1.29
354.476	1.33
354.846	1.35
355.216	1.31
355.585	1.42
355.955	1.41
356.324	1.4
356.694	1.38
357.063	1.45
357.433	1.44
357.802	1.36
358.171	1.47
358.541	1.36
358.91	1.54
359.279	1.49
359.648	1.56
360.017	1.55
360.387	1.57
360.756	1.47
361.125	1.48
361.494	1.55
361.863	1.46
362.231	1.51
362.6	1.55
362.969	1.54
363.338	1.53
363.707	1.65
364.075	1.58
364.444	1.4
364.813	1.54
365.181	1.52
365.55	1.47
365.918	1.66
366.287	1.55
366.655	1.64
367.024	1.53
367.392	1.6
367.76	1.58
368.128	1.53
368.497	1.54
368.865	1.45
369.233	1.55
369.601	1.61
369.969	1.51
370.337	1.46
370.705	1.53
371.073	1.61
371.441	1.69
371.809	1.37
372.177	1.52
372.544	1.53
372.912	1.56
373.28	1.51
373.647	1.67
374.015	1.59
374.383	1.89
374.75	1.7
375.118	1.66
375.485	1.5
375.853	1.57
376.22	1.57
376.587	1.45
376.955	1.57
377.322	1.62
377.689	1.66
378.056	1.47
378.423	1.6
378.79	1.59
379.157	1.62
379.524	1.65
379.891	1.41
380.258	1.62
380.625	1.62
380.992	1.52
381.359	1.53
381.726	1.69
382.092	1.48
382.459	1.47
382.826	1.46
383.192	1.74
383.559	1.53
383.925	1.48
384.292	1.61
384.658	1.67
385.025	1.58
385.391	1.78
385.757	1.71
386.123	1.58
386.49	1.52
386.856	1.75
387.222	1.6
387.588	1.58
387.954	1.85
388.32	1.71
388.686	1.67
389.052	1.57
389.418	1.61
389.784	1.55
390.15	1.88
390.515	1.41
390.881	1.48
391.247	1.54
391.613	1.62
391.978	1.54
392.344	1.73
392.709	1.7
393.075	1.52
393.44	1.41
393.806	1.48
394.171	1.47
394.536	1.5
394.902	1.62
395.267	1.53
395.632	1.5
395.997	1.52
396.362	1.68
396.727	1.76
397.092	1.62
397.457	1.51
397.822	1.47
398.187	1.74
398.552	1.56
398.917	1.52
399.282	1.65
399.646	1.47
400.011	1.57
400.376	1.47
400.74	1.47
401.105	1.53
401.47	1.62
401.834	1.53
402.199	1.46
402.563	1.5
402.927	1.48
403.292	1.46
403.656	1.54
404.02	1.58
404.384	1.73
404.749	1.59
405.113	1.65
405.477	1.53
405.841	1.66
406.205	1.57
406.569	1.48
406.933	1.61
407.296	1.6
407.66	1.61
408.024	1.59
408.388	1.78
408.752	1.63
409.115	1.6
409.479	1.59
409.842	1.7
410.206	1.46
410.569	1.51
410.933	1.66
411.296	1.44
411.66	1.59
412.023	1.55
412.386	1.63
412.749	1.49
413.113	1.58
413.476	1.44
413.839	1.45
414.202	1.54
414.565	1.45
414.928	1.47
415.291	1.45
415.654	1.5
416.017	1.63
416.38	1.55
416.742	1.34
417.105	1.44
417.468	1.43
417.83	1.48
418.193	1.57
418.556	1.5
418.918	1.46
419.281	1.63
419.643	1.68
420.005	1.72
420.368	1.66
420.73	1.45
421.092	1.63
421.455	1.57
421.817	1.43
422.179	1.48
422.541	1.5
422.903	1.7
423.265	1.59
423.627	1.59
423.989	1.53
424.351	1.47
424.713	1.63
425.075	1.51
425.436	1.63
425.798	1.56
426.16	1.77
426.521	1.5
426.883	1.52
427.245	1.52
427.606	1.46
427.967	1.47
428.329	1.48
428.69	1.55
429.052	1.46
429.413	1.55
429.774	1.6
430.135	1.6
430.497	1.53
430.858	1.59
431.219	1.61
431.58	1.47
431.941	1.61
432.302	1.55
432.663	1.59
433.024	1.76
433.384	1.6
433.745	1.5
434.106	1.77
434.467	1.55
434.827	1.5
435.188	1.54
435.548	1.67
435.909	1.6
436.269	1.61
436.63	1.56
436.99	1.62
437.351	1.43
437.711	1.55
438.071	1.42
438.431	1.42
438.792	1.57
439.152	1.52
439.512	1.51
439.872	1.49
440.232	1.62
440.592	1.55
440.952	1.53
441.312	1.46
441.671	1.47
442.031	1.6
442.391	1.48
442.751	1.64
443.11	1.52
443.47	1.45
443.83	1.42
444.189	1.4
444.549	1.43
444.908	1.35
445.267	1.42
445.627	1.45
445.986	1.4
446.345	1.38
446.705	1.52
447.064	1.39
447.423	1.46
447.782	1.41
448.141	1.38
448.5	1.34
448.859	1.36
449.218	1.3
449.577	1.38
449.936	1.36
450.295	1.4
450.653	1.37
451.012	1.35
451.371	1.36
451.729	1.33
452.088	1.36
452.447	1.35
452.805	1.33
453.163	1.31
453.522	1.28
453.88	1.27
454.239	1.3
454.597	1.27
454.955	1.25
455.313	1.23
455.671	1.26
456.029	1.2
456.388	1.2
456.746	1.18
457.104	1.18
457.461	1.17
457.819	1.15
458.177	1.14
458.535	1.12
458.893	1.11
459.25	1.11
459.608	1.1
459.966	1.08
460.323	1.05
460.681	1.04
461.038	1.05
461.396	1.01
461.753	1.02
462.111	0.97
462.468	0.97
462.825	0.94
463.182	0.95
463.54	0.92
463.897	0.94
464.254	0.92
464.611	0.9
464.968	0.88
465.325	0.88
465.682	0.87
466.039	0.84
466.395	0.82
466.752	0.82
467.109	0.79
467.466	0.81
467.822	0.76
468.179	0.76
468.535	0.77
468.892	0.73
469.248	0.72
469.605	0.71
469.961	0.71
470.318	0.7
470.674	0.69
471.03	0.67
471.386	0.67
471.743	0.65
472.099	0.63
472.455	0.63
472.811	0.62
473.167	0.61
473.523	0.59
473.879	0.57
474.235	0.58
474.59	0.56
474.946	0.54
475.302	0.55
475.657	0.53
476.013	0.52
476.369	0.51
476.724	0.51
477.08	0.5
477.435	0.49
477.791	0.48
478.146	0.47
478.501	0.45
478.857	0.44
479.212	0.44
479.567	0.42
479.922	0.41
480.277	0.41
480.632	0.4
480.987	0.4
481.342	0.38
481.697	0.37
482.052	0.37
482.407	0.36
482.762	0.35
483.116	0.35
483.471	0.34
483.826	0.32
484.18	0.32
484.535	0.31
484.89	0.31
485.244	0.31
485.598	0.3
485.953	0.3
486.307	0.28
486.661	0.28
487.016	0.27
487.37	0.27
487.724	0.26
488.078	0.25
488.432	0.25
488.786	0.24
489.14	0.24
489.494	0.23
489.848	0.23
490.202	0.23
490.556	0.22
490.91	0.22
491.263	0.21
491.617	0.21
491.971	0.2
492.324	0.2
492.678	0.19
493.031	0.19
493.385	0.18
493.738	0.18
494.091	0.19
494.445	0.17
494.798	0.17
495.151	0.17
495.504	0.16
495.857	0.16
496.21	0.16
496.564	0.16
496.916	0.16
497.269	0.14
497.622	0.14
497.975	0.14
498.328	0.14
498.681	0.13
499.033	0.13
499.386	0.13
499.739	0.13
500.091	0.12
500.444	0.12
500.796	0.12
501.149	0.12
501.501	0.12
501.854	0.11
502.206	0.11
502.558	0.11
502.91	0.11
503.263	0.1
503.615	0.11
503.967	0.1
504.319	0.1
504.671	0.1
505.023	0.09
505.375	0.09
505.726	0.09
506.078	0.09
506.43	0.09
506.782	0.08
507.133	0.09
507.485	0.09
507.837	0.09
508.188	0.08
508.54	0.08
508.891	0.09
509.243	0.07
509.594	0.08
509.945	0.08
510.296	0.08
510.648	0.08
510.999	0.07
511.35	0.07
511.701	0.08
512.052	0.08
512.403	0.08
512.754	0.07
513.105	0.07
513.456	0.06
513.807	0.06
514.157	0.07
514.508	0.07
514.859	0.06
515.209	0.06
515.56	0.07
515.91	0.06
516.261	0.07
516.611	0.06
516.962	0.06
517.312	0.06
517.662	0.06
518.013	0.06
518.363	0.07
518.713	0.06
519.063	0.06
519.413	0.06
519.763	0.06
520.113	0.06
520.463	0.06
520.813	0.06
521.163	0.06
521.512	0.06
521.862	0.06
522.212	0.06
522.562	0.06
522.911	0.06
523.261	0.06
523.61	0.05
523.96	0.06
524.309	0.06
524.658	0.06
525.008	0.05
525.357	0.05
525.706	0.06
526.056	0.05
526.405	0.06
526.754	0.05
527.103	0.05
527.452	0.06
527.801	0.06
528.15	0.06
528.499	0.06
528.847	0.05
529.196	0.06
529.545	0.05
529.893	0.06
530.242	0.05
530.591	0.06
530.939	0.06
531.288	0.06
531.636	0.06
531.985	0.06
532.333	0.06
532.681	0.06
533.029	0.05
533.378	0.06
533.726	0.06
534.074	0.07
534.422	0.05
534.77	0.06
535.118	0.06
535.466	0.05
535.814	0.06
536.162	0.06
536.509	0.06
536.857	0.06
537.205	0.06
537.552	0.06
537.9	0.05
538.248	0.05
538.595	0.06
538.943	0.06
539.29	0.05
539.637	0.05
539.985	0.05
540.332	0.05
540.679	0.05
541.026	0.05
541.373	0.06
541.721	0.04
542.068	0.05
542.415	0.06
542.762	0.05
543.108	0.04
543.455	0.05
543.802	0.05
544.149	0.04
544.496	0.05
544.842	0.04
545.189	0.03
545.535	0.04
545.882	0.04
546.228	0.04
546.575	0.04
546.921	0.03
547.267	0.04
547.614	0.04
547.96	0.04
548.306	0.04
548.652	0.04
548.998	0.04
549.344	0.04
549.69	0.04
550.036	0.04
550.382	0.03
550.728	0.04
551.074	0.04
551.42	0.04
551.765	0.04
552.111	0.04
552.457	0.05
552.802	0.04
553.148	0.04
553.493	0.04
553.839	0.05
554.184	0.05
554.529	0.04
554.875	0.04
555.22	0.04
555.565	0.05
555.91	0.03
556.255	0.04
556.6	0.05
556.945	0.05
557.29	0.04
557.635	0.05
557.98	0.05
558.325	0.05
558.67	0.04
559.014	0.05
559.359	0.05
559.704	0.04
560.048	0.04
560.393	0.05
560.737	0.04
561.082	0.04
561.426	0.03
561.77	0.04
562.115	0.03
562.459	0.04
562.803	0.04
563.147	0.04
563.491	0.05
563.835	0.05
564.179	0.04
564.523	0.04
564.867	0.04
565.211	0.04
565.555	0.04
565.899	0.05
566.242	0.04
566.586	0.04
566.93	0.04
567.273	0.05
567.617	0.04
567.96	0.05
568.304	0.04
568.647	0.04
568.99	0.05
569.334	0.05
569.677	0.04
570.02	0.05
570.363	0.06
570.706	0.04
571.049	0.05
571.392	0.05
571.735	0.04
572.078	0.05
572.421	0.05
572.764	0.04
573.106	0.05
573.449	0.05
573.792	0.04
574.134	0.05
574.477	0.04
574.819	0.04
575.162	0.04
575.504	0.03
575.847	0.04
576.189	0.05
576.531	0.04
576.873	0.04
577.215	0.04
577.558	0.05
577.9	0.04
578.242	0.04
578.584	0.04
578.926	0.04
579.267	0.04
579.609	0.04
579.951	0.05
580.293	0.04
580.634	0.05
580.976	0.05
581.318	0.04
581.659	0.04
582.001	0.04
582.342	0.04
582.683	0.05
583.025	0.03
583.366	0.03
583.707	0.03
584.049	0.04
584.39	0.04
584.731	0.04
585.072	0.03
585.413	0.05
585.754	0.04
586.095	0.04
586.435	0.04
586.776	0.04
587.117	0.04
587.458	0.04
587.798	0.04
588.139	0.04
588.48	0.03
588.82	0.04
589.161	0.04
589.501	0.03
589.841	0.04
590.182	0.03
590.522	0.04
590.862	0.04
591.202	0.04
591.542	0.04
591.882	0.04
592.222	0.04
592.562	0.04
592.902	0.04
593.242	0.04
593.582	0.04
593.922	0.03
594.261	0.04
594.601	0.03
594.941	0.03
595.28	0.04
595.62	0.04
595.959	0.04
596.299	0.04
596.638	0.04
596.977	0.04
597.317	0.04
597.656	0.04
597.995	0.05
598.334	0.05
598.673	0.04
599.012	0.04
599.351	0.04
599.69	0.05
600.029	0.04
600.368	0.05
600.707	0.05
601.046	0.05
601.384	0.05
601.723	0.05
602.061	0.04
602.4	0.04
602.738	0.05
603.077	0.04
603.415	0.04
603.754	0.05
604.092	0.04
604.43	0.04
604.768	0.04
605.107	0.05
605.445	0.04
605.783	0.04
606.121	0.04
606.459	0.05
606.796	0.04
607.134	0.04
607.472	0.04
607.81	0.05
608.148	0.04
608.485	0.05
608.823	0.04
609.16	0.03
609.498	0.04
609.835	0.04
610.173	0.04
610.51	0.04
610.847	0.04
611.185	0.04
611.522	0.05
611.859	0.05
612.196	0.05
612.533	0.05
612.87	0.05
613.207	0.05
613.544	0.05
613.881	0.06
614.217	0.05
614.554	0.04
614.891	0.05
615.228	0.05
615.564	0.05
615.901	0.05
616.237	0.05
616.574	0.05
616.91	0.06
617.246	0.06
617.583	0.05
617.919	0.05
618.255	0.05
618.591	0.05
618.927	0.05
619.263	0.06
619.599	0.06
619.935	0.05
620.271	0.05
620.607	0.05
620.943	0.05
621.279	0.06
621.614	0.06
621.95	0.05
622.286	0.06
622.621	0.05
622.957	0.05
623.292	0.05
623.627	0.05
623.963	0.05
624.298	0.05
624.633	0.05
624.968	0.05
625.304	0.05
625.639	0.05
625.974	0.04
626.309	0.04
626.644	0.05
626.979	0.05
627.313	0.05
627.648	0.04
627.983	0.05
628.318	0.04
628.652	0.04
628.987	0.04
629.321	0.05
629.656	0.04
629.99	0.03
630.325	0.04
630.659	0.03
630.993	0.04
631.327	0.04
631.662	0.03
631.996	0.04
632.33	0.04
632.664	0.04
632.998	0.04
633.332	0.04
633.666	0.04
633.999	0.04
634.333	0.04
634.667	0.04
635.001	0.04
635.334	0.04
635.668	0.03
636.001	0.03
636.335	0.04
636.668	0.04
637.001	0.03
637.335	0.04
637.668	0.04
638.001	0.04
638.334	0.04
638.668	0.04
639.001	0.04
639.334	0.04
639.667	0.04
639.999	0.04
640.332	0.04
640.665	0.03
640.998	0.04
641.331	0.05
641.663	0.03
641.996	0.03
642.328	0.04
642.661	0.04
642.993	0.03
643.326	0.04
643.658	0.03
643.99	0.03
644.323	0.03
644.655	0.03
644.987	0.04
645.319	0.04
645.651	0.04
645.983	0.04
646.315	0.03
646.647	0.04
646.979	0.04
647.31	0.04
647.642	0.04
647.974	0.04
648.305	0.04
648.637	0.04
648.968	0.05
649.3	0.04
649.631	0.04
649.963	0.04
650.294	0.04
650.625	0.04
650.957	0.05
651.288	0.04
651.619	0.05
651.95	0.05
652.281	0.05
652.612	0.05
652.943	0.05
653.274	0.05
653.604	0.04
653.935	0.05
654.266	0.05
654.596	0.04
654.927	0.04
655.258	0.05
655.588	0.05
655.918	0.05
656.249	0.03
656.579	0.04
656.909	0.04
657.24	0.04
657.57	0.05
657.9	0.04
658.23	0.05
658.56	0.05
658.89	0.05
659.22	0.04
659.55	0.04
659.88	0.04
660.209	0.05
660.539	0.05
660.869	0.05
661.198	0.04
661.528	0.05
661.857	0.05
662.187	0.05
662.516	0.04
662.846	0.04
663.175	0.04
663.504	0.04
663.833	0.04
664.163	0.05
664.492	0.04
664.821	0.05
665.15	0.04
665.479	0.04
665.807	0.04
666.136	0.05
666.465	0.05
666.794	0.05
667.122	0.05
667.451	0.05
667.78	0.05
668.108	0.06
668.437	0.05
668.765	0.05
669.093	0.05
669.422	0.04
669.75	0.05
670.078	0.05
670.406	0.05
670.734	0.06
671.062	0.04
671.39	0.04
671.718	0.05
672.046	0.04
672.374	0.04
672.702	0.05
673.029	0.04
673.357	0.05
673.685	0.04
674.012	0.04
674.34	0.05
674.667	0.05
674.995	0.04
675.322	0.04
675.649	0.04
675.977	0.05
676.304	0.05
676.631	0.05
676.958	0.05
677.285	0.05
677.612	0.04
677.939	0.05
678.266	0.05
678.593	0.05
678.92	0.05
679.246	0.04
679.573	0.04
679.9	0.04
680.226	0.04
680.553	0.04
680.879	0.05
681.206	0.04
681.532	0.04
681.858	0.04
682.184	0.05
682.511	0.05
682.837	0.04
683.163	0.05
683.489	0.05
683.815	0.05
684.141	0.04
684.467	0.04
684.793	0.04
685.118	0.05
685.444	0.04
685.77	0.04
686.095	0.04
686.421	0.04
686.746	0.05
687.072	0.05
687.397	0.04
687.723	0.05
688.048	0.05
688.373	0.04
688.698	0.05
689.023	0.05
689.349	0.05
689.674	0.04
689.999	0.04
690.323	0.04
690.648	0.03
690.973	0.04
691.298	0.04
691.623	0.04
691.947	0.04
692.272	0.04
692.596	0.05
692.921	0.05
693.245	0.05
693.57	0.05
693.894	0.05
694.218	0.05
694.543	0.05
694.867	0.05
695.191	0.05
695.515	0.05
695.839	0.04
696.163	0.05
696.487	0.05
696.811	0.05
697.135	0.05
697.458	0.05
697.782	0.05
698.106	0.05
698.429	0.05
698.753	0.04
699.076	0.05
699.4	0.05
699.723	0.04
700.046	0.04
700.37	0.05
700.693	0.05
701.016	0.05
701.339	0.05
701.662	0.06
701.985	0.05
702.308	0.05
702.631	0.05
702.954	0.06
703.277	0.05
703.599	0.05
703.922	0.05
704.245	0.04
704.567	0.04
704.89	0.05
705.212	0.04
705.535	0.04
705.857	0.04
706.179	0.04
706.502	0.04
706.824	0.04
707.146	0.04
707.468	0.04
707.79	0.05
708.112	0.05
708.434	0.04
708.756	0.04
709.078	0.05
709.399	0.05
709.721	0.04
710.043	0.04
710.364	0.05
710.686	0.05
711.007	0.05
711.329	0.05
711.65	0.04
711.972	0.04
712.293	0.05
712.614	0.05
712.935	0.05
713.256	0.04
713.577	0.06
713.898	0.05
714.219	0.05
714.54	0.05
714.861	0.03
715.182	0.05
715.503	0.04
715.823	0.04
716.144	0.03
716.464	0.03
716.785	0.04
717.105	0.04
717.426	0.04
717.746	0.03
718.066	0.04
718.387	0.04
718.707	0.03
719.027	0.04
719.347	0.03
719.667	0.04
719.987	0.04
720.307	0.03
720.627	0.03
720.947	0.04
721.266	0.04
721.586	0.03
721.906	0.04
722.225	0.03
722.545	0.04
722.864	0.03
723.184	0.04
723.503	0.03
723.823	0.05
724.142	0.03
724.461	0.04
724.78	0.04
725.099	0.04
725.418	0.04
725.737	0.03
726.056	0.04
726.375	0.04
726.694	0.04
727.013	0.04
727.331	0.03
727.65	0.04
727.969	0.04
728.287	0.04
728.606	0.03
728.924	0.04
729.242	0.04
729.561	0.03
729.879	0.04
730.197	0.04
730.515	0.04
730.834	0.04
731.152	0.04
731.47	0.04
731.788	0.04
732.105	0.04
732.423	0.04
732.741	0.04
733.059	0.04
733.376	0.05
733.694	0.04
734.012	0.04
734.329	0.05
734.647	0.04
734.964	0.05
735.281	0.05
735.599	0.05
735.916	0.05
736.233	0.04
736.55	0.05
736.867	0.04
737.184	0.04
737.501	0.04
737.818	0.05
738.135	0.05
738.452	0.05
738.768	0.05
739.085	0.05
739.402	0.03
739.718	0.04
740.035	0.04
740.351	0.04
740.668	0.04
740.984	0.05
741.3	0.04
741.617	0.04
741.933	0.04
742.249	0.04
742.565	0.05
742.881	0.05
743.197	0.05
743.513	0.04
743.829	0.04
744.144	0.04
744.46	0.04
744.776	0.04
745.091	0.04
745.407	0.04
745.722	0.04
746.038	0.04
746.353	0.02
746.669	0.04
746.984	0.03
747.299	0.03
747.614	0.04
747.93	0.04
748.245	0.03
748.56	0.03
748.875	0.03
749.189	0.03
749.504	0.04
749.819	0.03
750.134	0.04
750.448	0.03
750.763	0.03
751.078	0.03
751.392	0.04
751.707	0.05
752.021	0.04
752.335	0.05
752.65	0.05
752.964	0.04
753.278	0.05
753.592	0.04
753.906	0.04
754.22	0.05
754.534	0.04
754.848	0.05
755.162	0.04
755.476	0.05
755.789	0.04
756.103	0.04
756.417	0.05
756.73	0.05
757.044	0.05
757.357	0.04
757.671	0.04
757.984	0.04
758.297	0.05
758.61	0.05
758.924	0.05
759.237	0.04
759.55	0.04
759.863	0.04
760.176	0.05
760.488	0.04
760.801	0.04
761.114	0.04
761.427	0.03
761.739	0.05
762.052	0.04
762.365	0.04
762.677	0.03
762.99	0.03
763.302	0.03
763.614	0.04
763.926	0.04
764.239	0.04
764.551	0.03
764.863	0.04
765.175	0.04
765.487	0.04
765.799	0.03
766.111	0.03
766.423	0.04
766.734	0.04
767.046	0.03
767.358	0.04
767.669	0.04
767.981	0.04
768.292	0.04
768.604	0.05
768.915	0.04
769.226	0.04
769.537	0.03
769.849	0.04
770.16	0.04
770.471	0.03
770.782	0.04
771.093	0.04
771.404	0.03
771.715	0.03
772.025	0.03
772.336	0.04
772.647	0.04
772.957	0.04
773.268	0.04
773.578	0.04
773.889	0.04
774.199	0.05
774.51	0.04
774.82	0.04
775.13	0.04
775.44	0.05
775.75	0.05
776.06	0.04
776.37	0.04
776.68	0.05
776.99	0.05
777.3	0.04
777.61	0.04
777.92	0.04
778.229	0.04
778.539	0.04
778.848	0.04
779.158	0.04
779.467	0.04
779.777	0.04
780.086	0.05
780.395	0.04
780.704	0.03
781.013	0.03
781.323	0.03
781.632	0.04
781.941	0.04
782.249	0.04
782.558	0.03
782.867	0.04
783.176	0.03
783.485	0.02
783.793	0.04
784.102	0.03
784.41	0.03
784.719	0.03
785.027	0.03
785.335	0.03
785.644	0.04
785.952	0.04
786.26	0.04
786.568	0.03
786.876	0.03
787.184	0.04
787.492	0.04
787.8	0.03
788.108	0.04
788.416	0.04
788.723	0.04
789.031	0.03
789.338	0.03
789.646	0.04
789.953	0.05
790.261	0.04
790.568	0.05
790.876	0.04
791.183	0.04
791.49	0.03
791.797	0.04
792.104	0.04
792.411	0.04
792.718	0.03
793.025	0.04
793.332	0.04
793.639	0.05
793.945	0.05
794.252	0.05
794.559	0.04
794.865	0.05
795.172	0.04
795.478	0.04
795.784	0.04
796.091	0.05
796.397	0.05
796.703	0.06
797.009	0.06
797.315	0.05
797.622	0.05
797.927	0.05
798.233	0.05
798.539	0.05
798.845	0.06
799.151	0.05
799.456	0.06
799.762	0.04
800.068	0.05
800.373	0.06
800.679	0.04
800.984	0.05
801.289	0.05
801.595	0.05
801.9	0.05
802.205	0.05
802.51	0.05
802.815	0.06
803.12	0.05
803.425	0.05
803.73	0.05
804.035	0.05
804.339	0.04
804.644	0.05
804.949	0.05
805.253	0.04
805.558	0.05
805.862	0.04
806.167	0.05
806.471	0.04
806.775	0.04
807.08	0.04
807.384	0.04
807.688	0.05
807.992	0.05
808.296	0.04
808.6	0.04
808.904	0.05
809.207	0.04
809.511	0.05
809.815	0.06
810.119	0.05
810.422	0.05
810.726	0.06
811.029	0.06
811.332	0.05
811.636	0.06
811.939	0.06
812.242	0.06
812.546	0.06
812.849	0.06
813.152	0.06
813.455	0.06
813.758	0.06
814.06	0.05
814.363	0.06
814.666	0.07
814.969	0.06
815.271	0.07
815.574	0.06
815.877	0.06
816.179	0.05
816.481	0.06
816.784	0.06
817.086	0.05
817.388	0.05
817.69	0.04
817.993	0.04
818.295	0.05
818.597	0.04
818.899	0.04
819.2	0.03
819.502	0.04
819.804	0.04
820.106	0.04
820.407	0.04
820.709	0.04
821.01	0.04
821.312	0.05
821.613	0.03
821.915	0.03
822.216	0.03
822.517	0.03
822.818	0.03
823.119	0.04
823.42	0.04
823.721	0.03
824.022	0.03
824.323	0.03
824.624	0.03
824.925	0.04
825.226	0.04
825.526	0.03
825.827	0.03
826.127	0.03
826.428	0.03
826.728	0.03
827.028	0.03
827.329	0.03
827.629	0.02
827.929	0.03
828.229	0.03
828.529	0.04
828.829	0.04
829.129	0.03
829.429	0.04
829.729	0.03
830.029	0.03
830.328	0.04
830.628	0.02
830.927	0.03
831.227	0.02
831.526	0.03
831.826	0.04
832.125	0.03
832.424	0.02
832.724	0.03
833.023	0.03
833.322	0.03
833.621	0.03
833.92	0.03
834.219	0.02
834.518	0.02
834.816	0.01
835.115	0.02
835.414	0.01
835.712	0.02
836.011	0.02
836.309	0.02
836.608	0
836.906	0.01
837.205	0
837.503	0
837.801	0
838.099	-0
838.397	-0.01
838.695	-0.01
838.993	-0
839.291	-0.01
839.589	-0
839.887	-0.01
840.184	-0.02
840.482	-0.01
840.78	-0.02
841.077	-0.02
841.375	-0.02
841.672	-0.01
841.969	-0.02
842.267	-0.02
842.564	-0.01
842.861	-0.01
843.158	-0.02
843.455	-0.04
843.752	-0.03
844.049	-0.02
844.346	-0.02
844.643	-0.02
844.94	-0.03
845.236	-0.02
845.533	-0.03
845.83	-0.03
846.126	-0.03
846.423	-0.03
846.719	-0.03
847.015	-0.04
847.312	-0.03
847.608	-0.04
847.904	-0.04
848.2	-0.04
848.496	-0.04
848.792	-0.04
849.088	-0.03
849.384	-0.04
849.68	-0.05
849.975	-0.04
850.271	-0.05
850.567	-0.05
850.862	-0.04
851.158	-0.05
851.453	-0.04
851.748	-0.06
852.044	-0.05
852.339	-0.05
852.634	-0.07
852.929	-0.04
853.224	-0.06
853.519	-0.05
853.814	-0.05
854.109	-0.06
854.404	-0.06
854.699	-0.07
854.994	-0.06
855.288	-0.06
855.583	-0.05
855.877	-0.07
856.172	-0.07
856.466	-0.07
856.76	-0.07
857.055	-0.08
857.349	-0.07
857.643	-0.09
857.937	-0.09
858.231	-0.09
858.525	-0.09
858.819	-0.09
859.113	-0.11
859.407	-0.1
859.701	-0.11
859.994	-0.11
860.288	-0.1
860.581	-0.11
860.875	-0.1
861.168	-0.11
861.462	-0.1
861.755	-0.1
862.048	-0.12
862.341	-0.11
862.634	-0.11
862.928	-0.1
863.221	-0.11
863.513	-0.11
863.806	-0.12
864.099	-0.12
864.392	-0.12
864.685	-0.11
864.977	-0.11
865.27	-0.12
865.562	-0.12
865.855	-0.12
866.147	-0.12
866.44	-0.12
866.732	-0.12
867.024	-0.13
867.316	-0.12
867.608	-0.12
867.9	-0.13
868.192	-0.13
868.484	-0.12
868.776	-0.13
869.068	-0.13
869.359	-0.12
869.651	-0.14
869.943	-0.14
870.234	-0.14
870.526	-0.14
870.817	-0.14
871.108	-0.13
871.4	-0.14
871.691	-0.14
871.982	-0.15
872.273	-0.15
872.564	-0.16
872.855	-0.15
873.146	-0.16
873.437	-0.16
873.728	-0.18
874.019	-0.16
874.309	-0.16
874.6	-0.17
874.89	-0.17
875.181	-0.16
875.471	-0.16
875.762	-0.15
876.052	-0.16
876.342	-0.15
876.632	-0.16
876.922	-0.18
877.213	-0.17
877.503	-0.17
877.792	-0.16
878.082	-0.18
878.372	-0.15
878.662	-0.18
878.952	-0.16
879.241	-0.16
879.531	-0.15
879.82	-0.16
880.11	-0.16
880.399	-0.16
880.688	-0.15
880.978	-0.15
881.267	-0.15
