Data from 12-12-AQDScycling_Absorbance__727__00727.txt Node

Date: Tue Dec 12 13:58:29 EST 2023
User: kyuminlee
Spectrometer: FLMS00943
Trigger mode: 0
Integration Time (sec): 1.000000E-1
Scans to average: 1
Electric dark correction enabled: true
Nonlinearity correction enabled: false
Boxcar width: 0
XAxis mode: Wavelengths
Number of Pixels in Spectrum: 2048
>>>>>Begin Spectral Data<<<<<
179.651	0.19
180.037	0.19
180.424	0.19
180.81	-0.06
181.197	0.33
181.583	-0
181.97	-0
182.356	-0
182.743	-0.53
183.129	-0.06
183.515	-0
183.901	-2.54
184.288	0.49
184.674	-0
185.06	-0.91
185.446	-0
185.832	-0
186.218	0.11
186.604	-0
186.99	-0
187.376	0.05
187.762	0.35
188.148	-0
188.534	0.11
188.92	0.13
189.305	0.09
189.691	0.23
190.077	0.14
190.463	0.06
190.848	0.04
191.234	0.05
191.619	-0.01
192.005	0.16
192.391	0.13
192.776	0.14
193.161	0.15
193.547	0.15
193.932	0.03
194.318	-0.03
194.703	0.07
195.088	0.14
195.473	0.09
195.859	0.11
196.244	0.13
196.629	0.24
197.014	-0.01
197.399	0.23
197.784	0.21
198.169	0.09
198.554	0.14
198.939	0.34
199.324	0.06
199.709	0.04
200.094	0.1
200.478	0.11
200.863	0.17
201.248	0.21
201.633	0.16
202.017	0.02
202.402	0.07
202.787	0.12
203.171	0.16
203.556	0.12
203.94	0.23
204.325	0.27
204.709	0.23
205.093	0.06
205.478	0.03
205.862	0.14
206.246	0.06
206.631	0.13
207.015	0.05
207.399	0.22
207.783	0.14
208.167	0.12
208.551	0.3
208.935	0.24
209.319	0.16
209.703	0.17
210.087	0.3
210.471	-0.05
210.855	0.27
211.239	0.19
211.623	0.27
212.007	0.15
212.39	0.27
212.774	0.32
213.158	0.23
213.541	0.29
213.925	0.27
214.309	0.31
214.692	0.18
215.076	0.27
215.459	0.16
215.842	0.12
216.226	0.26
216.609	0.24
216.993	0.18
217.376	0.52
217.759	0.2
218.142	0.32
218.525	0.55
218.909	0.32
219.292	0.35
219.675	0.42
220.058	0.51
220.441	0.49
220.824	0.56
221.207	0.58
221.59	0.52
221.973	0.43
222.355	0.68
222.738	0.66
223.121	0.59
223.504	0.54
223.886	0.61
224.269	0.77
224.652	0.69
225.034	0.73
225.417	0.69
225.799	0.84
226.182	0.86
226.564	0.82
226.947	0.75
227.329	0.83
227.711	0.94
228.094	0.95
228.476	0.94
228.858	0.68
229.24	0.88
229.623	0.97
230.005	0.8
230.387	0.89
230.769	0.8
231.151	0.98
231.533	0.83
231.915	0.97
232.297	0.95
232.679	0.98
233.061	0.88
233.442	0.94
233.824	0.91
234.206	1.02
234.588	1.06
234.969	1.01
235.351	0.99
235.733	0.95
236.114	1.17
236.496	1.08
236.877	1.1
237.259	1.07
237.64	1.11
238.022	0.99
238.403	0.99
238.784	0.94
239.165	0.99
239.547	1.16
239.928	1.08
240.309	1.15
240.69	1.05
241.071	1.12
241.452	1.05
241.834	1.04
242.215	1.04
242.595	1.13
242.976	1.11
243.357	1.18
243.738	1.06
244.119	1.32
244.5	1.04
244.881	1.08
245.261	1.11
245.642	1.18
246.023	1.22
246.403	1.23
246.784	1.18
247.164	1.11
247.545	1.36
247.925	1.25
248.306	1.18
248.686	1.29
249.067	1.16
249.447	1.32
249.827	1.56
250.207	1.43
250.588	1.34
250.968	1.46
251.348	1.34
251.728	1.54
252.108	1.46
252.488	1.39
252.868	1.35
253.248	1.33
253.628	1.42
254.008	1.63
254.388	1.31
254.768	1.36
255.147	1.38
255.527	1.55
255.907	1.28
256.287	1.41
256.666	1.32
257.046	1.55
257.425	1.58
257.805	1.32
258.184	1.29
258.564	1.35
258.943	1.4
259.323	1.47
259.702	1.42
260.081	1.52
260.461	1.51
260.84	1.52
261.219	1.72
261.598	1.42
261.977	1.43
262.356	1.49
262.736	1.34
263.115	1.58
263.494	1.37
263.873	1.42
264.251	1.44
264.63	1.55
265.009	1.46
265.388	1.48
265.767	1.43
266.145	1.51
266.524	1.42
266.903	1.38
267.281	1.36
267.66	1.44
268.039	1.39
268.417	1.51
268.796	1.46
269.174	1.36
269.552	1.29
269.931	1.47
270.309	1.41
270.687	1.42
271.066	1.47
271.444	1.4
271.822	1.5
272.2	1.41
272.578	1.52
272.956	1.44
273.334	1.47
273.712	1.58
274.09	1.4
274.468	1.4
274.846	1.47
275.224	1.46
275.602	1.4
275.98	1.52
276.357	1.39
276.735	1.51
277.113	1.44
277.49	1.43
277.868	1.31
278.246	1.45
278.623	1.31
279.001	1.23
279.378	1.32
279.756	1.48
280.133	1.55
280.51	1.37
280.888	1.47
281.265	1.37
281.642	1.68
282.019	1.55
282.396	1.63
282.773	1.47
283.151	1.46
283.528	1.48
283.905	1.4
284.282	1.5
284.659	1.58
285.035	1.34
285.412	1.34
285.789	1.43
286.166	1.45
286.543	1.5
286.919	1.66
287.296	1.37
287.673	1.69
288.049	1.68
288.426	1.48
288.802	1.49
289.179	1.39
289.555	1.55
289.932	1.36
290.308	1.4
290.684	1.43
291.061	1.34
291.437	1.65
291.813	1.41
292.189	1.3
292.565	1.29
292.942	1.4
293.318	1.3
293.694	1.44
294.07	1.24
294.446	1.37
294.822	1.49
295.197	1.43
295.573	1.46
295.949	1.4
296.325	1.61
296.701	1.64
297.076	1.59
297.452	1.57
297.828	1.42
298.203	1.65
298.579	1.4
298.954	1.45
299.33	1.39
299.705	1.52
300.081	1.45
300.456	1.58
300.831	1.43
301.206	1.4
301.582	1.52
301.957	1.54
302.332	1.59
302.707	1.37
303.082	1.41
303.457	1.41
303.832	1.53
304.207	1.42
304.582	1.49
304.957	1.44
305.332	1.55
305.707	1.43
306.082	1.45
306.456	1.54
306.831	1.46
307.206	1.51
307.58	1.62
307.955	1.52
308.33	1.47
308.704	1.49
309.079	1.42
309.453	1.65
309.828	1.51
310.202	1.55
310.576	1.48
310.951	1.67
311.325	1.7
311.699	1.51
312.073	1.43
312.447	1.43
312.821	1.46
313.196	1.72
313.57	1.39
313.944	1.39
314.317	1.38
314.691	1.69
315.065	1.6
315.439	1.55
315.813	1.58
316.187	1.44
316.56	1.83
316.934	1.54
317.308	1.53
317.681	1.43
318.055	1.55
318.428	1.42
318.802	1.5
319.175	1.54
319.549	1.51
319.922	1.36
320.295	1.39
320.669	1.69
321.042	1.51
321.415	1.71
321.788	1.54
322.162	1.48
322.535	1.67
322.908	1.59
323.281	1.57
323.654	1.69
324.027	1.45
324.4	1.55
324.773	1.51
325.145	1.66
325.518	1.46
325.891	1.47
326.264	1.58
326.636	1.37
327.009	1.42
327.382	1.5
327.754	1.73
328.127	1.48
328.499	1.49
328.872	1.44
329.244	1.52
329.616	1.55
329.989	1.4
330.361	1.5
330.733	1.51
331.106	1.44
331.478	1.57
331.85	1.36
332.222	1.49
332.594	1.44
332.966	1.55
333.338	1.89
333.71	1.72
334.082	1.69
334.454	1.46
334.826	1.43
335.197	1.51
335.569	1.55
335.941	1.38
336.312	1.54
336.684	1.45
337.056	1.41
337.427	1.57
337.799	1.61
338.17	1.48
338.542	1.42
338.913	1.57
339.284	1.56
339.656	1.49
340.027	1.64
340.398	1.49
340.769	1.48
341.141	1.6
341.512	1.6
341.883	1.66
342.254	1.5
342.625	1.6
342.996	1.48
343.367	1.59
343.738	1.56
344.108	1.41
344.479	1.7
344.85	1.3
345.221	1.5
345.591	1.45
345.962	1.4
346.333	1.49
346.703	1.3
347.074	1.46
347.444	1.29
347.815	1.5
348.185	1.56
348.556	1.49
348.926	1.41
349.296	1.42
349.666	1.35
350.037	1.22
350.407	1.32
350.777	1.43
351.147	1.33
351.517	1.43
351.887	1.42
352.257	1.41
352.627	1.28
352.997	1.28
353.367	1.37
353.737	1.51
354.106	1.43
354.476	1.31
354.846	1.47
355.216	1.42
355.585	1.4
355.955	1.35
356.324	1.37
356.694	1.28
357.063	1.28
357.433	1.26
357.802	1.28
358.171	1.32
358.541	1.28
358.91	1.25
359.279	1.25
359.648	1.17
360.017	1.23
360.387	1.23
360.756	1.15
361.125	1.16
361.494	1.18
361.863	1.18
362.231	1.08
362.6	1.11
362.969	1.08
363.338	1.05
363.707	1.06
364.075	1.09
364.444	0.97
364.813	1.04
365.181	1.03
365.55	0.97
365.918	1.05
366.287	0.95
366.655	0.99
367.024	0.97
367.392	1
367.76	0.9
368.128	0.96
368.497	0.9
368.865	0.89
369.233	0.89
369.601	0.9
369.969	0.88
370.337	0.85
370.705	0.87
371.073	0.89
371.441	0.89
371.809	0.84
372.177	0.85
372.544	0.86
372.912	0.86
373.28	0.83
373.647	0.86
374.015	0.85
374.383	0.86
374.75	0.84
375.118	0.88
375.485	0.85
375.853	0.83
376.22	0.8
376.587	0.8
376.955	0.83
377.322	0.85
377.689	0.83
378.056	0.83
378.423	0.81
378.79	0.84
379.157	0.82
379.524	0.82
379.891	0.81
380.258	0.8
380.625	0.79
380.992	0.78
381.359	0.82
381.726	0.88
382.092	0.8
382.459	0.8
382.826	0.82
383.192	0.81
383.559	0.82
383.925	0.84
384.292	0.8
384.658	0.84
385.025	0.85
385.391	0.87
385.757	0.85
386.123	0.84
386.49	0.83
386.856	0.87
387.222	0.88
387.588	0.86
387.954	0.89
388.32	0.91
388.686	0.92
389.052	0.83
389.418	0.9
389.784	0.89
390.15	0.85
390.515	0.84
390.881	0.9
391.247	0.88
391.613	0.88
391.978	0.88
392.344	0.88
392.709	0.85
393.075	0.86
393.44	0.87
393.806	0.88
394.171	0.86
394.536	0.87
394.902	0.86
395.267	0.86
395.632	0.87
395.997	0.81
396.362	0.84
396.727	0.89
397.092	0.83
397.457	0.85
397.822	0.85
398.187	0.83
398.552	0.85
398.917	0.84
399.282	0.79
399.646	0.83
400.011	0.84
400.376	0.79
400.74	0.8
401.105	0.78
401.47	0.77
401.834	0.78
402.199	0.78
402.563	0.75
402.927	0.77
403.292	0.78
403.656	0.73
404.02	0.75
404.384	0.76
404.749	0.76
405.113	0.73
405.477	0.73
405.841	0.71
406.205	0.74
406.569	0.7
406.933	0.71
407.296	0.67
407.66	0.69
408.024	0.69
408.388	0.74
408.752	0.68
409.115	0.69
409.479	0.67
409.842	0.67
410.206	0.65
410.569	0.65
410.933	0.66
411.296	0.64
411.66	0.64
412.023	0.64
412.386	0.64
412.749	0.61
413.113	0.64
413.476	0.61
413.839	0.61
414.202	0.61
414.565	0.61
414.928	0.62
415.291	0.6
415.654	0.62
416.017	0.62
416.38	0.57
416.742	0.59
417.105	0.57
417.468	0.58
417.83	0.6
418.193	0.6
418.556	0.56
418.918	0.59
419.281	0.58
419.643	0.6
420.005	0.57
420.368	0.59
420.73	0.58
421.092	0.57
421.455	0.57
421.817	0.53
422.179	0.55
422.541	0.55
422.903	0.56
423.265	0.55
423.627	0.54
423.989	0.54
424.351	0.55
424.713	0.54
425.075	0.52
425.436	0.53
425.798	0.53
426.16	0.54
426.521	0.54
426.883	0.56
427.245	0.52
427.606	0.51
427.967	0.52
428.329	0.54
428.69	0.53
429.052	0.53
429.413	0.52
429.774	0.54
430.135	0.52
430.497	0.53
430.858	0.5
431.219	0.5
431.58	0.5
431.941	0.51
432.302	0.5
432.663	0.51
433.024	0.52
433.384	0.52
433.745	0.49
434.106	0.51
434.467	0.51
434.827	0.5
435.188	0.49
435.548	0.5
435.909	0.48
436.269	0.49
436.63	0.48
436.99	0.48
437.351	0.47
437.711	0.48
438.071	0.48
438.431	0.47
438.792	0.46
439.152	0.46
439.512	0.46
439.872	0.46
440.232	0.48
440.592	0.47
440.952	0.47
441.312	0.46
441.671	0.46
442.031	0.45
442.391	0.45
442.751	0.46
443.11	0.46
443.47	0.44
443.83	0.45
444.189	0.44
444.549	0.43
444.908	0.44
445.267	0.42
445.627	0.43
445.986	0.41
446.345	0.42
446.705	0.42
447.064	0.43
447.423	0.42
447.782	0.4
448.141	0.42
448.5	0.39
448.859	0.41
449.218	0.41
449.577	0.42
449.936	0.41
450.295	0.4
450.653	0.4
451.012	0.4
451.371	0.41
451.729	0.4
452.088	0.4
452.447	0.4
452.805	0.4
453.163	0.4
453.522	0.4
453.88	0.38
454.239	0.38
454.597	0.39
454.955	0.37
455.313	0.37
455.671	0.38
456.029	0.37
456.388	0.36
456.746	0.36
457.104	0.35
457.461	0.35
457.819	0.35
458.177	0.34
458.535	0.34
458.893	0.33
459.25	0.34
459.608	0.33
459.966	0.32
460.323	0.32
460.681	0.31
461.038	0.32
461.396	0.32
461.753	0.31
462.111	0.31
462.468	0.3
462.825	0.3
463.182	0.3
463.54	0.29
463.897	0.29
464.254	0.3
464.611	0.29
464.968	0.28
465.325	0.28
465.682	0.28
466.039	0.29
466.395	0.27
466.752	0.27
467.109	0.27
467.466	0.27
467.822	0.27
468.179	0.26
468.535	0.26
468.892	0.26
469.248	0.26
469.605	0.25
469.961	0.25
470.318	0.27
470.674	0.25
471.03	0.25
471.386	0.25
471.743	0.23
472.099	0.24
472.455	0.22
472.811	0.22
473.167	0.23
473.523	0.23
473.879	0.23
474.235	0.22
474.59	0.22
474.946	0.22
475.302	0.22
475.657	0.21
476.013	0.22
476.369	0.2
476.724	0.22
477.08	0.21
477.435	0.2
477.791	0.2
478.146	0.2
478.501	0.21
478.857	0.2
479.212	0.19
479.567	0.19
479.922	0.18
480.277	0.18
480.632	0.18
480.987	0.18
481.342	0.17
481.697	0.17
482.052	0.17
482.407	0.17
482.762	0.17
483.116	0.17
483.471	0.16
483.826	0.16
484.18	0.16
484.535	0.16
484.89	0.16
485.244	0.16
485.598	0.16
485.953	0.16
486.307	0.16
486.661	0.15
487.016	0.15
487.37	0.15
487.724	0.15
488.078	0.15
488.432	0.15
488.786	0.14
489.14	0.15
489.494	0.14
489.848	0.14
490.202	0.14
490.556	0.14
490.91	0.14
491.263	0.13
491.617	0.14
491.971	0.14
492.324	0.13
492.678	0.13
493.031	0.14
493.385	0.13
493.738	0.13
494.091	0.13
494.445	0.13
494.798	0.14
495.151	0.13
495.504	0.13
495.857	0.13
496.21	0.13
496.564	0.12
496.916	0.13
497.269	0.12
497.622	0.12
497.975	0.12
498.328	0.12
498.681	0.12
499.033	0.11
499.386	0.12
499.739	0.11
500.091	0.11
500.444	0.11
500.796	0.12
501.149	0.11
501.501	0.11
501.854	0.11
502.206	0.11
502.558	0.11
502.91	0.12
503.263	0.11
503.615	0.11
503.967	0.11
504.319	0.12
504.671	0.11
505.023	0.11
505.375	0.11
505.726	0.11
506.078	0.11
506.43	0.1
506.782	0.11
507.133	0.11
507.485	0.12
507.837	0.12
508.188	0.11
508.54	0.11
508.891	0.11
509.243	0.11
509.594	0.11
509.945	0.11
510.296	0.11
510.648	0.11
510.999	0.1
511.35	0.11
511.701	0.11
512.052	0.11
512.403	0.11
512.754	0.11
513.105	0.1
513.456	0.1
513.807	0.1
514.157	0.11
514.508	0.11
514.859	0.1
515.209	0.11
515.56	0.1
515.91	0.1
516.261	0.11
516.611	0.1
516.962	0.1
517.312	0.11
517.662	0.1
518.013	0.11
518.363	0.12
518.713	0.11
519.063	0.11
519.413	0.11
519.763	0.11
520.113	0.11
520.463	0.11
520.813	0.11
521.163	0.12
521.512	0.11
521.862	0.11
522.212	0.12
522.562	0.11
522.911	0.11
523.261	0.11
523.61	0.11
523.96	0.11
524.309	0.11
524.658	0.12
525.008	0.11
525.357	0.11
525.706	0.11
526.056	0.11
526.405	0.11
526.754	0.11
527.103	0.1
527.452	0.11
527.801	0.11
528.15	0.11
528.499	0.11
528.847	0.12
529.196	0.12
529.545	0.12
529.893	0.12
530.242	0.11
530.591	0.12
530.939	0.12
531.288	0.12
531.636	0.12
531.985	0.11
532.333	0.11
532.681	0.11
533.029	0.12
533.378	0.11
533.726	0.11
534.074	0.12
534.422	0.11
534.77	0.12
535.118	0.12
535.466	0.12
535.814	0.12
536.162	0.12
536.509	0.13
536.857	0.11
537.205	0.12
537.552	0.12
537.9	0.12
538.248	0.11
538.595	0.12
538.943	0.12
539.29	0.12
539.637	0.12
539.985	0.12
540.332	0.12
540.679	0.12
541.026	0.11
541.373	0.12
541.721	0.11
542.068	0.11
542.415	0.12
542.762	0.11
543.108	0.1
543.455	0.11
543.802	0.11
544.149	0.11
544.496	0.11
544.842	0.11
545.189	0.1
545.535	0.1
545.882	0.11
546.228	0.1
546.575	0.1
546.921	0.09
547.267	0.1
547.614	0.11
547.96	0.1
548.306	0.1
548.652	0.1
548.998	0.11
549.344	0.11
549.69	0.11
550.036	0.11
550.382	0.1
550.728	0.11
551.074	0.11
551.42	0.11
551.765	0.11
552.111	0.11
552.457	0.12
552.802	0.11
553.148	0.11
553.493	0.11
553.839	0.11
554.184	0.11
554.529	0.11
554.875	0.11
555.22	0.12
555.565	0.11
555.91	0.11
556.255	0.12
556.6	0.11
556.945	0.11
557.29	0.11
557.635	0.11
557.98	0.11
558.325	0.11
558.67	0.11
559.014	0.12
559.359	0.12
559.704	0.12
560.048	0.1
560.393	0.1
560.737	0.1
561.082	0.11
561.426	0.1
561.77	0.11
562.115	0.1
562.459	0.1
562.803	0.11
563.147	0.11
563.491	0.11
563.835	0.11
564.179	0.12
564.523	0.11
564.867	0.11
565.211	0.11
565.555	0.12
565.899	0.12
566.242	0.12
566.586	0.11
566.93	0.12
567.273	0.12
567.617	0.12
567.96	0.12
568.304	0.12
568.647	0.11
568.99	0.12
569.334	0.13
569.677	0.12
570.02	0.12
570.363	0.12
570.706	0.12
571.049	0.12
571.392	0.13
571.735	0.11
572.078	0.12
572.421	0.13
572.764	0.12
573.106	0.12
573.449	0.11
573.792	0.12
574.134	0.12
574.477	0.12
574.819	0.11
575.162	0.11
575.504	0.1
575.847	0.11
576.189	0.12
576.531	0.11
576.873	0.11
577.215	0.11
577.558	0.11
577.9	0.11
578.242	0.12
578.584	0.12
578.926	0.12
579.267	0.11
579.609	0.11
579.951	0.12
580.293	0.12
580.634	0.12
580.976	0.12
581.318	0.12
581.659	0.11
582.001	0.12
582.342	0.12
582.683	0.11
583.025	0.11
583.366	0.11
583.707	0.11
584.049	0.11
584.39	0.11
584.731	0.11
585.072	0.1
585.413	0.12
585.754	0.12
586.095	0.12
586.435	0.11
586.776	0.11
587.117	0.11
587.458	0.11
587.798	0.11
588.139	0.11
588.48	0.11
588.82	0.11
589.161	0.11
589.501	0.1
589.841	0.11
590.182	0.11
590.522	0.11
590.862	0.11
591.202	0.11
591.542	0.11
591.882	0.11
592.222	0.1
592.562	0.11
592.902	0.11
593.242	0.1
593.582	0.11
593.922	0.11
594.261	0.1
594.601	0.11
594.941	0.11
595.28	0.11
595.62	0.11
595.959	0.11
596.299	0.11
596.638	0.11
596.977	0.11
597.317	0.12
597.656	0.11
597.995	0.11
598.334	0.12
598.673	0.11
599.012	0.12
599.351	0.12
599.69	0.11
600.029	0.12
600.368	0.13
600.707	0.12
601.046	0.12
601.384	0.12
601.723	0.12
602.061	0.12
602.4	0.12
602.738	0.12
603.077	0.11
603.415	0.11
603.754	0.11
604.092	0.11
604.43	0.11
604.768	0.12
605.107	0.12
605.445	0.11
605.783	0.11
606.121	0.11
606.459	0.11
606.796	0.11
607.134	0.11
607.472	0.11
607.81	0.11
608.148	0.11
608.485	0.11
608.823	0.11
609.16	0.11
609.498	0.11
609.835	0.11
610.173	0.11
610.51	0.11
610.847	0.11
611.185	0.11
611.522	0.11
611.859	0.12
612.196	0.11
612.533	0.11
612.87	0.11
613.207	0.12
613.544	0.12
613.881	0.12
614.217	0.12
614.554	0.12
614.891	0.12
615.228	0.12
615.564	0.12
615.901	0.12
616.237	0.12
616.574	0.12
616.91	0.13
617.246	0.12
617.583	0.12
617.919	0.12
618.255	0.12
618.591	0.12
618.927	0.12
619.263	0.12
619.599	0.12
619.935	0.12
620.271	0.12
620.607	0.12
620.943	0.11
621.279	0.12
621.614	0.12
621.95	0.12
622.286	0.12
622.621	0.12
622.957	0.11
623.292	0.11
623.627	0.12
623.963	0.11
624.298	0.12
624.633	0.12
624.968	0.11
625.304	0.11
625.639	0.11
625.974	0.12
626.309	0.11
626.644	0.11
626.979	0.12
627.313	0.11
627.648	0.11
627.983	0.11
628.318	0.11
628.652	0.1
628.987	0.11
629.321	0.11
629.656	0.1
629.99	0.1
630.325	0.11
630.659	0.1
630.993	0.1
631.327	0.1
631.662	0.09
631.996	0.1
632.33	0.1
632.664	0.1
632.998	0.09
633.332	0.1
633.666	0.1
633.999	0.11
634.333	0.1
634.667	0.1
635.001	0.1
635.334	0.1
635.668	0.1
636.001	0.1
636.335	0.1
636.668	0.1
637.001	0.09
637.335	0.1
637.668	0.11
638.001	0.09
638.334	0.1
638.668	0.1
639.001	0.1
639.334	0.09
639.667	0.1
639.999	0.1
640.332	0.1
640.665	0.09
640.998	0.1
641.331	0.1
641.663	0.1
641.996	0.1
642.328	0.1
642.661	0.1
642.993	0.1
643.326	0.11
643.658	0.1
643.99	0.1
644.323	0.1
644.655	0.11
644.987	0.1
645.319	0.11
645.651	0.1
645.983	0.11
646.315	0.1
646.647	0.1
646.979	0.11
647.31	0.11
647.642	0.1
647.974	0.1
648.305	0.11
648.637	0.11
648.968	0.1
649.3	0.1
649.631	0.11
649.963	0.1
650.294	0.1
650.625	0.1
650.957	0.1
651.288	0.1
651.619	0.11
651.95	0.11
652.281	0.11
652.612	0.1
652.943	0.11
653.274	0.11
653.604	0.1
653.935	0.1
654.266	0.11
654.596	0.1
654.927	0.1
655.258	0.11
655.588	0.11
655.918	0.1
656.249	0.09
656.579	0.1
656.909	0.09
657.24	0.09
657.57	0.1
657.9	0.1
658.23	0.1
658.56	0.1
658.89	0.1
659.22	0.1
659.55	0.1
659.88	0.1
660.209	0.1
660.539	0.11
660.869	0.1
661.198	0.1
661.528	0.09
661.857	0.09
662.187	0.09
662.516	0.1
662.846	0.1
663.175	0.1
663.504	0.1
663.833	0.09
664.163	0.09
664.492	0.09
664.821	0.09
665.15	0.1
665.479	0.1
665.807	0.09
666.136	0.1
666.465	0.09
666.794	0.1
667.122	0.09
667.451	0.1
667.78	0.1
668.108	0.11
668.437	0.1
668.765	0.1
669.093	0.11
669.422	0.1
669.75	0.1
670.078	0.1
670.406	0.1
670.734	0.1
671.062	0.1
671.39	0.1
671.718	0.1
672.046	0.1
672.374	0.09
672.702	0.09
673.029	0.09
673.357	0.1
673.685	0.1
674.012	0.09
674.34	0.1
674.667	0.09
674.995	0.09
675.322	0.1
675.649	0.09
675.977	0.09
676.304	0.1
676.631	0.09
676.958	0.09
677.285	0.09
677.612	0.09
677.939	0.09
678.266	0.09
678.593	0.09
678.92	0.09
679.246	0.09
679.573	0.09
679.9	0.09
680.226	0.09
680.553	0.09
680.879	0.09
681.206	0.1
681.532	0.09
681.858	0.09
682.184	0.1
682.511	0.09
682.837	0.09
683.163	0.1
683.489	0.1
683.815	0.09
684.141	0.1
684.467	0.1
684.793	0.09
685.118	0.1
685.444	0.09
685.77	0.09
686.095	0.09
686.421	0.09
686.746	0.09
687.072	0.09
687.397	0.09
687.723	0.09
688.048	0.09
688.373	0.09
688.698	0.09
689.023	0.09
689.349	0.09
689.674	0.09
689.999	0.08
690.323	0.07
690.648	0.08
690.973	0.08
691.298	0.08
691.623	0.08
691.947	0.08
692.272	0.08
692.596	0.09
692.921	0.09
693.245	0.09
693.57	0.09
693.894	0.09
694.218	0.09
694.543	0.08
694.867	0.09
695.191	0.09
695.515	0.09
695.839	0.08
696.163	0.09
696.487	0.09
696.811	0.09
697.135	0.09
697.458	0.09
697.782	0.08
698.106	0.09
698.429	0.09
698.753	0.08
699.076	0.08
699.4	0.08
699.723	0.09
700.046	0.08
700.37	0.09
700.693	0.09
701.016	0.08
701.339	0.09
701.662	0.09
701.985	0.09
702.308	0.09
702.631	0.08
702.954	0.08
703.277	0.09
703.599	0.08
703.922	0.08
704.245	0.07
704.567	0.08
704.89	0.08
705.212	0.09
705.535	0.08
705.857	0.09
706.179	0.08
706.502	0.07
706.824	0.07
707.146	0.07
707.468	0.09
707.79	0.07
708.112	0.08
708.434	0.07
708.756	0.08
709.078	0.08
709.399	0.07
709.721	0.08
710.043	0.08
710.364	0.08
710.686	0.08
711.007	0.08
711.329	0.09
711.65	0.08
711.972	0.08
712.293	0.09
712.614	0.08
712.935	0.09
713.256	0.08
713.577	0.09
713.898	0.08
714.219	0.08
714.54	0.08
714.861	0.07
715.182	0.08
715.503	0.08
715.823	0.08
716.144	0.07
716.464	0.07
716.785	0.06
717.105	0.07
717.426	0.07
717.746	0.07
718.066	0.06
718.387	0.07
718.707	0.06
719.027	0.07
719.347	0.06
719.667	0.07
719.987	0.06
720.307	0.07
720.627	0.07
720.947	0.07
721.266	0.07
721.586	0.06
721.906	0.07
722.225	0.06
722.545	0.07
722.864	0.06
723.184	0.08
723.503	0.07
723.823	0.07
724.142	0.06
724.461	0.07
724.78	0.07
725.099	0.07
725.418	0.07
725.737	0.07
726.056	0.08
726.375	0.07
726.694	0.07
727.013	0.07
727.331	0.06
727.65	0.07
727.969	0.07
728.287	0.07
728.606	0.07
728.924	0.06
729.242	0.07
729.561	0.07
729.879	0.07
730.197	0.07
730.515	0.06
730.834	0.06
731.152	0.08
731.47	0.07
731.788	0.07
732.105	0.06
732.423	0.07
732.741	0.07
733.059	0.07
733.376	0.07
733.694	0.07
734.012	0.07
734.329	0.08
734.647	0.07
734.964	0.07
735.281	0.06
735.599	0.07
735.916	0.07
736.233	0.07
736.55	0.07
736.867	0.07
737.184	0.08
737.501	0.07
737.818	0.07
738.135	0.08
738.452	0.07
738.768	0.07
739.085	0.08
739.402	0.06
739.718	0.07
740.035	0.07
740.351	0.07
740.668	0.08
740.984	0.06
741.3	0.06
741.617	0.07
741.933	0.07
742.249	0.07
742.565	0.07
742.881	0.07
743.197	0.07
743.513	0.06
743.829	0.06
744.144	0.06
744.46	0.07
744.776	0.07
745.091	0.06
745.407	0.07
745.722	0.05
746.038	0.06
746.353	0.05
746.669	0.07
746.984	0.05
747.299	0.06
747.614	0.07
747.93	0.06
748.245	0.05
748.56	0.06
748.875	0.05
749.189	0.06
749.504	0.06
749.819	0.06
750.134	0.05
750.448	0.06
750.763	0.06
751.078	0.05
751.392	0.05
751.707	0.07
752.021	0.07
752.335	0.06
752.65	0.07
752.964	0.06
753.278	0.06
753.592	0.06
753.906	0.05
754.22	0.06
754.534	0.06
754.848	0.06
755.162	0.06
755.476	0.06
755.789	0.07
756.103	0.06
756.417	0.06
756.73	0.06
757.044	0.07
757.357	0.06
757.671	0.06
757.984	0.06
758.297	0.06
758.61	0.06
758.924	0.07
759.237	0.06
759.55	0.06
759.863	0.06
760.176	0.06
760.488	0.06
760.801	0.05
761.114	0.06
761.427	0.06
761.739	0.06
762.052	0.06
762.365	0.05
762.677	0.06
762.99	0.05
763.302	0.06
763.614	0.06
763.926	0.06
764.239	0.06
764.551	0.06
764.863	0.06
765.175	0.07
765.487	0.06
765.799	0.04
766.111	0.06
766.423	0.06
766.734	0.06
767.046	0.05
767.358	0.06
767.669	0.06
767.981	0.06
768.292	0.06
768.604	0.06
768.915	0.06
769.226	0.06
769.537	0.05
769.849	0.07
770.16	0.05
770.471	0.05
770.782	0.05
771.093	0.06
771.404	0.04
771.715	0.05
772.025	0.05
772.336	0.06
772.647	0.04
772.957	0.06
773.268	0.05
773.578	0.06
773.889	0.06
774.199	0.06
774.51	0.06
774.82	0.05
775.13	0.05
775.44	0.06
775.75	0.06
776.06	0.06
776.37	0.05
776.68	0.06
776.99	0.06
777.3	0.06
777.61	0.07
777.92	0.06
778.229	0.06
778.539	0.06
778.848	0.06
779.158	0.06
779.467	0.06
779.777	0.05
780.086	0.06
780.395	0.05
780.704	0.05
781.013	0.04
781.323	0.05
781.632	0.05
781.941	0.06
782.249	0.05
782.558	0.05
782.867	0.06
783.176	0.05
783.485	0.05
783.793	0.05
784.102	0.05
784.41	0.05
784.719	0.05
785.027	0.05
785.335	0.04
785.644	0.05
785.952	0.05
786.26	0.05
786.568	0.04
786.876	0.05
787.184	0.05
787.492	0.05
787.8	0.05
788.108	0.05
788.416	0.05
788.723	0.05
789.031	0.04
789.338	0.05
789.646	0.05
789.953	0.05
790.261	0.06
790.568	0.06
790.876	0.05
791.183	0.06
791.49	0.05
791.797	0.05
792.104	0.05
792.411	0.06
792.718	0.05
793.025	0.06
793.332	0.05
793.639	0.06
793.945	0.06
794.252	0.06
794.559	0.06
794.865	0.06
795.172	0.06
795.478	0.05
795.784	0.05
796.091	0.06
796.397	0.06
796.703	0.06
797.009	0.07
797.315	0.06
797.622	0.06
797.927	0.06
798.233	0.06
798.539	0.07
798.845	0.06
799.151	0.06
799.456	0.06
799.762	0.06
800.068	0.06
800.373	0.07
800.679	0.06
800.984	0.06
801.289	0.06
801.595	0.06
801.9	0.06
802.205	0.06
802.51	0.06
802.815	0.06
803.12	0.06
803.425	0.06
803.73	0.06
804.035	0.06
804.339	0.06
804.644	0.06
804.949	0.06
805.253	0.05
805.558	0.06
805.862	0.05
806.167	0.05
806.471	0.05
806.775	0.06
807.08	0.06
807.384	0.05
807.688	0.05
807.992	0.06
808.296	0.06
808.6	0.06
808.904	0.06
809.207	0.06
809.511	0.06
809.815	0.06
810.119	0.06
810.422	0.06
810.726	0.07
811.029	0.07
811.332	0.06
811.636	0.07
811.939	0.06
812.242	0.06
812.546	0.06
812.849	0.06
813.152	0.07
813.455	0.06
813.758	0.07
814.06	0.07
814.363	0.06
814.666	0.07
814.969	0.07
815.271	0.07
815.574	0.06
815.877	0.07
816.179	0.06
816.481	0.06
816.784	0.06
817.086	0.06
817.388	0.05
817.69	0.05
817.993	0.05
818.295	0.05
818.597	0.05
818.899	0.05
819.2	0.04
819.502	0.05
819.804	0.05
820.106	0.04
820.407	0.04
820.709	0.04
821.01	0.05
821.312	0.05
821.613	0.04
821.915	0.04
822.216	0.04
822.517	0.04
822.818	0.04
823.119	0.04
823.42	0.04
823.721	0.04
824.022	0.04
824.323	0.04
824.624	0.04
824.925	0.05
825.226	0.05
825.526	0.03
825.827	0.04
826.127	0.05
826.428	0.04
826.728	0.04
827.028	0.04
827.329	0.04
827.629	0.03
827.929	0.04
828.229	0.04
828.529	0.04
828.829	0.04
829.129	0.03
829.429	0.04
829.729	0.04
830.029	0.04
830.328	0.04
830.628	0.03
830.927	0.03
831.227	0.03
831.526	0.04
831.826	0.04
832.125	0.04
832.424	0.03
832.724	0.03
833.023	0.04
833.322	0.04
833.621	0.03
833.92	0.03
834.219	0.03
834.518	0.03
834.816	0.02
835.115	0.03
835.414	0.03
835.712	0.02
836.011	0.01
836.309	0.02
836.608	0.02
836.906	0.01
837.205	0.01
837.503	0.01
837.801	0.01
838.099	0
838.397	-0.01
838.695	-0
838.993	0.01
839.291	-0.01
839.589	-0.01
839.887	-0
840.184	-0.01
840.482	-0.01
840.78	-0.01
841.077	-0.01
841.375	-0.01
841.672	-0
841.969	-0.01
842.267	-0.01
842.564	-0.01
842.861	-0.01
843.158	-0.01
843.455	-0.02
843.752	-0.02
844.049	-0.01
844.346	-0.01
844.643	-0.03
844.94	-0.02
845.236	-0.01
845.533	-0.02
845.83	-0.02
846.126	-0.02
846.423	-0.03
846.719	-0.03
847.015	-0.03
847.312	-0.03
847.608	-0.04
847.904	-0.04
848.2	-0.04
848.496	-0.03
848.792	-0.03
849.088	-0.02
849.384	-0.04
849.68	-0.04
849.975	-0.04
850.271	-0.04
850.567	-0.04
850.862	-0.04
851.158	-0.04
851.453	-0.04
851.748	-0.05
852.044	-0.05
852.339	-0.05
852.634	-0.06
852.929	-0.05
853.224	-0.05
853.519	-0.06
853.814	-0.04
854.109	-0.06
854.404	-0.06
854.699	-0.05
854.994	-0.06
855.288	-0.05
855.583	-0.05
855.877	-0.06
856.172	-0.06
856.466	-0.06
856.76	-0.07
857.055	-0.07
857.349	-0.07
857.643	-0.08
857.937	-0.08
858.231	-0.09
858.525	-0.09
858.819	-0.09
859.113	-0.1
859.407	-0.09
859.701	-0.1
859.994	-0.1
860.288	-0.08
860.581	-0.1
860.875	-0.1
861.168	-0.1
861.462	-0.1
861.755	-0.1
862.048	-0.1
862.341	-0.1
862.634	-0.1
862.928	-0.1
863.221	-0.1
863.513	-0.11
863.806	-0.11
864.099	-0.11
864.392	-0.11
864.685	-0.11
864.977	-0.11
865.27	-0.11
865.562	-0.12
865.855	-0.11
866.147	-0.11
866.44	-0.1
866.732	-0.12
867.024	-0.12
867.316	-0.13
867.608	-0.11
867.9	-0.12
868.192	-0.13
868.484	-0.13
868.776	-0.13
869.068	-0.13
869.359	-0.13
869.651	-0.13
869.943	-0.14
870.234	-0.13
870.526	-0.15
870.817	-0.15
871.108	-0.12
871.4	-0.14
871.691	-0.14
871.982	-0.14
872.273	-0.15
872.564	-0.14
872.855	-0.14
873.146	-0.15
873.437	-0.15
873.728	-0.16
874.019	-0.14
874.309	-0.16
874.6	-0.15
874.89	-0.16
875.181	-0.17
875.471	-0.15
875.762	-0.15
876.052	-0.16
876.342	-0.14
876.632	-0.16
876.922	-0.16
877.213	-0.16
877.503	-0.18
877.792	-0.17
878.082	-0.17
878.372	-0.15
878.662	-0.18
878.952	-0.16
879.241	-0.16
879.531	-0.16
879.82	-0.16
880.11	-0.15
880.399	-0.16
880.688	-0.15
880.978	-0.15
881.267	-0.15
