Data from 12-12-AQDScycling_Absorbance__877__00877.txt Node

Date: Tue Dec 12 14:35:59 EST 2023
User: kyuminlee
Spectrometer: FLMS00943
Trigger mode: 0
Integration Time (sec): 1.000000E-1
Scans to average: 1
Electric dark correction enabled: true
Nonlinearity correction enabled: false
Boxcar width: 0
XAxis mode: Wavelengths
Number of Pixels in Spectrum: 2048
>>>>>Begin Spectral Data<<<<<
179.651	0.13
180.037	0.13
180.424	0.13
180.81	0.74
181.197	0.47
181.583	-0
181.97	-0.04
182.356	-0
182.743	-1.2
183.129	1.26
183.515	0
183.901	-2.59
184.288	0.25
184.674	0.47
185.06	-0
185.446	-0
185.832	-0
186.218	0.81
186.604	-0.03
186.99	-0
187.376	-0
187.762	-0.15
188.148	0.24
188.534	-0.36
188.92	-0.05
189.305	-0.03
189.691	0.02
190.077	0.05
190.463	0.06
190.848	0.01
191.234	0.08
191.619	0.04
192.005	0.17
192.391	0.08
192.776	0.06
193.161	0.01
193.547	0.04
193.932	0
194.318	0.08
194.703	0.1
195.088	0.06
195.473	0.18
195.859	0.12
196.244	0.16
196.629	0.16
197.014	0.07
197.399	0.01
197.784	0.13
198.169	0.18
198.554	0.16
198.939	0.21
199.324	0.21
199.709	0.02
200.094	0.07
200.478	0.21
200.863	0.1
201.248	0.13
201.633	0.22
202.017	0.04
202.402	0.31
202.787	0.24
203.171	0.12
203.556	0.11
203.94	0.07
204.325	0.17
204.709	0.08
205.093	0.06
205.478	0.13
205.862	0.1
206.246	0.16
206.631	0.1
207.015	0.06
207.399	0.23
207.783	0.14
208.167	0.13
208.551	0.27
208.935	0.3
209.319	0.09
209.703	0.14
210.087	0.31
210.471	-0.02
210.855	-0.04
211.239	0.22
211.623	0.22
212.007	0.16
212.39	0.37
212.774	0.1
213.158	0.01
213.541	0.2
213.925	0.28
214.309	0.25
214.692	0.24
215.076	0.35
215.459	0.1
215.842	0.15
216.226	0.13
216.609	0.28
216.993	0.2
217.376	0.36
217.759	0.22
218.142	0.31
218.525	0.65
218.909	0.18
219.292	0.3
219.675	0.33
220.058	0.4
220.441	0.52
220.824	0.36
221.207	0.53
221.59	0.63
221.973	0.46
222.355	0.55
222.738	0.67
223.121	0.61
223.504	0.54
223.886	0.63
224.269	0.66
224.652	0.69
225.034	0.68
225.417	0.69
225.799	0.83
226.182	0.73
226.564	0.77
226.947	0.77
227.329	0.75
227.711	0.72
228.094	0.83
228.476	0.97
228.858	0.88
229.24	0.89
229.623	0.76
230.005	0.78
230.387	0.79
230.769	0.83
231.151	0.93
231.533	0.8
231.915	0.89
232.297	0.96
232.679	0.91
233.061	1.02
233.442	1.1
233.824	1.03
234.206	1.15
234.588	0.97
234.969	0.96
235.351	0.94
235.733	1
236.114	1.17
236.496	1.16
236.877	1.06
237.259	0.99
237.64	1.08
238.022	1.04
238.403	0.99
238.784	1.1
239.165	0.97
239.547	1.03
239.928	1.01
240.309	1.08
240.69	1.02
241.071	1.07
241.452	1.07
241.834	1.04
242.215	1.1
242.595	1.09
242.976	1.07
243.357	1.14
243.738	1.03
244.119	1.11
244.5	1.07
244.881	1.34
245.261	1.07
245.642	1.19
246.023	1.21
246.403	1.21
246.784	1.16
247.164	1.28
247.545	1.22
247.925	1.21
248.306	1.31
248.686	1.29
249.067	1.2
249.447	1.25
249.827	1.55
250.207	1.31
250.588	1.3
250.968	1.45
251.348	1.27
251.728	1.45
252.108	1.37
252.488	1.42
252.868	1.33
253.248	1.29
253.628	1.33
254.008	1.3
254.388	1.28
254.768	1.29
255.147	1.32
255.527	1.42
255.907	1.28
256.287	1.43
256.666	1.34
257.046	1.4
257.425	1.41
257.805	1.31
258.184	1.28
258.564	1.36
258.943	1.34
259.323	1.47
259.702	1.42
260.081	1.49
260.461	1.44
260.84	1.43
261.219	1.54
261.598	1.5
261.977	1.4
262.356	1.41
262.736	1.48
263.115	1.68
263.494	1.33
263.873	1.46
264.251	1.48
264.63	1.65
265.009	1.45
265.388	1.41
265.767	1.3
266.145	1.39
266.524	1.4
266.903	1.42
267.281	1.33
267.66	1.46
268.039	1.5
268.417	1.39
268.796	1.43
269.174	1.44
269.552	1.3
269.931	1.32
270.309	1.41
270.687	1.58
271.066	1.56
271.444	1.46
271.822	1.5
272.2	1.32
272.578	1.44
272.956	1.46
273.334	1.38
273.712	1.44
274.09	1.4
274.468	1.37
274.846	1.25
275.224	1.32
275.602	1.45
275.98	1.33
276.357	1.38
276.735	1.37
277.113	1.43
277.49	1.34
277.868	1.33
278.246	1.58
278.623	1.28
279.001	1.43
279.378	1.45
279.756	1.43
280.133	1.57
280.51	1.39
280.888	1.44
281.265	1.41
281.642	1.33
282.019	1.44
282.396	1.45
282.773	1.43
283.151	1.5
283.528	1.45
283.905	1.36
284.282	1.46
284.659	1.5
285.035	1.26
285.412	1.3
285.789	1.44
286.166	1.5
286.543	1.65
286.919	1.47
287.296	1.4
287.673	1.56
288.049	1.4
288.426	1.58
288.802	1.52
289.179	1.46
289.555	1.82
289.932	1.37
290.308	1.33
290.684	1.3
291.061	1.37
291.437	1.62
291.813	1.35
292.189	1.26
292.565	1.24
292.942	1.28
293.318	1.3
293.694	1.31
294.07	1.3
294.446	1.37
294.822	1.42
295.197	1.34
295.573	1.49
295.949	1.4
296.325	1.58
296.701	1.49
297.076	1.49
297.452	1.55
297.828	1.36
298.203	1.5
298.579	1.44
298.954	1.33
299.33	1.38
299.705	1.35
300.081	1.42
300.456	1.4
300.831	1.32
301.206	1.25
301.582	1.45
301.957	1.33
302.332	1.42
302.707	1.21
303.082	1.27
303.457	1.3
303.832	1.35
304.207	1.21
304.582	1.3
304.957	1.27
305.332	1.2
305.707	1.27
306.082	1.17
306.456	1.25
306.831	1.2
307.206	1.25
307.58	1.18
307.955	1.24
308.33	1.14
308.704	1.12
309.079	1.11
309.453	1.17
309.828	1.16
310.202	1.06
310.576	1.07
310.951	1.13
311.325	1.04
311.699	1.11
312.073	1.06
312.447	1.04
312.821	1.08
313.196	1.11
313.57	1.05
313.944	1.07
314.317	1
314.691	1.04
315.065	1.05
315.439	1.08
315.813	1.07
316.187	1.01
316.56	1.06
316.934	1.09
317.308	1.06
317.681	1.05
318.055	0.99
318.428	1.06
318.802	1.06
319.175	1.01
319.549	1.03
319.922	1
320.295	1.03
320.669	1.1
321.042	1.03
321.415	1.08
321.788	1.1
322.162	1
322.535	1.04
322.908	1.03
323.281	1.03
323.654	1.07
324.027	1.04
324.4	1.08
324.773	1.03
325.145	1.03
325.518	1.02
325.891	1.01
326.264	1.13
326.636	0.99
327.009	1.06
327.382	1.05
327.754	1.07
328.127	1.02
328.499	1.09
328.872	1.03
329.244	1.07
329.616	1.08
329.989	1.06
330.361	1.07
330.733	1.07
331.106	1.08
331.478	1.14
331.85	1.06
332.222	1.11
332.594	1.11
332.966	1.1
333.338	1.15
333.71	1.1
334.082	1.25
334.454	1.08
334.826	1.1
335.197	1.13
335.569	1.15
335.941	1.05
336.312	1.11
336.684	1.06
337.056	1.13
337.427	1.23
337.799	1.18
338.17	1.2
338.542	1.18
338.913	1.18
339.284	1.18
339.656	1.15
340.027	1.2
340.398	1.21
340.769	1.17
341.141	1.22
341.512	1.15
341.883	1.2
342.254	1.2
342.625	1.2
342.996	1.2
343.367	1.25
343.738	1.19
344.108	1.21
344.479	1.31
344.85	1.19
345.221	1.32
345.591	1.17
345.962	1.18
346.333	1.19
346.703	1.12
347.074	1.21
347.444	1.15
347.815	1.16
348.185	1.27
348.556	1.26
348.926	1.16
349.296	1.19
349.666	1.27
350.037	1.25
350.407	1.1
350.777	1.21
351.147	1.27
351.517	1.29
351.887	1.29
352.257	1.36
352.627	1.17
352.997	1.2
353.367	1.3
353.737	1.28
354.106	1.32
354.476	1.31
354.846	1.39
355.216	1.35
355.585	1.42
355.955	1.34
356.324	1.33
356.694	1.38
357.063	1.36
357.433	1.28
357.802	1.39
358.171	1.45
358.541	1.41
358.91	1.43
359.279	1.43
359.648	1.39
360.017	1.45
360.387	1.53
360.756	1.35
361.125	1.49
361.494	1.66
361.863	1.45
362.231	1.49
362.6	1.4
362.969	1.51
363.338	1.41
363.707	1.66
364.075	1.74
364.444	1.39
364.813	1.42
365.181	1.44
365.55	1.47
365.918	1.59
366.287	1.52
366.655	1.63
367.024	1.58
367.392	1.55
367.76	1.4
368.128	1.44
368.497	1.5
368.865	1.44
369.233	1.52
369.601	1.44
369.969	1.48
370.337	1.44
370.705	1.56
371.073	1.43
371.441	1.46
371.809	1.45
372.177	1.46
372.544	1.57
372.912	1.52
373.28	1.45
373.647	1.53
374.015	1.65
374.383	1.7
374.75	1.7
375.118	1.49
375.485	1.5
375.853	1.61
376.22	1.46
376.587	1.53
376.955	1.7
377.322	1.54
377.689	1.49
378.056	1.57
378.423	1.5
378.79	1.57
379.157	1.47
379.524	1.57
379.891	1.43
380.258	1.54
380.625	1.53
380.992	1.53
381.359	1.57
381.726	1.67
382.092	1.47
382.459	1.62
382.826	1.52
383.192	1.64
383.559	1.42
383.925	1.5
384.292	1.53
384.658	1.6
385.025	1.46
385.391	1.67
385.757	1.6
386.123	1.47
386.49	1.67
386.856	1.61
387.222	1.61
387.588	1.49
387.954	1.81
388.32	1.73
388.686	1.51
389.052	1.53
389.418	1.5
389.784	1.46
390.15	1.56
390.515	1.36
390.881	1.7
391.247	1.54
391.613	1.6
391.978	1.48
392.344	1.64
392.709	1.68
393.075	1.49
393.44	1.52
393.806	1.53
394.171	1.52
394.536	1.64
394.902	1.49
395.267	1.6
395.632	1.36
395.997	1.47
396.362	1.47
396.727	1.55
397.092	1.53
397.457	1.64
397.822	1.47
398.187	1.54
398.552	1.57
398.917	1.65
399.282	1.5
399.646	1.69
400.011	1.57
400.376	1.34
400.74	1.51
401.105	1.4
401.47	1.68
401.834	1.49
402.199	1.57
402.563	1.51
402.927	1.45
403.292	1.55
403.656	1.55
404.02	1.5
404.384	1.62
404.749	1.53
405.113	1.69
405.477	1.46
405.841	1.54
406.205	1.55
406.569	1.48
406.933	1.49
407.296	1.6
407.66	1.54
408.024	1.46
408.388	1.54
408.752	1.57
409.115	1.66
409.479	1.62
409.842	1.52
410.206	1.63
410.569	1.46
410.933	1.49
411.296	1.4
411.66	1.5
412.023	1.53
412.386	1.49
412.749	1.41
413.113	1.4
413.476	1.3
413.839	1.42
414.202	1.41
414.565	1.43
414.928	1.46
415.291	1.32
415.654	1.35
416.017	1.46
416.38	1.38
416.742	1.42
417.105	1.36
417.468	1.29
417.83	1.43
418.193	1.51
418.556	1.4
418.918	1.34
419.281	1.49
419.643	1.47
420.005	1.47
420.368	1.41
420.73	1.52
421.092	1.51
421.455	1.47
421.817	1.4
422.179	1.46
422.541	1.41
422.903	1.54
423.265	1.59
423.627	1.55
423.989	1.41
424.351	1.46
424.713	1.52
425.075	1.45
425.436	1.46
425.798	1.44
426.16	1.52
426.521	1.46
426.883	1.53
427.245	1.5
427.606	1.42
427.967	1.38
428.329	1.35
428.69	1.56
429.052	1.38
429.413	1.48
429.774	1.48
430.135	1.49
430.497	1.45
430.858	1.48
431.219	1.59
431.58	1.37
431.941	1.38
432.302	1.41
432.663	1.46
433.024	1.5
433.384	1.53
433.745	1.35
434.106	1.37
434.467	1.4
434.827	1.42
435.188	1.38
435.548	1.64
435.909	1.44
436.269	1.46
436.63	1.34
436.99	1.4
437.351	1.29
437.711	1.38
438.071	1.37
438.431	1.33
438.792	1.43
439.152	1.4
439.512	1.33
439.872	1.33
440.232	1.49
440.592	1.33
440.952	1.37
441.312	1.37
441.671	1.33
442.031	1.41
442.391	1.38
442.751	1.35
443.11	1.41
443.47	1.29
443.83	1.29
444.189	1.28
444.549	1.29
444.908	1.22
445.267	1.28
445.627	1.3
445.986	1.3
446.345	1.28
446.705	1.28
447.064	1.25
447.423	1.22
447.782	1.25
448.141	1.25
448.5	1.17
448.859	1.17
449.218	1.23
449.577	1.2
449.936	1.21
450.295	1.22
450.653	1.16
451.012	1.16
451.371	1.14
451.729	1.18
452.088	1.16
452.447	1.15
452.805	1.15
453.163	1.14
453.522	1.14
453.88	1.12
454.239	1.14
454.597	1.07
454.955	1.09
455.313	1.07
455.671	1.08
456.029	1.07
456.388	1.03
456.746	1.02
457.104	1.02
457.461	1.01
457.819	1.01
458.177	0.99
458.535	0.99
458.893	0.96
459.25	0.96
459.608	0.94
459.966	0.93
460.323	0.91
460.681	0.9
461.038	0.9
461.396	0.89
461.753	0.87
462.111	0.86
462.468	0.84
462.825	0.82
463.182	0.83
463.54	0.8
463.897	0.81
464.254	0.79
464.611	0.79
464.968	0.77
465.325	0.78
465.682	0.74
466.039	0.75
466.395	0.72
466.752	0.73
467.109	0.71
467.466	0.71
467.822	0.7
468.179	0.66
468.535	0.68
468.892	0.65
469.248	0.65
469.605	0.63
469.961	0.63
470.318	0.62
470.674	0.62
471.03	0.61
471.386	0.59
471.743	0.57
472.099	0.57
472.455	0.56
472.811	0.55
473.167	0.56
473.523	0.53
473.879	0.52
474.235	0.52
474.59	0.51
474.946	0.5
475.302	0.51
475.657	0.49
476.013	0.49
476.369	0.48
476.724	0.48
477.08	0.47
477.435	0.45
477.791	0.45
478.146	0.44
478.501	0.43
478.857	0.43
479.212	0.42
479.567	0.41
479.922	0.39
480.277	0.39
480.632	0.38
480.987	0.39
481.342	0.37
481.697	0.37
482.052	0.36
482.407	0.35
482.762	0.35
483.116	0.35
483.471	0.34
483.826	0.33
484.18	0.32
484.535	0.32
484.89	0.32
485.244	0.31
485.598	0.31
485.953	0.3
486.307	0.29
486.661	0.29
487.016	0.29
487.37	0.28
487.724	0.28
488.078	0.27
488.432	0.27
488.786	0.27
489.14	0.26
489.494	0.25
489.848	0.25
490.202	0.25
490.556	0.24
490.91	0.24
491.263	0.24
491.617	0.23
491.971	0.23
492.324	0.23
492.678	0.23
493.031	0.23
493.385	0.22
493.738	0.21
494.091	0.22
494.445	0.22
494.798	0.21
495.151	0.21
495.504	0.21
495.857	0.2
496.21	0.19
496.564	0.19
496.916	0.2
497.269	0.19
497.622	0.2
497.975	0.18
498.328	0.19
498.681	0.18
499.033	0.18
499.386	0.18
499.739	0.18
500.091	0.17
500.444	0.17
500.796	0.17
501.149	0.17
501.501	0.16
501.854	0.17
502.206	0.16
502.558	0.16
502.91	0.16
503.263	0.15
503.615	0.16
503.967	0.16
504.319	0.15
504.671	0.15
505.023	0.15
505.375	0.15
505.726	0.15
506.078	0.15
506.43	0.14
506.782	0.15
507.133	0.14
507.485	0.15
507.837	0.15
508.188	0.15
508.54	0.15
508.891	0.16
509.243	0.14
509.594	0.14
509.945	0.15
510.296	0.14
510.648	0.15
510.999	0.14
511.35	0.14
511.701	0.14
512.052	0.14
512.403	0.14
512.754	0.13
513.105	0.13
513.456	0.13
513.807	0.13
514.157	0.14
514.508	0.14
514.859	0.13
515.209	0.13
515.56	0.13
515.91	0.13
516.261	0.14
516.611	0.13
516.962	0.14
517.312	0.13
517.662	0.13
518.013	0.14
518.363	0.14
518.713	0.14
519.063	0.14
519.413	0.13
519.763	0.14
520.113	0.14
520.463	0.14
520.813	0.14
521.163	0.14
521.512	0.13
521.862	0.13
522.212	0.14
522.562	0.14
522.911	0.13
523.261	0.13
523.61	0.13
523.96	0.13
524.309	0.14
524.658	0.14
525.008	0.13
525.357	0.13
525.706	0.14
526.056	0.13
526.405	0.13
526.754	0.13
527.103	0.13
527.452	0.13
527.801	0.14
528.15	0.14
528.499	0.14
528.847	0.14
529.196	0.15
529.545	0.14
529.893	0.14
530.242	0.14
530.591	0.14
530.939	0.14
531.288	0.14
531.636	0.15
531.985	0.14
532.333	0.14
532.681	0.14
533.029	0.14
533.378	0.14
533.726	0.14
534.074	0.14
534.422	0.14
534.77	0.14
535.118	0.14
535.466	0.14
535.814	0.14
536.162	0.14
536.509	0.15
536.857	0.14
537.205	0.15
537.552	0.14
537.9	0.14
538.248	0.13
538.595	0.14
538.943	0.15
539.29	0.14
539.637	0.13
539.985	0.14
540.332	0.14
540.679	0.13
541.026	0.13
541.373	0.14
541.721	0.14
542.068	0.14
542.415	0.14
542.762	0.14
543.108	0.13
543.455	0.13
543.802	0.13
544.149	0.14
544.496	0.14
544.842	0.13
545.189	0.12
545.535	0.13
545.882	0.13
546.228	0.13
546.575	0.12
546.921	0.13
547.267	0.13
547.614	0.13
547.96	0.13
548.306	0.13
548.652	0.13
548.998	0.13
549.344	0.14
549.69	0.13
550.036	0.13
550.382	0.13
550.728	0.13
551.074	0.14
551.42	0.14
551.765	0.13
552.111	0.15
552.457	0.14
552.802	0.13
553.148	0.14
553.493	0.14
553.839	0.13
554.184	0.14
554.529	0.13
554.875	0.14
555.22	0.14
555.565	0.14
555.91	0.13
556.255	0.15
556.6	0.14
556.945	0.13
557.29	0.14
557.635	0.14
557.98	0.14
558.325	0.14
558.67	0.14
559.014	0.13
559.359	0.14
559.704	0.13
560.048	0.14
560.393	0.13
560.737	0.12
561.082	0.13
561.426	0.12
561.77	0.13
562.115	0.13
562.459	0.13
562.803	0.13
563.147	0.14
563.491	0.14
563.835	0.14
564.179	0.13
564.523	0.13
564.867	0.13
565.211	0.13
565.555	0.13
565.899	0.15
566.242	0.14
566.586	0.13
566.93	0.14
567.273	0.14
567.617	0.13
567.96	0.14
568.304	0.14
568.647	0.14
568.99	0.15
569.334	0.15
569.677	0.14
570.02	0.15
570.363	0.14
570.706	0.14
571.049	0.14
571.392	0.14
571.735	0.14
572.078	0.14
572.421	0.14
572.764	0.14
573.106	0.14
573.449	0.14
573.792	0.14
574.134	0.14
574.477	0.14
574.819	0.14
575.162	0.14
575.504	0.13
575.847	0.14
576.189	0.15
576.531	0.13
576.873	0.14
577.215	0.13
577.558	0.14
577.9	0.13
578.242	0.15
578.584	0.14
578.926	0.13
579.267	0.13
579.609	0.13
579.951	0.14
580.293	0.13
580.634	0.13
580.976	0.14
581.318	0.14
581.659	0.14
582.001	0.13
582.342	0.14
582.683	0.14
583.025	0.13
583.366	0.13
583.707	0.14
584.049	0.13
584.39	0.13
584.731	0.13
585.072	0.13
585.413	0.14
585.754	0.14
586.095	0.14
586.435	0.14
586.776	0.13
587.117	0.14
587.458	0.13
587.798	0.14
588.139	0.14
588.48	0.13
588.82	0.14
589.161	0.13
589.501	0.13
589.841	0.13
590.182	0.13
590.522	0.13
590.862	0.14
591.202	0.13
591.542	0.13
591.882	0.13
592.222	0.13
592.562	0.13
592.902	0.13
593.242	0.13
593.582	0.14
593.922	0.13
594.261	0.12
594.601	0.13
594.941	0.13
595.28	0.13
595.62	0.12
595.959	0.13
596.299	0.13
596.638	0.13
596.977	0.13
597.317	0.14
597.656	0.14
597.995	0.13
598.334	0.14
598.673	0.13
599.012	0.13
599.351	0.14
599.69	0.13
600.029	0.14
600.368	0.14
600.707	0.14
601.046	0.14
601.384	0.15
601.723	0.15
602.061	0.14
602.4	0.14
602.738	0.14
603.077	0.13
603.415	0.14
603.754	0.14
604.092	0.14
604.43	0.13
604.768	0.14
605.107	0.13
605.445	0.13
605.783	0.12
606.121	0.12
606.459	0.12
606.796	0.13
607.134	0.13
607.472	0.13
607.81	0.13
608.148	0.13
608.485	0.13
608.823	0.13
609.16	0.13
609.498	0.13
609.835	0.13
610.173	0.13
610.51	0.14
610.847	0.14
611.185	0.13
611.522	0.13
611.859	0.14
612.196	0.13
612.533	0.14
612.87	0.14
613.207	0.14
613.544	0.13
613.881	0.14
614.217	0.14
614.554	0.14
614.891	0.14
615.228	0.14
615.564	0.14
615.901	0.14
616.237	0.15
616.574	0.14
616.91	0.14
617.246	0.14
617.583	0.13
617.919	0.14
618.255	0.14
618.591	0.14
618.927	0.14
619.263	0.15
619.599	0.14
619.935	0.14
620.271	0.14
620.607	0.15
620.943	0.14
621.279	0.15
621.614	0.14
621.95	0.14
622.286	0.14
622.621	0.13
622.957	0.14
623.292	0.13
623.627	0.13
623.963	0.13
624.298	0.13
624.633	0.12
624.968	0.13
625.304	0.13
625.639	0.13
625.974	0.13
626.309	0.12
626.644	0.13
626.979	0.13
627.313	0.13
627.648	0.13
627.983	0.13
628.318	0.12
628.652	0.13
628.987	0.12
629.321	0.13
629.656	0.12
629.99	0.12
630.325	0.13
630.659	0.12
630.993	0.12
631.327	0.12
631.662	0.11
631.996	0.11
632.33	0.11
632.664	0.12
632.998	0.11
633.332	0.12
633.666	0.11
633.999	0.12
634.333	0.11
634.667	0.12
635.001	0.11
635.334	0.12
635.668	0.1
636.001	0.11
636.335	0.12
636.668	0.12
637.001	0.11
637.335	0.11
637.668	0.11
638.001	0.11
638.334	0.11
638.668	0.1
639.001	0.11
639.334	0.1
639.667	0.11
639.999	0.11
640.332	0.11
640.665	0.1
640.998	0.11
641.331	0.11
641.663	0.11
641.996	0.11
642.328	0.11
642.661	0.12
642.993	0.11
643.326	0.12
643.658	0.11
643.99	0.11
644.323	0.11
644.655	0.12
644.987	0.12
645.319	0.12
645.651	0.12
645.983	0.11
646.315	0.11
646.647	0.12
646.979	0.13
647.31	0.12
647.642	0.12
647.974	0.12
648.305	0.13
648.637	0.12
648.968	0.12
649.3	0.12
649.631	0.12
649.963	0.11
650.294	0.12
650.625	0.11
650.957	0.12
651.288	0.11
651.619	0.12
651.95	0.11
652.281	0.12
652.612	0.12
652.943	0.12
653.274	0.11
653.604	0.11
653.935	0.12
654.266	0.12
654.596	0.11
654.927	0.12
655.258	0.12
655.588	0.12
655.918	0.12
656.249	0.09
656.579	0.11
656.909	0.11
657.24	0.11
657.57	0.11
657.9	0.11
658.23	0.11
658.56	0.11
658.89	0.11
659.22	0.11
659.55	0.11
659.88	0.11
660.209	0.12
660.539	0.12
660.869	0.11
661.198	0.11
661.528	0.11
661.857	0.11
662.187	0.11
662.516	0.12
662.846	0.11
663.175	0.1
663.504	0.11
663.833	0.1
664.163	0.11
664.492	0.1
664.821	0.1
665.15	0.1
665.479	0.11
665.807	0.1
666.136	0.11
666.465	0.11
666.794	0.11
667.122	0.11
667.451	0.11
667.78	0.11
668.108	0.11
668.437	0.11
668.765	0.11
669.093	0.11
669.422	0.11
669.75	0.11
670.078	0.11
670.406	0.11
670.734	0.12
671.062	0.11
671.39	0.11
671.718	0.11
672.046	0.11
672.374	0.11
672.702	0.11
673.029	0.1
673.357	0.11
673.685	0.11
674.012	0.11
674.34	0.11
674.667	0.11
674.995	0.11
675.322	0.11
675.649	0.1
675.977	0.1
676.304	0.11
676.631	0.11
676.958	0.11
677.285	0.1
677.612	0.1
677.939	0.1
678.266	0.11
678.593	0.1
678.92	0.11
679.246	0.1
679.573	0.1
679.9	0.1
680.226	0.11
680.553	0.09
680.879	0.1
681.206	0.1
681.532	0.1
681.858	0.11
682.184	0.1
682.511	0.1
682.837	0.1
683.163	0.11
683.489	0.11
683.815	0.11
684.141	0.1
684.467	0.11
684.793	0.1
685.118	0.11
685.444	0.1
685.77	0.1
686.095	0.1
686.421	0.1
686.746	0.1
687.072	0.1
687.397	0.09
687.723	0.1
688.048	0.1
688.373	0.09
688.698	0.1
689.023	0.09
689.349	0.09
689.674	0.1
689.999	0.09
690.323	0.09
690.648	0.09
690.973	0.08
691.298	0.09
691.623	0.09
691.947	0.09
692.272	0.09
692.596	0.09
692.921	0.09
693.245	0.09
693.57	0.1
693.894	0.1
694.218	0.1
694.543	0.09
694.867	0.09
695.191	0.09
695.515	0.09
695.839	0.09
696.163	0.1
696.487	0.1
696.811	0.1
697.135	0.1
697.458	0.1
697.782	0.09
698.106	0.09
698.429	0.09
698.753	0.09
699.076	0.1
699.4	0.09
699.723	0.1
700.046	0.09
700.37	0.09
700.693	0.1
701.016	0.09
701.339	0.09
701.662	0.1
701.985	0.1
702.308	0.08
702.631	0.09
702.954	0.09
703.277	0.09
703.599	0.09
703.922	0.08
704.245	0.09
704.567	0.08
704.89	0.08
705.212	0.08
705.535	0.08
705.857	0.08
706.179	0.07
706.502	0.07
706.824	0.08
707.146	0.08
707.468	0.09
707.79	0.08
708.112	0.08
708.434	0.08
708.756	0.08
709.078	0.08
709.399	0.08
709.721	0.08
710.043	0.08
710.364	0.08
710.686	0.08
711.007	0.08
711.329	0.09
711.65	0.08
711.972	0.08
712.293	0.09
712.614	0.09
712.935	0.09
713.256	0.09
713.577	0.09
713.898	0.08
714.219	0.09
714.54	0.09
714.861	0.08
715.182	0.08
715.503	0.08
715.823	0.08
716.144	0.08
716.464	0.08
716.785	0.08
717.105	0.08
717.426	0.08
717.746	0.07
718.066	0.07
718.387	0.08
718.707	0.07
719.027	0.08
719.347	0.07
719.667	0.08
719.987	0.08
720.307	0.07
720.627	0.07
720.947	0.08
721.266	0.07
721.586	0.06
721.906	0.07
722.225	0.06
722.545	0.07
722.864	0.06
723.184	0.08
723.503	0.07
723.823	0.07
724.142	0.07
724.461	0.07
724.78	0.07
725.099	0.08
725.418	0.07
725.737	0.07
726.056	0.08
726.375	0.07
726.694	0.07
727.013	0.08
727.331	0.07
727.65	0.07
727.969	0.07
728.287	0.07
728.606	0.07
728.924	0.07
729.242	0.06
729.561	0.07
729.879	0.07
730.197	0.07
730.515	0.06
730.834	0.07
731.152	0.07
731.47	0.06
731.788	0.07
732.105	0.06
732.423	0.07
732.741	0.07
733.059	0.07
733.376	0.08
733.694	0.07
734.012	0.07
734.329	0.08
734.647	0.08
734.964	0.08
735.281	0.08
735.599	0.08
735.916	0.08
736.233	0.08
736.55	0.07
736.867	0.08
737.184	0.09
737.501	0.07
737.818	0.07
738.135	0.08
738.452	0.08
738.768	0.08
739.085	0.07
739.402	0.07
739.718	0.07
740.035	0.07
740.351	0.08
740.668	0.07
740.984	0.08
741.3	0.07
741.617	0.07
741.933	0.07
742.249	0.08
742.565	0.07
742.881	0.07
743.197	0.07
743.513	0.06
743.829	0.06
744.144	0.06
744.46	0.07
744.776	0.08
745.091	0.06
745.407	0.07
745.722	0.06
746.038	0.07
746.353	0.06
746.669	0.08
746.984	0.06
747.299	0.07
747.614	0.07
747.93	0.07
748.245	0.05
748.56	0.06
748.875	0.05
749.189	0.06
749.504	0.06
749.819	0.07
750.134	0.07
750.448	0.06
750.763	0.07
751.078	0.05
751.392	0.05
751.707	0.07
752.021	0.07
752.335	0.07
752.65	0.07
752.964	0.06
753.278	0.06
753.592	0.06
753.906	0.06
754.22	0.06
754.534	0.06
754.848	0.06
755.162	0.06
755.476	0.06
755.789	0.07
756.103	0.06
756.417	0.07
756.73	0.07
757.044	0.06
757.357	0.06
757.671	0.06
757.984	0.06
758.297	0.07
758.61	0.07
758.924	0.06
759.237	0.06
759.55	0.06
759.863	0.06
760.176	0.06
760.488	0.06
760.801	0.05
761.114	0.05
761.427	0.06
761.739	0.06
762.052	0.06
762.365	0.05
762.677	0.06
762.99	0.06
763.302	0.06
763.614	0.06
763.926	0.06
764.239	0.06
764.551	0.06
764.863	0.07
765.175	0.07
765.487	0.06
765.799	0.06
766.111	0.06
766.423	0.06
766.734	0.06
767.046	0.05
767.358	0.06
767.669	0.05
767.981	0.06
768.292	0.05
768.604	0.06
768.915	0.05
769.226	0.06
769.537	0.05
769.849	0.06
770.16	0.05
770.471	0.05
770.782	0.05
771.093	0.05
771.404	0.04
771.715	0.05
772.025	0.05
772.336	0.06
772.647	0.05
772.957	0.05
773.268	0.05
773.578	0.06
773.889	0.05
774.199	0.06
774.51	0.05
774.82	0.05
775.13	0.06
775.44	0.05
775.75	0.06
776.06	0.06
776.37	0.06
776.68	0.06
776.99	0.06
777.3	0.06
777.61	0.07
777.92	0.06
778.229	0.06
778.539	0.06
778.848	0.06
779.158	0.06
779.467	0.07
779.777	0.06
780.086	0.07
780.395	0.06
780.704	0.05
781.013	0.06
781.323	0.05
781.632	0.06
781.941	0.06
782.249	0.05
782.558	0.06
782.867	0.06
783.176	0.05
783.485	0.06
783.793	0.06
784.102	0.06
784.41	0.06
784.719	0.05
785.027	0.05
785.335	0.05
785.644	0.06
785.952	0.05
786.26	0.06
786.568	0.05
786.876	0.05
787.184	0.05
787.492	0.06
787.8	0.06
788.108	0.06
788.416	0.05
788.723	0.06
789.031	0.05
789.338	0.05
789.646	0.05
789.953	0.05
790.261	0.06
790.568	0.05
790.876	0.06
791.183	0.07
791.49	0.05
791.797	0.06
792.104	0.05
792.411	0.06
792.718	0.05
793.025	0.05
793.332	0.05
793.639	0.06
793.945	0.06
794.252	0.06
794.559	0.05
794.865	0.06
795.172	0.05
795.478	0.06
795.784	0.05
796.091	0.06
796.397	0.07
796.703	0.06
797.009	0.07
797.315	0.06
797.622	0.05
797.927	0.06
798.233	0.06
798.539	0.07
798.845	0.07
799.151	0.07
799.456	0.06
799.762	0.05
800.068	0.06
800.373	0.07
800.679	0.06
800.984	0.06
801.289	0.05
801.595	0.06
801.9	0.06
802.205	0.06
802.51	0.06
802.815	0.06
803.12	0.06
803.425	0.06
803.73	0.06
804.035	0.06
804.339	0.05
804.644	0.05
804.949	0.06
805.253	0.05
805.558	0.05
805.862	0.05
806.167	0.06
806.471	0.05
806.775	0.06
807.08	0.06
807.384	0.05
807.688	0.06
807.992	0.06
808.296	0.05
808.6	0.06
808.904	0.07
809.207	0.06
809.511	0.07
809.815	0.07
810.119	0.06
810.422	0.06
810.726	0.07
811.029	0.07
811.332	0.06
811.636	0.07
811.939	0.06
812.242	0.06
812.546	0.07
812.849	0.06
813.152	0.07
813.455	0.07
813.758	0.06
814.06	0.06
814.363	0.06
814.666	0.06
814.969	0.06
815.271	0.06
815.574	0.06
815.877	0.05
816.179	0.06
816.481	0.05
816.784	0.06
817.086	0.05
817.388	0.04
817.69	0.04
817.993	0.04
818.295	0.05
818.597	0.05
818.899	0.05
819.2	0.04
819.502	0.05
819.804	0.05
820.106	0.04
820.407	0.04
820.709	0.05
821.01	0.05
821.312	0.05
821.613	0.04
821.915	0.04
822.216	0.04
822.517	0.04
822.818	0.04
823.119	0.05
823.42	0.04
823.721	0.03
824.022	0.04
824.323	0.05
824.624	0.04
824.925	0.05
825.226	0.05
825.526	0.04
825.827	0.04
826.127	0.05
826.428	0.04
826.728	0.03
827.028	0.03
827.329	0.04
827.629	0.03
827.929	0.04
828.229	0.04
828.529	0.04
828.829	0.04
829.129	0.04
829.429	0.03
829.729	0.03
830.029	0.03
830.328	0.04
830.628	0.03
830.927	0.03
831.227	0.03
831.526	0.03
831.826	0.04
832.125	0.03
832.424	0.03
832.724	0.03
833.023	0.03
833.322	0.03
833.621	0.03
833.92	0.02
834.219	0.03
834.518	0.03
834.816	0.02
835.115	0.02
835.414	0.03
835.712	0.02
836.011	0.02
836.309	0.02
836.608	0.01
836.906	0.01
837.205	0.01
837.503	0.01
837.801	0.01
838.099	-0
838.397	-0.01
838.695	-0
838.993	0
839.291	-0.01
839.589	-0
839.887	-0.01
840.184	-0.01
840.482	-0.01
840.78	-0
841.077	-0.02
841.375	-0.01
841.672	-0.01
841.969	-0.01
842.267	-0.02
842.564	-0.01
842.861	-0
843.158	-0.01
843.455	-0.02
843.752	-0.02
844.049	-0.02
844.346	-0.02
844.643	-0.02
844.94	-0.03
845.236	-0.01
845.533	-0.02
845.83	-0.02
846.126	-0.02
846.423	-0.02
846.719	-0.03
847.015	-0.02
847.312	-0.02
847.608	-0.03
847.904	-0.03
848.2	-0.04
848.496	-0.04
848.792	-0.03
849.088	-0.02
849.384	-0.04
849.68	-0.05
849.975	-0.04
850.271	-0.04
850.567	-0.05
850.862	-0.06
851.158	-0.05
851.453	-0.05
851.748	-0.06
852.044	-0.05
852.339	-0.05
852.634	-0.07
852.929	-0.05
853.224	-0.06
853.519	-0.06
853.814	-0.05
854.109	-0.07
854.404	-0.06
854.699	-0.07
854.994	-0.06
855.288	-0.05
855.583	-0.06
855.877	-0.06
856.172	-0.06
856.466	-0.06
856.76	-0.06
857.055	-0.05
857.349	-0.07
857.643	-0.07
857.937	-0.08
858.231	-0.08
858.525	-0.08
858.819	-0.08
859.113	-0.09
859.407	-0.09
859.701	-0.1
859.994	-0.1
860.288	-0.09
860.581	-0.09
860.875	-0.1
861.168	-0.1
861.462	-0.1
861.755	-0.1
862.048	-0.1
862.341	-0.11
862.634	-0.1
862.928	-0.11
863.221	-0.1
863.513	-0.12
863.806	-0.11
864.099	-0.11
864.392	-0.11
864.685	-0.1
864.977	-0.11
865.27	-0.11
865.562	-0.12
865.855	-0.11
866.147	-0.12
866.44	-0.11
866.732	-0.12
867.024	-0.12
867.316	-0.12
867.608	-0.13
867.9	-0.12
868.192	-0.12
868.484	-0.13
868.776	-0.13
869.068	-0.12
869.359	-0.12
869.651	-0.13
869.943	-0.14
870.234	-0.14
870.526	-0.14
870.817	-0.14
871.108	-0.13
871.4	-0.14
871.691	-0.15
871.982	-0.15
872.273	-0.16
872.564	-0.14
872.855	-0.15
873.146	-0.15
873.437	-0.16
873.728	-0.16
874.019	-0.15
874.309	-0.15
874.6	-0.15
874.89	-0.16
875.181	-0.16
875.471	-0.15
875.762	-0.14
876.052	-0.15
876.342	-0.14
876.632	-0.15
876.922	-0.17
877.213	-0.16
877.503	-0.17
877.792	-0.16
878.082	-0.17
878.372	-0.16
878.662	-0.17
878.952	-0.17
879.241	-0.17
879.531	-0.17
879.82	-0.17
880.11	-0.17
880.399	-0.17
880.688	-0.15
880.978	-0.15
881.267	-0.15
