Data from 12-12-AQDScycling_Absorbance__535__00535.txt Node

Date: Tue Dec 12 13:10:29 EST 2023
User: kyuminlee
Spectrometer: FLMS00943
Trigger mode: 0
Integration Time (sec): 1.000000E-1
Scans to average: 1
Electric dark correction enabled: true
Nonlinearity correction enabled: false
Boxcar width: 0
XAxis mode: Wavelengths
Number of Pixels in Spectrum: 2048
>>>>>Begin Spectral Data<<<<<
179.651	-0
180.037	-0
180.424	-0
180.81	-0.22
181.197	0.08
181.583	-0.68
181.97	-0.12
182.356	-0
182.743	-0
183.129	-0
183.515	-0.08
183.901	-2.35
184.288	0.49
184.674	-0
185.06	-0.76
185.446	-0
185.832	-1.11
186.218	0.1
186.604	1.15
186.99	-0
187.376	0.2
187.762	0.19
188.148	0.44
188.534	-0.02
188.92	0.17
189.305	-0.01
189.691	0.25
190.077	0.04
190.463	0.11
190.848	0.16
191.234	0.16
191.619	0.03
192.005	0.19
192.391	0.13
192.776	0.23
193.161	0.21
193.547	0.05
193.932	0.14
194.318	0.06
194.703	0.11
195.088	0.34
195.473	0.12
195.859	0.19
196.244	0.2
196.629	0.15
197.014	0.07
197.399	0.19
197.784	0.24
198.169	0.24
198.554	0.4
198.939	0.13
199.324	0.11
199.709	0.16
200.094	0.07
200.478	0.25
200.863	0.23
201.248	0.23
201.633	0.07
202.017	0.1
202.402	0.12
202.787	0.14
203.171	0.13
203.556	0.19
203.94	0.18
204.325	0.19
204.709	0.17
205.093	0.21
205.478	0.11
205.862	0.16
206.246	0.31
206.631	0.01
207.015	0.17
207.399	0.21
207.783	0.11
208.167	0.16
208.551	0.22
208.935	0.17
209.319	0.13
209.703	0.16
210.087	0.31
210.471	0.12
210.855	0.11
211.239	0.26
211.623	0.27
212.007	0.16
212.39	0.35
212.774	0.18
213.158	0.07
213.541	0.25
213.925	0.18
214.309	0.29
214.692	0.32
215.076	0.32
215.459	0.12
215.842	0.21
216.226	0.34
216.609	0.41
216.993	0.18
217.376	0.26
217.759	0.16
218.142	0.31
218.525	0.56
218.909	0.39
219.292	0.32
219.675	0.5
220.058	0.39
220.441	0.38
220.824	0.58
221.207	0.96
221.59	0.58
221.973	0.57
222.355	0.68
222.738	0.82
223.121	0.63
223.504	0.57
223.886	0.66
224.269	0.8
224.652	0.61
225.034	0.85
225.417	0.84
225.799	0.77
226.182	0.82
226.564	0.95
226.947	0.72
227.329	0.79
227.711	0.94
228.094	0.91
228.476	0.89
228.858	0.8
229.24	0.84
229.623	0.87
230.005	0.8
230.387	0.73
230.769	0.82
231.151	0.98
231.533	1.04
231.915	0.91
232.297	1.02
232.679	1
233.061	0.91
233.442	0.99
233.824	1.11
234.206	1.2
234.588	1.12
234.969	1.16
235.351	0.93
235.733	1.01
236.114	1.15
236.496	1.08
236.877	1.16
237.259	1.19
237.64	1.15
238.022	1.01
238.403	1.03
238.784	0.98
239.165	1.01
239.547	1.21
239.928	1.21
240.309	1.15
240.69	1.05
241.071	1.11
241.452	1.2
241.834	0.98
242.215	1.03
242.595	1.03
242.976	1.09
243.357	1.07
243.738	1.07
244.119	1.33
244.5	1.11
244.881	1.18
245.261	1.17
245.642	1.19
246.023	1.16
246.403	1.23
246.784	1.22
247.164	1.22
247.545	1.34
247.925	1.42
248.306	1.36
248.686	1.59
249.067	1.16
249.447	1.4
249.827	1.48
250.207	1.48
250.588	1.22
250.968	1.48
251.348	1.21
251.728	1.44
252.108	1.37
252.488	1.33
252.868	1.36
253.248	1.44
253.628	1.33
254.008	1.56
254.388	1.35
254.768	1.37
255.147	1.4
255.527	1.39
255.907	1.4
256.287	1.34
256.666	1.3
257.046	1.52
257.425	1.5
257.805	1.3
258.184	1.28
258.564	1.3
258.943	1.29
259.323	1.58
259.702	1.38
260.081	1.52
260.461	1.45
260.84	1.47
261.219	1.67
261.598	1.59
261.977	1.53
262.356	1.46
262.736	1.55
263.115	1.61
263.494	1.42
263.873	1.43
264.251	1.46
264.63	1.65
265.009	1.38
265.388	1.46
265.767	1.43
266.145	1.46
266.524	1.51
266.903	1.39
267.281	1.41
267.66	1.56
268.039	1.47
268.417	1.43
268.796	1.41
269.174	1.45
269.552	1.27
269.931	1.4
270.309	1.49
270.687	1.55
271.066	1.76
271.444	1.38
271.822	1.45
272.2	1.4
272.578	1.26
272.956	1.31
273.334	1.34
273.712	1.32
274.09	1.64
274.468	1.4
274.846	1.25
275.224	1.38
275.602	1.49
275.98	1.55
276.357	1.43
276.735	1.46
277.113	1.44
277.49	1.3
277.868	1.26
278.246	1.46
278.623	1.25
279.001	1.34
279.378	1.39
279.756	1.6
280.133	1.52
280.51	1.42
280.888	1.48
281.265	1.36
281.642	1.37
282.019	1.54
282.396	1.58
282.773	1.5
283.151	1.41
283.528	1.51
283.905	1.45
284.282	1.49
284.659	1.7
285.035	1.37
285.412	1.43
285.789	1.44
286.166	1.44
286.543	1.47
286.919	1.44
287.296	1.34
287.673	1.7
288.049	1.5
288.426	1.62
288.802	1.57
289.179	1.41
289.555	1.57
289.932	1.55
290.308	1.33
290.684	1.38
291.061	1.35
291.437	1.47
291.813	1.41
292.189	1.3
292.565	1.36
292.942	1.45
293.318	1.35
293.694	1.39
294.07	1.33
294.446	1.29
294.822	1.58
295.197	1.29
295.573	1.43
295.949	1.42
296.325	1.41
296.701	1.52
297.076	1.54
297.452	1.55
297.828	1.53
298.203	1.56
298.579	1.43
298.954	1.44
299.33	1.43
299.705	1.39
300.081	1.43
300.456	1.4
300.831	1.35
301.206	1.44
301.582	1.5
301.957	1.45
302.332	1.46
302.707	1.32
303.082	1.37
303.457	1.39
303.832	1.39
304.207	1.34
304.582	1.31
304.957	1.31
305.332	1.37
305.707	1.45
306.082	1.29
306.456	1.38
306.831	1.24
307.206	1.24
307.58	1.34
307.955	1.23
308.33	1.32
308.704	1.23
309.079	1.25
309.453	1.38
309.828	1.25
310.202	1.29
310.576	1.24
310.951	1.34
311.325	1.27
311.699	1.3
312.073	1.27
312.447	1.16
312.821	1.21
313.196	1.32
313.57	1.21
313.944	1.17
314.317	1.19
314.691	1.23
315.065	1.27
315.439	1.31
315.813	1.28
316.187	1.16
316.56	1.29
316.934	1.24
317.308	1.29
317.681	1.25
318.055	1.28
318.428	1.29
318.802	1.26
319.175	1.21
319.549	1.25
319.922	1.2
320.295	1.19
320.669	1.33
321.042	1.26
321.415	1.36
321.788	1.24
322.162	1.25
322.535	1.27
322.908	1.3
323.281	1.22
323.654	1.29
324.027	1.22
324.4	1.34
324.773	1.26
325.145	1.28
325.518	1.26
325.891	1.24
326.264	1.42
326.636	1.22
327.009	1.2
327.382	1.21
327.754	1.36
328.127	1.28
328.499	1.31
328.872	1.3
329.244	1.26
329.616	1.31
329.989	1.29
330.361	1.26
330.733	1.32
331.106	1.22
331.478	1.39
331.85	1.29
332.222	1.3
332.594	1.3
332.966	1.31
333.338	1.45
333.71	1.39
334.082	1.41
334.454	1.32
334.826	1.39
335.197	1.38
335.569	1.32
335.941	1.37
336.312	1.28
336.684	1.42
337.056	1.3
337.427	1.31
337.799	1.43
338.17	1.37
338.542	1.29
338.913	1.36
339.284	1.31
339.656	1.29
340.027	1.35
340.398	1.45
340.769	1.31
341.141	1.39
341.512	1.33
341.883	1.44
342.254	1.28
342.625	1.44
342.996	1.36
343.367	1.32
343.738	1.35
344.108	1.28
344.479	1.38
344.85	1.26
345.221	1.47
345.591	1.34
345.962	1.24
346.333	1.35
346.703	1.2
347.074	1.32
347.444	1.29
347.815	1.27
348.185	1.29
348.556	1.28
348.926	1.26
349.296	1.33
349.666	1.25
350.037	1.25
350.407	1.3
350.777	1.32
351.147	1.35
351.517	1.27
351.887	1.27
352.257	1.37
352.627	1.34
352.997	1.28
353.367	1.35
353.737	1.41
354.106	1.45
354.476	1.32
354.846	1.43
355.216	1.42
355.585	1.43
355.955	1.32
356.324	1.38
356.694	1.37
357.063	1.32
357.433	1.35
357.802	1.38
358.171	1.45
358.541	1.37
358.91	1.47
359.279	1.41
359.648	1.31
360.017	1.57
360.387	1.48
360.756	1.41
361.125	1.46
361.494	1.44
361.863	1.42
362.231	1.42
362.6	1.46
362.969	1.41
363.338	1.36
363.707	1.57
364.075	1.45
364.444	1.42
364.813	1.35
365.181	1.44
365.55	1.41
365.918	1.5
366.287	1.46
366.655	1.5
367.024	1.51
367.392	1.5
367.76	1.5
368.128	1.53
368.497	1.55
368.865	1.47
369.233	1.58
369.601	1.63
369.969	1.49
370.337	1.37
370.705	1.35
371.073	1.45
371.441	1.46
371.809	1.51
372.177	1.47
372.544	1.59
372.912	1.66
373.28	1.54
373.647	1.57
374.015	1.72
374.383	1.59
374.75	1.76
375.118	1.52
375.485	1.66
375.853	1.63
376.22	1.48
376.587	1.5
376.955	1.54
377.322	1.5
377.689	1.51
378.056	1.46
378.423	1.43
378.79	1.45
379.157	1.45
379.524	1.53
379.891	1.39
380.258	1.56
380.625	1.47
380.992	1.57
381.359	1.49
381.726	1.71
382.092	1.54
382.459	1.47
382.826	1.49
383.192	1.54
383.559	1.51
383.925	1.5
384.292	1.48
384.658	1.59
385.025	1.48
385.391	1.59
385.757	1.62
386.123	1.66
386.49	1.5
386.856	1.5
387.222	1.62
387.588	1.55
387.954	1.83
388.32	1.73
388.686	1.62
389.052	1.61
389.418	1.64
389.784	1.51
390.15	1.73
390.515	1.44
390.881	1.7
391.247	1.47
391.613	1.6
391.978	1.51
392.344	1.68
392.709	1.58
393.075	1.64
393.44	1.73
393.806	1.59
394.171	1.41
394.536	1.58
394.902	1.51
395.267	1.51
395.632	1.46
395.997	1.55
396.362	1.49
396.727	1.55
397.092	1.53
397.457	1.64
397.822	1.56
398.187	1.53
398.552	1.6
398.917	1.63
399.282	1.49
399.646	1.59
400.011	1.58
400.376	1.48
400.74	1.49
401.105	1.49
401.47	1.63
401.834	1.53
402.199	1.49
402.563	1.59
402.927	1.46
403.292	1.56
403.656	1.64
404.02	1.58
404.384	1.62
404.749	1.51
405.113	1.59
405.477	1.64
405.841	1.65
406.205	1.56
406.569	1.46
406.933	1.54
407.296	1.45
407.66	1.49
408.024	1.64
408.388	1.63
408.752	1.5
409.115	1.5
409.479	1.55
409.842	1.51
410.206	1.42
410.569	1.42
410.933	1.44
411.296	1.38
411.66	1.64
412.023	1.37
412.386	1.51
412.749	1.39
413.113	1.46
413.476	1.39
413.839	1.41
414.202	1.43
414.565	1.41
414.928	1.41
415.291	1.29
415.654	1.46
416.017	1.52
416.38	1.31
416.742	1.33
417.105	1.4
417.468	1.39
417.83	1.51
418.193	1.54
418.556	1.36
418.918	1.34
419.281	1.32
419.643	1.44
420.005	1.3
420.368	1.4
420.73	1.38
421.092	1.4
421.455	1.45
421.817	1.3
422.179	1.39
422.541	1.38
422.903	1.49
423.265	1.43
423.627	1.41
423.989	1.37
424.351	1.34
424.713	1.46
425.075	1.36
425.436	1.33
425.798	1.31
426.16	1.39
426.521	1.36
426.883	1.36
427.245	1.42
427.606	1.39
427.967	1.28
428.329	1.35
428.69	1.34
429.052	1.32
429.413	1.51
429.774	1.42
430.135	1.44
430.497	1.36
430.858	1.28
431.219	1.35
431.58	1.29
431.941	1.31
432.302	1.29
432.663	1.29
433.024	1.38
433.384	1.25
433.745	1.27
434.106	1.4
434.467	1.32
434.827	1.32
435.188	1.31
435.548	1.4
435.909	1.34
436.269	1.33
436.63	1.27
436.99	1.3
437.351	1.3
437.711	1.26
438.071	1.28
438.431	1.24
438.792	1.27
439.152	1.24
439.512	1.27
439.872	1.19
440.232	1.24
440.592	1.27
440.952	1.24
441.312	1.21
441.671	1.22
442.031	1.23
442.391	1.19
442.751	1.27
443.11	1.23
443.47	1.14
443.83	1.18
444.189	1.16
444.549	1.19
444.908	1.16
445.267	1.16
445.627	1.14
445.986	1.15
446.345	1.08
446.705	1.15
447.064	1.14
447.423	1.11
447.782	1.12
448.141	1.08
448.5	1.06
448.859	1.11
449.218	1.1
449.577	1.1
449.936	1.09
450.295	1.07
450.653	1.07
451.012	1.05
451.371	1.05
451.729	1.03
452.088	1.06
452.447	1.04
452.805	1.02
453.163	1.03
453.522	1.01
453.88	0.98
454.239	0.98
454.597	0.95
454.955	0.96
455.313	0.96
455.671	0.96
456.029	0.94
456.388	0.92
456.746	0.95
457.104	0.91
457.461	0.9
457.819	0.9
458.177	0.88
458.535	0.86
458.893	0.85
459.25	0.85
459.608	0.84
459.966	0.82
460.323	0.81
460.681	0.8
461.038	0.79
461.396	0.78
461.753	0.78
462.111	0.76
462.468	0.75
462.825	0.76
463.182	0.74
463.54	0.73
463.897	0.74
464.254	0.72
464.611	0.7
464.968	0.69
465.325	0.7
465.682	0.69
466.039	0.69
466.395	0.66
466.752	0.65
467.109	0.64
467.466	0.66
467.822	0.64
468.179	0.62
468.535	0.61
468.892	0.61
469.248	0.59
469.605	0.58
469.961	0.58
470.318	0.58
470.674	0.56
471.03	0.54
471.386	0.55
471.743	0.54
472.099	0.53
472.455	0.53
472.811	0.52
473.167	0.51
473.523	0.5
473.879	0.5
474.235	0.5
474.59	0.48
474.946	0.47
475.302	0.47
475.657	0.46
476.013	0.46
476.369	0.44
476.724	0.44
477.08	0.43
477.435	0.43
477.791	0.43
478.146	0.41
478.501	0.41
478.857	0.41
479.212	0.4
479.567	0.39
479.922	0.38
480.277	0.38
480.632	0.37
480.987	0.37
481.342	0.36
481.697	0.37
482.052	0.35
482.407	0.35
482.762	0.34
483.116	0.34
483.471	0.33
483.826	0.32
484.18	0.32
484.535	0.32
484.89	0.31
485.244	0.31
485.598	0.31
485.953	0.31
486.307	0.3
486.661	0.3
487.016	0.29
487.37	0.29
487.724	0.29
488.078	0.28
488.432	0.28
488.786	0.28
489.14	0.28
489.494	0.27
489.848	0.25
490.202	0.26
490.556	0.25
490.91	0.25
491.263	0.25
491.617	0.25
491.971	0.25
492.324	0.24
492.678	0.25
493.031	0.24
493.385	0.23
493.738	0.23
494.091	0.24
494.445	0.24
494.798	0.23
495.151	0.23
495.504	0.22
495.857	0.22
496.21	0.22
496.564	0.21
496.916	0.22
497.269	0.2
497.622	0.21
497.975	0.2
498.328	0.21
498.681	0.2
499.033	0.2
499.386	0.2
499.739	0.2
500.091	0.19
500.444	0.19
500.796	0.19
501.149	0.19
501.501	0.19
501.854	0.19
502.206	0.19
502.558	0.19
502.91	0.19
503.263	0.18
503.615	0.19
503.967	0.18
504.319	0.19
504.671	0.18
505.023	0.17
505.375	0.18
505.726	0.18
506.078	0.18
506.43	0.17
506.782	0.17
507.133	0.18
507.485	0.18
507.837	0.18
508.188	0.18
508.54	0.17
508.891	0.19
509.243	0.18
509.594	0.18
509.945	0.17
510.296	0.17
510.648	0.18
510.999	0.16
511.35	0.18
511.701	0.17
512.052	0.18
512.403	0.18
512.754	0.17
513.105	0.17
513.456	0.16
513.807	0.16
514.157	0.17
514.508	0.16
514.859	0.16
515.209	0.16
515.56	0.17
515.91	0.16
516.261	0.17
516.611	0.17
516.962	0.17
517.312	0.17
517.662	0.16
518.013	0.16
518.363	0.17
518.713	0.16
519.063	0.17
519.413	0.17
519.763	0.17
520.113	0.16
520.463	0.17
520.813	0.17
521.163	0.17
521.512	0.17
521.862	0.17
522.212	0.17
522.562	0.16
522.911	0.17
523.261	0.16
523.61	0.16
523.96	0.17
524.309	0.17
524.658	0.17
525.008	0.17
525.357	0.16
525.706	0.16
526.056	0.16
526.405	0.17
526.754	0.16
527.103	0.16
527.452	0.17
527.801	0.16
528.15	0.16
528.499	0.17
528.847	0.16
529.196	0.18
529.545	0.17
529.893	0.17
530.242	0.17
530.591	0.17
530.939	0.18
531.288	0.17
531.636	0.18
531.985	0.17
532.333	0.18
532.681	0.17
533.029	0.17
533.378	0.18
533.726	0.17
534.074	0.18
534.422	0.18
534.77	0.18
535.118	0.17
535.466	0.17
535.814	0.18
536.162	0.18
536.509	0.18
536.857	0.17
537.205	0.18
537.552	0.18
537.9	0.17
538.248	0.17
538.595	0.17
538.943	0.17
539.29	0.17
539.637	0.17
539.985	0.17
540.332	0.17
540.679	0.18
541.026	0.17
541.373	0.19
541.721	0.17
542.068	0.17
542.415	0.17
542.762	0.17
543.108	0.16
543.455	0.16
543.802	0.16
544.149	0.16
544.496	0.16
544.842	0.16
545.189	0.15
545.535	0.17
545.882	0.17
546.228	0.17
546.575	0.16
546.921	0.16
547.267	0.16
547.614	0.17
547.96	0.16
548.306	0.16
548.652	0.17
548.998	0.17
549.344	0.17
549.69	0.17
550.036	0.16
550.382	0.16
550.728	0.17
551.074	0.17
551.42	0.17
551.765	0.17
552.111	0.17
552.457	0.17
552.802	0.17
553.148	0.17
553.493	0.16
553.839	0.17
554.184	0.17
554.529	0.16
554.875	0.17
555.22	0.17
555.565	0.18
555.91	0.17
556.255	0.18
556.6	0.18
556.945	0.16
557.29	0.17
557.635	0.17
557.98	0.17
558.325	0.17
558.67	0.17
559.014	0.17
559.359	0.17
559.704	0.18
560.048	0.16
560.393	0.17
560.737	0.17
561.082	0.17
561.426	0.16
561.77	0.17
562.115	0.17
562.459	0.16
562.803	0.17
563.147	0.17
563.491	0.17
563.835	0.18
564.179	0.17
564.523	0.17
564.867	0.17
565.211	0.17
565.555	0.17
565.899	0.18
566.242	0.17
566.586	0.16
566.93	0.18
567.273	0.18
567.617	0.18
567.96	0.17
568.304	0.18
568.647	0.17
568.99	0.18
569.334	0.18
569.677	0.18
570.02	0.18
570.363	0.17
570.706	0.17
571.049	0.18
571.392	0.18
571.735	0.17
572.078	0.18
572.421	0.18
572.764	0.17
573.106	0.18
573.449	0.17
573.792	0.17
574.134	0.18
574.477	0.18
574.819	0.17
575.162	0.17
575.504	0.17
575.847	0.18
576.189	0.17
576.531	0.17
576.873	0.17
577.215	0.17
577.558	0.18
577.9	0.17
578.242	0.17
578.584	0.17
578.926	0.16
579.267	0.17
579.609	0.18
579.951	0.17
580.293	0.17
580.634	0.18
580.976	0.17
581.318	0.17
581.659	0.17
582.001	0.17
582.342	0.18
582.683	0.17
583.025	0.17
583.366	0.16
583.707	0.17
584.049	0.17
584.39	0.17
584.731	0.16
585.072	0.16
585.413	0.17
585.754	0.17
586.095	0.17
586.435	0.17
586.776	0.17
587.117	0.17
587.458	0.17
587.798	0.17
588.139	0.16
588.48	0.17
588.82	0.17
589.161	0.16
589.501	0.16
589.841	0.17
590.182	0.17
590.522	0.17
590.862	0.17
591.202	0.17
591.542	0.17
591.882	0.16
592.222	0.17
592.562	0.17
592.902	0.17
593.242	0.16
593.582	0.17
593.922	0.17
594.261	0.17
594.601	0.16
594.941	0.16
595.28	0.17
595.62	0.17
595.959	0.17
596.299	0.17
596.638	0.16
596.977	0.17
597.317	0.18
597.656	0.17
597.995	0.17
598.334	0.17
598.673	0.17
599.012	0.17
599.351	0.17
599.69	0.17
600.029	0.17
600.368	0.17
600.707	0.17
601.046	0.17
601.384	0.18
601.723	0.16
602.061	0.16
602.4	0.17
602.738	0.17
603.077	0.17
603.415	0.16
603.754	0.17
604.092	0.17
604.43	0.17
604.768	0.17
605.107	0.17
605.445	0.17
605.783	0.16
606.121	0.16
606.459	0.16
606.796	0.16
607.134	0.16
607.472	0.16
607.81	0.17
608.148	0.16
608.485	0.16
608.823	0.17
609.16	0.16
609.498	0.17
609.835	0.16
610.173	0.16
610.51	0.17
610.847	0.17
611.185	0.16
611.522	0.17
611.859	0.17
612.196	0.17
612.533	0.17
612.87	0.17
613.207	0.18
613.544	0.18
613.881	0.17
614.217	0.17
614.554	0.17
614.891	0.17
615.228	0.17
615.564	0.17
615.901	0.17
616.237	0.17
616.574	0.17
616.91	0.17
617.246	0.17
617.583	0.17
617.919	0.17
618.255	0.18
618.591	0.17
618.927	0.17
619.263	0.18
619.599	0.17
619.935	0.17
620.271	0.17
620.607	0.18
620.943	0.16
621.279	0.17
621.614	0.17
621.95	0.17
622.286	0.17
622.621	0.16
622.957	0.17
623.292	0.16
623.627	0.16
623.963	0.16
624.298	0.16
624.633	0.16
624.968	0.17
625.304	0.16
625.639	0.16
625.974	0.15
626.309	0.16
626.644	0.15
626.979	0.16
627.313	0.16
627.648	0.16
627.983	0.16
628.318	0.15
628.652	0.16
628.987	0.15
629.321	0.16
629.656	0.15
629.99	0.14
630.325	0.15
630.659	0.15
630.993	0.15
631.327	0.15
631.662	0.14
631.996	0.14
632.33	0.15
632.664	0.15
632.998	0.14
633.332	0.15
633.666	0.15
633.999	0.16
634.333	0.14
634.667	0.15
635.001	0.14
635.334	0.15
635.668	0.14
636.001	0.14
636.335	0.15
636.668	0.15
637.001	0.14
637.335	0.15
637.668	0.14
638.001	0.15
638.334	0.14
638.668	0.14
639.001	0.15
639.334	0.15
639.667	0.14
639.999	0.14
640.332	0.14
640.665	0.14
640.998	0.14
641.331	0.14
641.663	0.14
641.996	0.14
642.328	0.15
642.661	0.14
642.993	0.14
643.326	0.14
643.658	0.14
643.99	0.14
644.323	0.13
644.655	0.14
644.987	0.14
645.319	0.14
645.651	0.14
645.983	0.14
646.315	0.14
646.647	0.13
646.979	0.14
647.31	0.15
647.642	0.14
647.974	0.13
648.305	0.14
648.637	0.14
648.968	0.14
649.3	0.14
649.631	0.14
649.963	0.14
650.294	0.14
650.625	0.14
650.957	0.15
651.288	0.14
651.619	0.14
651.95	0.14
652.281	0.14
652.612	0.14
652.943	0.14
653.274	0.15
653.604	0.14
653.935	0.14
654.266	0.14
654.596	0.13
654.927	0.14
655.258	0.14
655.588	0.14
655.918	0.14
656.249	0.12
656.579	0.13
656.909	0.13
657.24	0.14
657.57	0.14
657.9	0.14
658.23	0.13
658.56	0.14
658.89	0.14
659.22	0.14
659.55	0.14
659.88	0.14
660.209	0.14
660.539	0.14
660.869	0.14
661.198	0.13
661.528	0.14
661.857	0.13
662.187	0.14
662.516	0.13
662.846	0.13
663.175	0.13
663.504	0.13
663.833	0.13
664.163	0.13
664.492	0.14
664.821	0.14
665.15	0.14
665.479	0.13
665.807	0.13
666.136	0.13
666.465	0.13
666.794	0.14
667.122	0.13
667.451	0.13
667.78	0.14
668.108	0.14
668.437	0.13
668.765	0.13
669.093	0.14
669.422	0.13
669.75	0.13
670.078	0.13
670.406	0.13
670.734	0.13
671.062	0.13
671.39	0.13
671.718	0.13
672.046	0.13
672.374	0.12
672.702	0.12
673.029	0.12
673.357	0.13
673.685	0.13
674.012	0.12
674.34	0.13
674.667	0.13
674.995	0.13
675.322	0.13
675.649	0.12
675.977	0.13
676.304	0.12
676.631	0.12
676.958	0.12
677.285	0.12
677.612	0.12
677.939	0.12
678.266	0.13
678.593	0.12
678.92	0.13
679.246	0.11
679.573	0.12
679.9	0.12
680.226	0.13
680.553	0.12
680.879	0.12
681.206	0.12
681.532	0.12
681.858	0.12
682.184	0.12
682.511	0.12
682.837	0.11
683.163	0.13
683.489	0.11
683.815	0.12
684.141	0.12
684.467	0.12
684.793	0.11
685.118	0.11
685.444	0.12
685.77	0.11
686.095	0.11
686.421	0.11
686.746	0.12
687.072	0.12
687.397	0.11
687.723	0.12
688.048	0.12
688.373	0.11
688.698	0.11
689.023	0.11
689.349	0.11
689.674	0.12
689.999	0.11
690.323	0.11
690.648	0.11
690.973	0.11
691.298	0.11
691.623	0.12
691.947	0.11
692.272	0.11
692.596	0.11
692.921	0.12
693.245	0.12
693.57	0.12
693.894	0.12
694.218	0.12
694.543	0.12
694.867	0.11
695.191	0.11
695.515	0.11
695.839	0.1
696.163	0.11
696.487	0.12
696.811	0.1
697.135	0.11
697.458	0.11
697.782	0.11
698.106	0.11
698.429	0.11
698.753	0.11
699.076	0.11
699.4	0.1
699.723	0.11
700.046	0.1
700.37	0.1
700.693	0.11
701.016	0.11
701.339	0.11
701.662	0.11
701.985	0.11
702.308	0.11
702.631	0.11
702.954	0.11
703.277	0.11
703.599	0.11
703.922	0.1
704.245	0.1
704.567	0.1
704.89	0.11
705.212	0.1
705.535	0.1
705.857	0.1
706.179	0.09
706.502	0.09
706.824	0.09
707.146	0.09
707.468	0.1
707.79	0.1
708.112	0.1
708.434	0.1
708.756	0.1
709.078	0.11
709.399	0.09
709.721	0.09
710.043	0.1
710.364	0.1
710.686	0.1
711.007	0.1
711.329	0.1
711.65	0.09
711.972	0.1
712.293	0.1
712.614	0.1
712.935	0.1
713.256	0.1
713.577	0.11
713.898	0.1
714.219	0.1
714.54	0.1
714.861	0.09
715.182	0.09
715.503	0.09
715.823	0.09
716.144	0.08
716.464	0.09
716.785	0.09
717.105	0.09
717.426	0.09
717.746	0.09
718.066	0.08
718.387	0.09
718.707	0.08
719.027	0.09
719.347	0.08
719.667	0.08
719.987	0.08
720.307	0.08
720.627	0.08
720.947	0.08
721.266	0.08
721.586	0.08
721.906	0.09
722.225	0.08
722.545	0.08
722.864	0.08
723.184	0.09
723.503	0.08
723.823	0.09
724.142	0.07
724.461	0.08
724.78	0.08
725.099	0.08
725.418	0.08
725.737	0.08
726.056	0.09
726.375	0.08
726.694	0.08
727.013	0.08
727.331	0.08
727.65	0.08
727.969	0.08
728.287	0.09
728.606	0.09
728.924	0.08
729.242	0.08
729.561	0.08
729.879	0.08
730.197	0.08
730.515	0.08
730.834	0.09
731.152	0.08
731.47	0.08
731.788	0.09
732.105	0.08
732.423	0.08
732.741	0.08
733.059	0.08
733.376	0.09
733.694	0.09
734.012	0.08
734.329	0.08
734.647	0.08
734.964	0.09
735.281	0.08
735.599	0.09
735.916	0.09
736.233	0.08
736.55	0.08
736.867	0.08
737.184	0.09
737.501	0.08
737.818	0.08
738.135	0.09
738.452	0.08
738.768	0.08
739.085	0.08
739.402	0.06
739.718	0.08
740.035	0.08
740.351	0.08
740.668	0.08
740.984	0.08
741.3	0.07
741.617	0.08
741.933	0.07
742.249	0.08
742.565	0.08
742.881	0.08
743.197	0.08
743.513	0.07
743.829	0.07
744.144	0.07
744.46	0.07
744.776	0.08
745.091	0.07
745.407	0.06
745.722	0.07
746.038	0.07
746.353	0.06
746.669	0.07
746.984	0.06
747.299	0.07
747.614	0.07
747.93	0.06
748.245	0.06
748.56	0.06
748.875	0.06
749.189	0.06
749.504	0.07
749.819	0.07
750.134	0.06
750.448	0.07
750.763	0.07
751.078	0.07
751.392	0.06
751.707	0.08
752.021	0.08
752.335	0.08
752.65	0.07
752.964	0.07
753.278	0.08
753.592	0.07
753.906	0.06
754.22	0.07
754.534	0.07
754.848	0.07
755.162	0.07
755.476	0.08
755.789	0.07
756.103	0.07
756.417	0.08
756.73	0.07
757.044	0.07
757.357	0.07
757.671	0.08
757.984	0.08
758.297	0.07
758.61	0.08
758.924	0.08
759.237	0.07
759.55	0.08
759.863	0.07
760.176	0.07
760.488	0.07
760.801	0.07
761.114	0.07
761.427	0.07
761.739	0.07
762.052	0.06
762.365	0.07
762.677	0.06
762.99	0.06
763.302	0.06
763.614	0.07
763.926	0.07
764.239	0.07
764.551	0.06
764.863	0.07
765.175	0.06
765.487	0.07
765.799	0.06
766.111	0.06
766.423	0.07
766.734	0.06
767.046	0.07
767.358	0.07
767.669	0.07
767.981	0.07
768.292	0.07
768.604	0.07
768.915	0.06
769.226	0.07
769.537	0.05
769.849	0.06
770.16	0.06
770.471	0.06
770.782	0.06
771.093	0.06
771.404	0.05
771.715	0.06
772.025	0.06
772.336	0.06
772.647	0.06
772.957	0.06
773.268	0.06
773.578	0.05
773.889	0.07
774.199	0.07
774.51	0.06
774.82	0.06
775.13	0.06
775.44	0.07
775.75	0.07
776.06	0.06
776.37	0.06
776.68	0.06
776.99	0.06
777.3	0.06
777.61	0.07
777.92	0.06
778.229	0.06
778.539	0.06
778.848	0.05
779.158	0.07
779.467	0.06
779.777	0.06
780.086	0.06
780.395	0.05
780.704	0.05
781.013	0.05
781.323	0.05
781.632	0.06
781.941	0.06
782.249	0.06
782.558	0.05
782.867	0.05
783.176	0.05
783.485	0.05
783.793	0.05
784.102	0.05
784.41	0.05
784.719	0.05
785.027	0.05
785.335	0.05
785.644	0.06
785.952	0.05
786.26	0.05
786.568	0.04
786.876	0.05
787.184	0.05
787.492	0.05
787.8	0.05
788.108	0.05
788.416	0.05
788.723	0.05
789.031	0.05
789.338	0.05
789.646	0.05
789.953	0.06
790.261	0.06
790.568	0.05
790.876	0.06
791.183	0.06
791.49	0.06
791.797	0.06
792.104	0.05
792.411	0.06
792.718	0.05
793.025	0.06
793.332	0.05
793.639	0.06
793.945	0.06
794.252	0.06
794.559	0.07
794.865	0.06
795.172	0.06
795.478	0.07
795.784	0.06
796.091	0.06
796.397	0.07
796.703	0.06
797.009	0.07
797.315	0.06
797.622	0.06
797.927	0.06
798.233	0.06
798.539	0.07
798.845	0.07
799.151	0.07
799.456	0.06
799.762	0.06
800.068	0.07
800.373	0.07
800.679	0.06
800.984	0.06
801.289	0.06
801.595	0.07
801.9	0.07
802.205	0.06
802.51	0.06
802.815	0.06
803.12	0.06
803.425	0.07
803.73	0.06
804.035	0.06
804.339	0.05
804.644	0.06
804.949	0.06
805.253	0.05
805.558	0.05
805.862	0.06
806.167	0.05
806.471	0.05
806.775	0.06
807.08	0.06
807.384	0.06
807.688	0.05
807.992	0.05
808.296	0.05
808.6	0.06
808.904	0.06
809.207	0.06
809.511	0.06
809.815	0.07
810.119	0.06
810.422	0.07
810.726	0.07
811.029	0.07
811.332	0.07
811.636	0.08
811.939	0.07
812.242	0.07
812.546	0.07
812.849	0.07
813.152	0.08
813.455	0.08
813.758	0.07
814.06	0.07
814.363	0.08
814.666	0.08
814.969	0.07
815.271	0.07
815.574	0.07
815.877	0.06
816.179	0.06
816.481	0.06
816.784	0.07
817.086	0.06
817.388	0.05
817.69	0.05
817.993	0.05
818.295	0.05
818.597	0.05
818.899	0.05
819.2	0.04
819.502	0.05
819.804	0.05
820.106	0.05
820.407	0.04
820.709	0.05
821.01	0.05
821.312	0.05
821.613	0.05
821.915	0.05
822.216	0.04
822.517	0.04
822.818	0.04
823.119	0.04
823.42	0.05
823.721	0.04
824.022	0.04
824.323	0.04
824.624	0.05
824.925	0.04
825.226	0.05
825.526	0.04
825.827	0.04
826.127	0.05
826.428	0.04
826.728	0.04
827.028	0.04
827.329	0.03
827.629	0.03
827.929	0.04
828.229	0.04
828.529	0.05
828.829	0.04
829.129	0.04
829.429	0.04
829.729	0.04
830.029	0.03
830.328	0.04
830.628	0.03
830.927	0.03
831.227	0.03
831.526	0.04
831.826	0.04
832.125	0.03
832.424	0.03
832.724	0.04
833.023	0.04
833.322	0.04
833.621	0.03
833.92	0.02
834.219	0.03
834.518	0.03
834.816	0.02
835.115	0.04
835.414	0.01
835.712	0.03
836.011	0.02
836.309	0.02
836.608	0.02
836.906	0.01
837.205	0.01
837.503	0.01
837.801	0.01
838.099	-0.01
838.397	-0
838.695	-0
838.993	0
839.291	-0
839.589	-0
839.887	0.01
840.184	-0.01
840.482	-0.01
840.78	-0
841.077	0
841.375	-0.01
841.672	-0.01
841.969	-0.01
842.267	-0
842.564	-0
842.861	0
843.158	-0.02
843.455	-0.03
843.752	-0.02
844.049	-0.02
844.346	-0.02
844.643	-0.02
844.94	-0.02
845.236	-0.02
845.533	-0.02
845.83	-0.02
846.126	-0.03
846.423	-0.02
846.719	-0.04
847.015	-0.03
847.312	-0.03
847.608	-0.03
847.904	-0.04
848.2	-0.04
848.496	-0.04
848.792	-0.04
849.088	-0.02
849.384	-0.04
849.68	-0.04
849.975	-0.04
850.271	-0.04
850.567	-0.04
850.862	-0.04
851.158	-0.04
851.453	-0.04
851.748	-0.05
852.044	-0.05
852.339	-0.05
852.634	-0.06
852.929	-0.04
853.224	-0.06
853.519	-0.05
853.814	-0.05
854.109	-0.06
854.404	-0.06
854.699	-0.06
854.994	-0.05
855.288	-0.05
855.583	-0.05
855.877	-0.06
856.172	-0.06
856.466	-0.07
856.76	-0.06
857.055	-0.07
857.349	-0.08
857.643	-0.09
857.937	-0.1
858.231	-0.09
858.525	-0.1
858.819	-0.1
859.113	-0.11
859.407	-0.1
859.701	-0.1
859.994	-0.1
860.288	-0.1
860.581	-0.1
860.875	-0.11
861.168	-0.1
861.462	-0.11
861.755	-0.1
862.048	-0.11
862.341	-0.11
862.634	-0.11
862.928	-0.09
863.221	-0.1
863.513	-0.11
863.806	-0.12
864.099	-0.11
864.392	-0.11
864.685	-0.11
864.977	-0.11
865.27	-0.12
865.562	-0.11
865.855	-0.11
866.147	-0.12
866.44	-0.11
866.732	-0.11
867.024	-0.13
867.316	-0.12
867.608	-0.13
867.9	-0.12
868.192	-0.12
868.484	-0.11
868.776	-0.13
869.068	-0.13
869.359	-0.13
869.651	-0.13
869.943	-0.14
870.234	-0.14
870.526	-0.13
870.817	-0.14
871.108	-0.13
871.4	-0.13
871.691	-0.14
871.982	-0.15
872.273	-0.15
872.564	-0.15
872.855	-0.15
873.146	-0.15
873.437	-0.15
873.728	-0.16
874.019	-0.16
874.309	-0.17
874.6	-0.16
874.89	-0.16
875.181	-0.16
875.471	-0.16
875.762	-0.16
876.052	-0.16
876.342	-0.15
876.632	-0.17
876.922	-0.17
877.213	-0.17
877.503	-0.18
877.792	-0.16
878.082	-0.18
878.372	-0.16
878.662	-0.18
878.952	-0.16
879.241	-0.17
879.531	-0.16
879.82	-0.16
880.11	-0.15
880.399	-0.16
880.688	-0.15
880.978	-0.15
881.267	-0.15
