Data from 12-12-AQDScycling_Absorbance__197__00197.txt Node

Date: Tue Dec 12 11:48:31 EST 2023
User: kyuminlee
Spectrometer: FLMS00943
Trigger mode: 0
Integration Time (sec): 1.000000E-1
Scans to average: 1
Electric dark correction enabled: true
Nonlinearity correction enabled: false
Boxcar width: 0
XAxis mode: Wavelengths
Number of Pixels in Spectrum: 2048
>>>>>Begin Spectral Data<<<<<
179.651	-0
180.037	-0
180.424	-0
180.81	0.45
181.197	0.29
181.583	-0
181.97	-0.1
182.356	-0
182.743	-1.32
183.129	-0.1
183.515	0.05
183.901	-2.44
184.288	0.18
184.674	-0
185.06	-0.74
185.446	-0
185.832	-0
186.218	0.24
186.604	-0.14
186.99	-0
187.376	-0
187.762	-0
188.148	0.48
188.534	-0.07
188.92	0.1
189.305	0.09
189.691	0.11
190.077	0.17
190.463	0.15
190.848	0.1
191.234	-0.03
191.619	0.06
192.005	0.08
192.391	0.13
192.776	0.12
193.161	0.2
193.547	0.26
193.932	0.1
194.318	0.06
194.703	0.14
195.088	0.1
195.473	0.26
195.859	0.21
196.244	0.15
196.629	0.06
197.014	0.16
197.399	0.13
197.784	0.17
198.169	0.13
198.554	0.36
198.939	0.2
199.324	0.07
199.709	0.06
200.094	0.13
200.478	0.37
200.863	0.12
201.248	0.21
201.633	0.12
202.017	0.1
202.402	0.28
202.787	0.13
203.171	0.29
203.556	0.11
203.94	0.15
204.325	0.26
204.709	0.33
205.093	0.06
205.478	0.16
205.862	0.31
206.246	0.33
206.631	0.35
207.015	0.23
207.399	0.21
207.783	0.14
208.167	0.1
208.551	0.25
208.935	0.27
209.319	0.14
209.703	0.31
210.087	0.3
210.471	-0.03
210.855	0.28
211.239	0.28
211.623	0.38
212.007	0.48
212.39	0.48
212.774	0.35
213.158	0.18
213.541	0.17
213.925	0.18
214.309	0.31
214.692	0.26
215.076	0.22
215.459	0.12
215.842	0.27
216.226	0.24
216.609	0.5
216.993	0.19
217.376	0.51
217.759	0.31
218.142	0.39
218.525	0.87
218.909	0.57
219.292	0.31
219.675	0.7
220.058	0.46
220.441	0.53
220.824	0.65
221.207	0.62
221.59	0.56
221.973	0.45
222.355	0.63
222.738	0.89
223.121	0.56
223.504	0.57
223.886	0.64
224.269	0.65
224.652	0.7
225.034	0.77
225.417	0.77
225.799	0.87
226.182	0.79
226.564	0.82
226.947	0.85
227.329	0.89
227.711	0.92
228.094	1.2
228.476	0.96
228.858	0.92
229.24	0.88
229.623	1.05
230.005	1.03
230.387	0.93
230.769	0.85
231.151	0.97
231.533	0.96
231.915	1.2
232.297	1.04
232.679	0.94
233.061	1.02
233.442	1.21
233.824	0.99
234.206	1.21
234.588	1.08
234.969	1.12
235.351	1.05
235.733	1.1
236.114	1.36
236.496	1.06
236.877	1.27
237.259	1.09
237.64	1.16
238.022	1.1
238.403	1.04
238.784	1.02
239.165	0.98
239.547	1.19
239.928	1.08
240.309	1.16
240.69	1.01
241.071	1.11
241.452	1.1
241.834	1.11
242.215	1.06
242.595	1.14
242.976	1.04
243.357	1.22
243.738	1.13
244.119	1.37
244.5	1.06
244.881	1.27
245.261	1.15
245.642	1.21
246.023	1.23
246.403	1.17
246.784	1.28
247.164	1.25
247.545	1.26
247.925	1.27
248.306	1.31
248.686	1.29
249.067	1.24
249.447	1.31
249.827	1.5
250.207	1.51
250.588	1.32
250.968	1.56
251.348	1.43
251.728	1.51
252.108	1.34
252.488	1.35
252.868	1.36
253.248	1.32
253.628	1.56
254.008	1.52
254.388	1.54
254.768	1.32
255.147	1.31
255.527	1.41
255.907	1.4
256.287	1.37
256.666	1.57
257.046	1.55
257.425	1.54
257.805	1.44
258.184	1.31
258.564	1.67
258.943	1.46
259.323	1.64
259.702	1.52
260.081	1.64
260.461	1.45
260.84	1.53
261.219	1.75
261.598	1.49
261.977	1.49
262.356	1.48
262.736	1.62
263.115	1.66
263.494	1.46
263.873	1.51
264.251	1.5
264.63	1.65
265.009	1.34
265.388	1.58
265.767	1.33
266.145	1.37
266.524	1.5
266.903	1.41
267.281	1.48
267.66	1.52
268.039	1.47
268.417	1.42
268.796	1.4
269.174	1.4
269.552	1.38
269.931	1.48
270.309	1.51
270.687	1.53
271.066	1.71
271.444	1.44
271.822	1.53
272.2	1.5
272.578	1.4
272.956	1.39
273.334	1.31
273.712	1.53
274.09	1.49
274.468	1.44
274.846	1.3
275.224	1.41
275.602	1.45
275.98	1.55
276.357	1.61
276.735	1.54
277.113	1.49
277.49	1.25
277.868	1.33
278.246	1.51
278.623	1.37
279.001	1.33
279.378	1.64
279.756	1.45
280.133	1.54
280.51	1.33
280.888	1.54
281.265	1.36
281.642	1.47
282.019	1.78
282.396	1.66
282.773	1.57
283.151	1.54
283.528	1.41
283.905	1.49
284.282	1.44
284.659	1.73
285.035	1.32
285.412	1.31
285.789	1.55
286.166	1.59
286.543	1.55
286.919	1.65
287.296	1.55
287.673	1.62
288.049	1.68
288.426	1.54
288.802	1.61
289.179	1.64
289.555	1.91
289.932	1.5
290.308	1.46
290.684	1.4
291.061	1.33
291.437	1.45
291.813	1.33
292.189	1.26
292.565	1.41
292.942	1.35
293.318	1.53
293.694	1.6
294.07	1.39
294.446	1.4
294.822	1.51
295.197	1.45
295.573	1.47
295.949	1.41
296.325	1.49
296.701	1.55
297.076	1.66
297.452	1.74
297.828	1.4
298.203	1.74
298.579	1.47
298.954	1.4
299.33	1.53
299.705	1.48
300.081	1.57
300.456	1.41
300.831	1.5
301.206	1.46
301.582	1.62
301.957	1.51
302.332	1.78
302.707	1.42
303.082	1.5
303.457	1.63
303.832	1.58
304.207	1.41
304.582	1.47
304.957	1.5
305.332	1.63
305.707	1.51
306.082	1.68
306.456	1.7
306.831	1.42
307.206	1.49
307.58	1.49
307.955	1.56
308.33	1.51
308.704	1.45
309.079	1.45
309.453	1.61
309.828	1.48
310.202	1.41
310.576	1.41
310.951	1.41
311.325	1.47
311.699	1.41
312.073	1.36
312.447	1.44
312.821	1.34
313.196	1.52
313.57	1.37
313.944	1.44
314.317	1.42
314.691	1.57
315.065	1.54
315.439	1.49
315.813	1.47
316.187	1.38
316.56	1.67
316.934	1.56
317.308	1.36
317.681	1.46
318.055	1.54
318.428	1.57
318.802	1.54
319.175	1.49
319.549	1.51
319.922	1.37
320.295	1.43
320.669	1.71
321.042	1.62
321.415	1.69
321.788	1.57
322.162	1.44
322.535	1.58
322.908	1.67
323.281	1.49
323.654	1.55
324.027	1.38
324.4	1.51
324.773	1.54
325.145	1.54
325.518	1.49
325.891	1.47
326.264	1.79
326.636	1.52
327.009	1.44
327.382	1.48
327.754	1.51
328.127	1.37
328.499	1.56
328.872	1.43
329.244	1.48
329.616	1.46
329.989	1.48
330.361	1.67
330.733	1.55
331.106	1.45
331.478	1.43
331.85	1.46
332.222	1.37
332.594	1.53
332.966	1.6
333.338	1.71
333.71	1.47
334.082	1.6
334.454	1.55
334.826	1.56
335.197	1.53
335.569	1.51
335.941	1.42
336.312	1.57
336.684	1.54
337.056	1.52
337.427	1.62
337.799	1.46
338.17	1.58
338.542	1.41
338.913	1.55
339.284	1.56
339.656	1.52
340.027	1.59
340.398	1.56
340.769	1.49
341.141	1.56
341.512	1.48
341.883	1.5
342.254	1.6
342.625	1.53
342.996	1.59
343.367	1.55
343.738	1.46
344.108	1.49
344.479	1.56
344.85	1.45
345.221	1.54
345.591	1.4
345.962	1.48
346.333	1.48
346.703	1.32
347.074	1.39
347.444	1.3
347.815	1.44
348.185	1.42
348.556	1.31
348.926	1.47
349.296	1.41
349.666	1.47
350.037	1.31
350.407	1.31
350.777	1.31
351.147	1.41
351.517	1.44
351.887	1.32
352.257	1.45
352.627	1.22
352.997	1.25
353.367	1.41
353.737	1.41
354.106	1.42
354.476	1.24
354.846	1.46
355.216	1.34
355.585	1.37
355.955	1.37
356.324	1.38
356.694	1.33
357.063	1.32
357.433	1.32
357.802	1.41
358.171	1.39
358.541	1.28
358.91	1.34
359.279	1.33
359.648	1.32
360.017	1.28
360.387	1.3
360.756	1.25
361.125	1.34
361.494	1.29
361.863	1.26
362.231	1.25
362.6	1.27
362.969	1.32
363.338	1.21
363.707	1.27
364.075	1.42
364.444	1.18
364.813	1.23
365.181	1.2
365.55	1.24
365.918	1.24
366.287	1.29
366.655	1.25
367.024	1.19
367.392	1.23
367.76	1.21
368.128	1.22
368.497	1.27
368.865	1.19
369.233	1.18
369.601	1.26
369.969	1.23
370.337	1.21
370.705	1.21
371.073	1.2
371.441	1.29
371.809	1.18
372.177	1.19
372.544	1.25
372.912	1.2
373.28	1.18
373.647	1.2
374.015	1.22
374.383	1.3
374.75	1.21
375.118	1.22
375.485	1.23
375.853	1.19
376.22	1.18
376.587	1.22
376.955	1.25
377.322	1.2
377.689	1.22
378.056	1.2
378.423	1.25
378.79	1.27
379.157	1.3
379.524	1.25
379.891	1.2
380.258	1.24
380.625	1.22
380.992	1.24
381.359	1.26
381.726	1.34
382.092	1.26
382.459	1.24
382.826	1.28
383.192	1.26
383.559	1.24
383.925	1.36
384.292	1.32
384.658	1.38
385.025	1.34
385.391	1.4
385.757	1.39
386.123	1.4
386.49	1.3
386.856	1.43
387.222	1.51
387.588	1.35
387.954	1.52
388.32	1.45
388.686	1.4
389.052	1.33
389.418	1.37
389.784	1.32
390.15	1.43
390.515	1.28
390.881	1.4
391.247	1.33
391.613	1.52
391.978	1.34
392.344	1.41
392.709	1.53
393.075	1.37
393.44	1.4
393.806	1.46
394.171	1.27
394.536	1.26
394.902	1.37
395.267	1.31
395.632	1.31
395.997	1.33
396.362	1.38
396.727	1.38
397.092	1.32
397.457	1.37
397.822	1.35
398.187	1.4
398.552	1.34
398.917	1.42
399.282	1.29
399.646	1.35
400.011	1.36
400.376	1.21
400.74	1.35
401.105	1.39
401.47	1.35
401.834	1.29
402.199	1.2
402.563	1.29
402.927	1.19
403.292	1.31
403.656	1.27
404.02	1.26
404.384	1.28
404.749	1.23
405.113	1.19
405.477	1.24
405.841	1.21
406.205	1.24
406.569	1.16
406.933	1.13
407.296	1.21
407.66	1.16
408.024	1.18
408.388	1.22
408.752	1.13
409.115	1.2
409.479	1.15
409.842	1.06
410.206	1.03
410.569	1.13
410.933	1.12
411.296	1.06
411.66	1.11
412.023	1.08
412.386	1.07
412.749	1.01
413.113	1.09
413.476	1
413.839	1.09
414.202	1.01
414.565	1
414.928	1.04
415.291	1.02
415.654	1.02
416.017	1.05
416.38	1.02
416.742	0.97
417.105	1
417.468	0.97
417.83	1.05
418.193	1.01
418.556	0.95
418.918	1
419.281	1.02
419.643	1.02
420.005	1
420.368	1.02
420.73	0.94
421.092	0.99
421.455	1.03
421.817	0.94
422.179	0.95
422.541	0.97
422.903	1.02
423.265	1
423.627	0.96
423.989	0.97
424.351	0.95
424.713	0.98
425.075	0.92
425.436	0.91
425.798	0.92
426.16	0.98
426.521	0.93
426.883	0.97
427.245	0.93
427.606	0.89
427.967	0.91
428.329	0.93
428.69	0.89
429.052	0.9
429.413	0.92
429.774	0.91
430.135	0.9
430.497	0.91
430.858	0.9
431.219	0.91
431.58	0.9
431.941	0.87
432.302	0.89
432.663	0.87
433.024	0.89
433.384	0.89
433.745	0.85
434.106	0.86
434.467	0.86
434.827	0.89
435.188	0.86
435.548	0.9
435.909	0.87
436.269	0.87
436.63	0.83
436.99	0.83
437.351	0.82
437.711	0.85
438.071	0.84
438.431	0.85
438.792	0.81
439.152	0.8
439.512	0.81
439.872	0.84
440.232	0.84
440.592	0.82
440.952	0.8
441.312	0.78
441.671	0.79
442.031	0.8
442.391	0.8
442.751	0.79
443.11	0.78
443.47	0.76
443.83	0.78
444.189	0.78
444.549	0.77
444.908	0.77
445.267	0.76
445.627	0.75
445.986	0.74
446.345	0.72
446.705	0.74
447.064	0.72
447.423	0.72
447.782	0.71
448.141	0.74
448.5	0.71
448.859	0.71
449.218	0.7
449.577	0.7
449.936	0.72
450.295	0.72
450.653	0.7
451.012	0.68
451.371	0.68
451.729	0.68
452.088	0.68
452.447	0.68
452.805	0.66
453.163	0.67
453.522	0.67
453.88	0.65
454.239	0.66
454.597	0.65
454.955	0.64
455.313	0.63
455.671	0.63
456.029	0.62
456.388	0.61
456.746	0.61
457.104	0.6
457.461	0.59
457.819	0.59
458.177	0.58
458.535	0.57
458.893	0.58
459.25	0.57
459.608	0.56
459.966	0.55
460.323	0.54
460.681	0.53
461.038	0.54
461.396	0.52
461.753	0.53
462.111	0.52
462.468	0.5
462.825	0.5
463.182	0.5
463.54	0.5
463.897	0.49
464.254	0.49
464.611	0.48
464.968	0.47
465.325	0.47
465.682	0.46
466.039	0.46
466.395	0.45
466.752	0.46
467.109	0.45
467.466	0.44
467.822	0.44
468.179	0.42
468.535	0.42
468.892	0.42
469.248	0.42
469.605	0.41
469.961	0.41
470.318	0.42
470.674	0.41
471.03	0.39
471.386	0.39
471.743	0.39
472.099	0.38
472.455	0.37
472.811	0.37
473.167	0.37
473.523	0.35
473.879	0.35
474.235	0.35
474.59	0.34
474.946	0.33
475.302	0.34
475.657	0.34
476.013	0.33
476.369	0.32
476.724	0.33
477.08	0.32
477.435	0.32
477.791	0.31
478.146	0.3
478.501	0.3
478.857	0.3
479.212	0.3
479.567	0.3
479.922	0.28
480.277	0.29
480.632	0.28
480.987	0.28
481.342	0.28
481.697	0.27
482.052	0.27
482.407	0.26
482.762	0.26
483.116	0.25
483.471	0.25
483.826	0.24
484.18	0.25
484.535	0.24
484.89	0.25
485.244	0.23
485.598	0.24
485.953	0.23
486.307	0.24
486.661	0.24
487.016	0.23
487.37	0.23
487.724	0.23
488.078	0.23
488.432	0.23
488.786	0.22
489.14	0.21
489.494	0.21
489.848	0.21
490.202	0.2
490.556	0.21
490.91	0.2
491.263	0.2
491.617	0.2
491.971	0.2
492.324	0.2
492.678	0.2
493.031	0.2
493.385	0.2
493.738	0.19
494.091	0.19
494.445	0.19
494.798	0.19
495.151	0.19
495.504	0.18
495.857	0.18
496.21	0.18
496.564	0.18
496.916	0.19
497.269	0.18
497.622	0.19
497.975	0.18
498.328	0.19
498.681	0.19
499.033	0.18
499.386	0.17
499.739	0.17
500.091	0.17
500.444	0.17
500.796	0.17
501.149	0.16
501.501	0.17
501.854	0.17
502.206	0.17
502.558	0.17
502.91	0.17
503.263	0.16
503.615	0.17
503.967	0.16
504.319	0.16
504.671	0.17
505.023	0.17
505.375	0.16
505.726	0.16
506.078	0.16
506.43	0.16
506.782	0.16
507.133	0.15
507.485	0.16
507.837	0.17
508.188	0.16
508.54	0.16
508.891	0.17
509.243	0.15
509.594	0.16
509.945	0.16
510.296	0.15
510.648	0.16
510.999	0.15
511.35	0.16
511.701	0.16
512.052	0.16
512.403	0.16
512.754	0.16
513.105	0.15
513.456	0.15
513.807	0.15
514.157	0.16
514.508	0.15
514.859	0.15
515.209	0.15
515.56	0.15
515.91	0.14
516.261	0.15
516.611	0.14
516.962	0.14
517.312	0.14
517.662	0.15
518.013	0.14
518.363	0.15
518.713	0.14
519.063	0.15
519.413	0.15
519.763	0.14
520.113	0.14
520.463	0.15
520.813	0.16
521.163	0.15
521.512	0.15
521.862	0.15
522.212	0.15
522.562	0.15
522.911	0.15
523.261	0.15
523.61	0.15
523.96	0.15
524.309	0.15
524.658	0.15
525.008	0.15
525.357	0.14
525.706	0.16
526.056	0.15
526.405	0.15
526.754	0.15
527.103	0.15
527.452	0.15
527.801	0.15
528.15	0.15
528.499	0.15
528.847	0.15
529.196	0.16
529.545	0.15
529.893	0.17
530.242	0.15
530.591	0.16
530.939	0.16
531.288	0.16
531.636	0.16
531.985	0.16
532.333	0.17
532.681	0.16
533.029	0.16
533.378	0.16
533.726	0.16
534.074	0.16
534.422	0.16
534.77	0.17
535.118	0.16
535.466	0.15
535.814	0.15
536.162	0.15
536.509	0.16
536.857	0.16
537.205	0.16
537.552	0.17
537.9	0.15
538.248	0.16
538.595	0.16
538.943	0.16
539.29	0.16
539.637	0.17
539.985	0.16
540.332	0.15
540.679	0.15
541.026	0.15
541.373	0.16
541.721	0.15
542.068	0.15
542.415	0.16
542.762	0.15
543.108	0.14
543.455	0.15
543.802	0.15
544.149	0.15
544.496	0.15
544.842	0.15
545.189	0.14
545.535	0.15
545.882	0.15
546.228	0.15
546.575	0.15
546.921	0.14
547.267	0.14
547.614	0.15
547.96	0.15
548.306	0.15
548.652	0.14
548.998	0.16
549.344	0.15
549.69	0.16
550.036	0.16
550.382	0.15
550.728	0.16
551.074	0.16
551.42	0.16
551.765	0.16
552.111	0.16
552.457	0.17
552.802	0.16
553.148	0.16
553.493	0.17
553.839	0.17
554.184	0.16
554.529	0.16
554.875	0.16
555.22	0.17
555.565	0.16
555.91	0.16
556.255	0.17
556.6	0.16
556.945	0.15
557.29	0.15
557.635	0.16
557.98	0.16
558.325	0.16
558.67	0.16
559.014	0.16
559.359	0.16
559.704	0.16
560.048	0.15
560.393	0.15
560.737	0.14
561.082	0.16
561.426	0.15
561.77	0.15
562.115	0.15
562.459	0.15
562.803	0.16
563.147	0.15
563.491	0.16
563.835	0.16
564.179	0.15
564.523	0.15
564.867	0.16
565.211	0.16
565.555	0.15
565.899	0.16
566.242	0.16
566.586	0.15
566.93	0.15
567.273	0.17
567.617	0.16
567.96	0.16
568.304	0.16
568.647	0.16
568.99	0.16
569.334	0.17
569.677	0.16
570.02	0.16
570.363	0.16
570.706	0.15
571.049	0.16
571.392	0.16
571.735	0.16
572.078	0.16
572.421	0.17
572.764	0.16
573.106	0.16
573.449	0.15
573.792	0.15
574.134	0.16
574.477	0.17
574.819	0.16
575.162	0.16
575.504	0.16
575.847	0.16
576.189	0.17
576.531	0.16
576.873	0.16
577.215	0.16
577.558	0.16
577.9	0.16
578.242	0.15
578.584	0.16
578.926	0.16
579.267	0.16
579.609	0.15
579.951	0.16
580.293	0.16
580.634	0.16
580.976	0.15
581.318	0.15
581.659	0.15
582.001	0.16
582.342	0.15
582.683	0.16
583.025	0.15
583.366	0.15
583.707	0.16
584.049	0.16
584.39	0.16
584.731	0.15
585.072	0.15
585.413	0.16
585.754	0.15
586.095	0.15
586.435	0.15
586.776	0.16
587.117	0.16
587.458	0.15
587.798	0.16
588.139	0.15
588.48	0.16
588.82	0.16
589.161	0.15
589.501	0.15
589.841	0.15
590.182	0.16
590.522	0.15
590.862	0.16
591.202	0.15
591.542	0.16
591.882	0.15
592.222	0.16
592.562	0.15
592.902	0.16
593.242	0.15
593.582	0.17
593.922	0.16
594.261	0.15
594.601	0.15
594.941	0.15
595.28	0.16
595.62	0.15
595.959	0.15
596.299	0.16
596.638	0.16
596.977	0.15
597.317	0.16
597.656	0.15
597.995	0.15
598.334	0.16
598.673	0.15
599.012	0.15
599.351	0.16
599.69	0.15
600.029	0.15
600.368	0.15
600.707	0.15
601.046	0.15
601.384	0.15
601.723	0.15
602.061	0.14
602.4	0.15
602.738	0.15
603.077	0.15
603.415	0.14
603.754	0.15
604.092	0.16
604.43	0.15
604.768	0.15
605.107	0.15
605.445	0.15
605.783	0.15
606.121	0.15
606.459	0.15
606.796	0.15
607.134	0.14
607.472	0.14
607.81	0.15
608.148	0.15
608.485	0.16
608.823	0.15
609.16	0.15
609.498	0.15
609.835	0.15
610.173	0.15
610.51	0.15
610.847	0.15
611.185	0.15
611.522	0.15
611.859	0.15
612.196	0.16
612.533	0.16
612.87	0.16
613.207	0.16
613.544	0.15
613.881	0.17
614.217	0.16
614.554	0.15
614.891	0.16
615.228	0.16
615.564	0.16
615.901	0.16
616.237	0.16
616.574	0.16
616.91	0.17
617.246	0.17
617.583	0.16
617.919	0.17
618.255	0.17
618.591	0.16
618.927	0.17
619.263	0.16
619.599	0.17
619.935	0.17
620.271	0.16
620.607	0.16
620.943	0.16
621.279	0.16
621.614	0.15
621.95	0.16
622.286	0.15
622.621	0.15
622.957	0.15
623.292	0.15
623.627	0.15
623.963	0.15
624.298	0.15
624.633	0.15
624.968	0.15
625.304	0.15
625.639	0.15
625.974	0.14
626.309	0.14
626.644	0.15
626.979	0.16
627.313	0.15
627.648	0.15
627.983	0.15
628.318	0.14
628.652	0.14
628.987	0.14
629.321	0.15
629.656	0.14
629.99	0.14
630.325	0.15
630.659	0.14
630.993	0.14
631.327	0.15
631.662	0.13
631.996	0.14
632.33	0.14
632.664	0.14
632.998	0.14
633.332	0.14
633.666	0.14
633.999	0.14
634.333	0.14
634.667	0.14
635.001	0.13
635.334	0.13
635.668	0.13
636.001	0.13
636.335	0.13
636.668	0.13
637.001	0.12
637.335	0.13
637.668	0.14
638.001	0.13
638.334	0.14
638.668	0.13
639.001	0.14
639.334	0.13
639.667	0.14
639.999	0.13
640.332	0.13
640.665	0.12
640.998	0.13
641.331	0.13
641.663	0.13
641.996	0.12
642.328	0.13
642.661	0.13
642.993	0.13
643.326	0.13
643.658	0.13
643.99	0.13
644.323	0.12
644.655	0.12
644.987	0.13
645.319	0.13
645.651	0.13
645.983	0.13
646.315	0.13
646.647	0.13
646.979	0.14
647.31	0.13
647.642	0.13
647.974	0.14
648.305	0.15
648.637	0.13
648.968	0.14
649.3	0.14
649.631	0.14
649.963	0.14
650.294	0.14
650.625	0.13
650.957	0.14
651.288	0.14
651.619	0.14
651.95	0.13
652.281	0.14
652.612	0.13
652.943	0.14
653.274	0.14
653.604	0.14
653.935	0.13
654.266	0.14
654.596	0.13
654.927	0.12
655.258	0.13
655.588	0.13
655.918	0.13
656.249	0.11
656.579	0.13
656.909	0.13
657.24	0.13
657.57	0.14
657.9	0.13
658.23	0.13
658.56	0.14
658.89	0.14
659.22	0.13
659.55	0.14
659.88	0.13
660.209	0.13
660.539	0.15
660.869	0.14
661.198	0.14
661.528	0.13
661.857	0.14
662.187	0.14
662.516	0.13
662.846	0.13
663.175	0.13
663.504	0.13
663.833	0.13
664.163	0.13
664.492	0.13
664.821	0.13
665.15	0.13
665.479	0.13
665.807	0.12
666.136	0.12
666.465	0.12
666.794	0.13
667.122	0.13
667.451	0.12
667.78	0.12
668.108	0.13
668.437	0.12
668.765	0.13
669.093	0.13
669.422	0.12
669.75	0.13
670.078	0.12
670.406	0.13
670.734	0.13
671.062	0.13
671.39	0.13
671.718	0.13
672.046	0.13
672.374	0.12
672.702	0.12
673.029	0.12
673.357	0.13
673.685	0.13
674.012	0.11
674.34	0.12
674.667	0.13
674.995	0.12
675.322	0.12
675.649	0.11
675.977	0.12
676.304	0.13
676.631	0.11
676.958	0.12
677.285	0.11
677.612	0.11
677.939	0.12
678.266	0.12
678.593	0.11
678.92	0.12
679.246	0.11
679.573	0.11
679.9	0.1
680.226	0.11
680.553	0.1
680.879	0.11
681.206	0.11
681.532	0.11
681.858	0.11
682.184	0.1
682.511	0.11
682.837	0.11
683.163	0.1
683.489	0.11
683.815	0.1
684.141	0.1
684.467	0.1
684.793	0.11
685.118	0.1
685.444	0.11
685.77	0.11
686.095	0.1
686.421	0.11
686.746	0.11
687.072	0.11
687.397	0.11
687.723	0.12
688.048	0.11
688.373	0.11
688.698	0.11
689.023	0.11
689.349	0.11
689.674	0.11
689.999	0.1
690.323	0.1
690.648	0.1
690.973	0.1
691.298	0.09
691.623	0.09
691.947	0.1
692.272	0.09
692.596	0.09
692.921	0.1
693.245	0.09
693.57	0.1
693.894	0.1
694.218	0.1
694.543	0.1
694.867	0.1
695.191	0.09
695.515	0.1
695.839	0.09
696.163	0.09
696.487	0.1
696.811	0.09
697.135	0.1
697.458	0.09
697.782	0.09
698.106	0.1
698.429	0.09
698.753	0.09
699.076	0.09
699.4	0.09
699.723	0.1
700.046	0.09
700.37	0.09
700.693	0.09
701.016	0.09
701.339	0.09
701.662	0.09
701.985	0.1
702.308	0.09
702.631	0.09
702.954	0.09
703.277	0.1
703.599	0.1
703.922	0.09
704.245	0.09
704.567	0.09
704.89	0.09
705.212	0.09
705.535	0.08
705.857	0.08
706.179	0.08
706.502	0.09
706.824	0.08
707.146	0.08
707.468	0.09
707.79	0.09
708.112	0.09
708.434	0.09
708.756	0.09
709.078	0.09
709.399	0.09
709.721	0.09
710.043	0.09
710.364	0.09
710.686	0.09
711.007	0.08
711.329	0.09
711.65	0.09
711.972	0.09
712.293	0.09
712.614	0.09
712.935	0.09
713.256	0.09
713.577	0.1
713.898	0.08
714.219	0.08
714.54	0.08
714.861	0.07
715.182	0.08
715.503	0.08
715.823	0.08
716.144	0.08
716.464	0.08
716.785	0.07
717.105	0.08
717.426	0.08
717.746	0.08
718.066	0.08
718.387	0.08
718.707	0.06
719.027	0.08
719.347	0.07
719.667	0.07
719.987	0.07
720.307	0.07
720.627	0.07
720.947	0.06
721.266	0.06
721.586	0.06
721.906	0.06
722.225	0.06
722.545	0.06
722.864	0.06
723.184	0.07
723.503	0.07
723.823	0.06
724.142	0.06
724.461	0.06
724.78	0.06
725.099	0.06
725.418	0.06
725.737	0.06
726.056	0.07
726.375	0.07
726.694	0.06
727.013	0.07
727.331	0.06
727.65	0.06
727.969	0.07
728.287	0.07
728.606	0.06
728.924	0.05
729.242	0.06
729.561	0.06
729.879	0.06
730.197	0.06
730.515	0.06
730.834	0.07
731.152	0.06
731.47	0.07
731.788	0.06
732.105	0.05
732.423	0.06
732.741	0.05
733.059	0.06
733.376	0.07
733.694	0.06
734.012	0.06
734.329	0.07
734.647	0.06
734.964	0.06
735.281	0.06
735.599	0.06
735.916	0.06
736.233	0.06
736.55	0.06
736.867	0.06
737.184	0.07
737.501	0.06
737.818	0.06
738.135	0.07
738.452	0.06
738.768	0.07
739.085	0.07
739.402	0.05
739.718	0.07
740.035	0.06
740.351	0.07
740.668	0.07
740.984	0.06
741.3	0.07
741.617	0.07
741.933	0.07
742.249	0.07
742.565	0.06
742.881	0.07
743.197	0.07
743.513	0.06
743.829	0.06
744.144	0.07
744.46	0.06
744.776	0.07
745.091	0.07
745.407	0.07
745.722	0.06
746.038	0.07
746.353	0.05
746.669	0.08
746.984	0.06
747.299	0.07
747.614	0.07
747.93	0.08
748.245	0.07
748.56	0.07
748.875	0.06
749.189	0.07
749.504	0.07
749.819	0.07
750.134	0.07
750.448	0.07
750.763	0.06
751.078	0.05
751.392	0.06
751.707	0.07
752.021	0.07
752.335	0.07
752.65	0.07
752.964	0.07
753.278	0.06
753.592	0.06
753.906	0.06
754.22	0.06
754.534	0.06
754.848	0.06
755.162	0.06
755.476	0.06
755.789	0.07
756.103	0.06
756.417	0.06
756.73	0.07
757.044	0.07
757.357	0.06
757.671	0.06
757.984	0.07
758.297	0.07
758.61	0.07
758.924	0.06
759.237	0.06
759.55	0.06
759.863	0.06
760.176	0.06
760.488	0.07
760.801	0.06
761.114	0.07
761.427	0.05
761.739	0.07
762.052	0.05
762.365	0.06
762.677	0.06
762.99	0.05
763.302	0.05
763.614	0.06
763.926	0.06
764.239	0.06
764.551	0.05
764.863	0.06
765.175	0.06
765.487	0.06
765.799	0.05
766.111	0.05
766.423	0.05
766.734	0.06
767.046	0.05
767.358	0.05
767.669	0.06
767.981	0.05
768.292	0.04
768.604	0.05
768.915	0.05
769.226	0.05
769.537	0.04
769.849	0.06
770.16	0.05
770.471	0.04
770.782	0.04
771.093	0.05
771.404	0.04
771.715	0.04
772.025	0.05
772.336	0.05
772.647	0.04
772.957	0.04
773.268	0.04
773.578	0.04
773.889	0.05
774.199	0.05
774.51	0.05
774.82	0.05
775.13	0.05
775.44	0.05
775.75	0.05
776.06	0.06
776.37	0.05
776.68	0.05
776.99	0.05
777.3	0.04
777.61	0.05
777.92	0.05
778.229	0.04
778.539	0.05
778.848	0.05
779.158	0.05
779.467	0.06
779.777	0.05
780.086	0.05
780.395	0.04
780.704	0.04
781.013	0.04
781.323	0.05
781.632	0.05
781.941	0.05
782.249	0.05
782.558	0.04
782.867	0.05
783.176	0.04
783.485	0.04
783.793	0.05
784.102	0.05
784.41	0.05
784.719	0.04
785.027	0.03
785.335	0.05
785.644	0.04
785.952	0.05
786.26	0.04
786.568	0.03
786.876	0.04
787.184	0.04
787.492	0.05
787.8	0.04
788.108	0.04
788.416	0.04
788.723	0.04
789.031	0.04
789.338	0.04
789.646	0.04
789.953	0.05
790.261	0.05
790.568	0.04
790.876	0.04
791.183	0.05
791.49	0.04
791.797	0.04
792.104	0.04
792.411	0.04
792.718	0.04
793.025	0.05
793.332	0.04
793.639	0.04
793.945	0.05
794.252	0.05
794.559	0.05
794.865	0.05
795.172	0.04
795.478	0.04
795.784	0.05
796.091	0.05
796.397	0.05
796.703	0.05
797.009	0.06
797.315	0.06
797.622	0.05
797.927	0.04
798.233	0.04
798.539	0.05
798.845	0.05
799.151	0.05
799.456	0.05
799.762	0.05
800.068	0.04
800.373	0.05
800.679	0.04
800.984	0.04
801.289	0.04
801.595	0.04
801.9	0.04
802.205	0.03
802.51	0.05
802.815	0.04
803.12	0.03
803.425	0.04
803.73	0.04
804.035	0.05
804.339	0.03
804.644	0.04
804.949	0.04
805.253	0.03
805.558	0.04
805.862	0.04
806.167	0.04
806.471	0.04
806.775	0.05
807.08	0.04
807.384	0.04
807.688	0.04
807.992	0.05
808.296	0.04
808.6	0.05
808.904	0.05
809.207	0.04
809.511	0.06
809.815	0.05
810.119	0.05
810.422	0.05
810.726	0.06
811.029	0.06
811.332	0.05
811.636	0.06
811.939	0.05
812.242	0.05
812.546	0.05
812.849	0.05
813.152	0.05
813.455	0.05
813.758	0.06
814.06	0.05
814.363	0.06
814.666	0.05
814.969	0.05
815.271	0.05
815.574	0.05
815.877	0.04
816.179	0.05
816.481	0.04
816.784	0.04
817.086	0.04
817.388	0.03
817.69	0.03
817.993	0.03
818.295	0.04
818.597	0.03
818.899	0.03
819.2	0.02
819.502	0.02
819.804	0.03
820.106	0.02
820.407	0.03
820.709	0.03
821.01	0.03
821.312	0.03
821.613	0.03
821.915	0.02
822.216	0.04
822.517	0.03
822.818	0.03
823.119	0.03
823.42	0.04
823.721	0.03
824.022	0.03
824.323	0.03
824.624	0.03
824.925	0.04
825.226	0.04
825.526	0.03
825.827	0.03
826.127	0.03
826.428	0.04
826.728	0.03
827.028	0.03
827.329	0.04
827.629	0.02
827.929	0.03
828.229	0.03
828.529	0.03
828.829	0.03
829.129	0.03
829.429	0.04
829.729	0.03
830.029	0.03
830.328	0.03
830.628	0.02
830.927	0.02
831.227	0.02
831.526	0.03
831.826	0.03
832.125	0.03
832.424	0.02
832.724	0.02
833.023	0.03
833.322	0.03
833.621	0.03
833.92	0.02
834.219	0.03
834.518	0.03
834.816	0.02
835.115	0.02
835.414	0.02
835.712	0.01
836.011	0.02
836.309	0.02
836.608	0.01
836.906	0.02
837.205	0
837.503	0.01
837.801	0.01
838.099	0
838.397	-0.01
838.695	0
838.993	-0
839.291	-0.01
839.589	-0.01
839.887	-0.01
840.184	-0.01
840.482	-0.02
840.78	-0.01
841.077	-0.02
841.375	-0.02
841.672	-0.02
841.969	-0.02
842.267	-0.03
842.564	-0.03
842.861	-0.02
843.158	-0.02
843.455	-0.05
843.752	-0.04
844.049	-0.03
844.346	-0.04
844.643	-0.04
844.94	-0.04
845.236	-0.03
845.533	-0.04
845.83	-0.04
846.126	-0.04
846.423	-0.04
846.719	-0.06
847.015	-0.04
847.312	-0.05
847.608	-0.05
847.904	-0.06
848.2	-0.06
848.496	-0.06
848.792	-0.05
849.088	-0.04
849.384	-0.06
849.68	-0.06
849.975	-0.05
850.271	-0.07
850.567	-0.06
850.862	-0.05
851.158	-0.07
851.453	-0.07
851.748	-0.06
852.044	-0.07
852.339	-0.06
852.634	-0.08
852.929	-0.06
853.224	-0.07
853.519	-0.07
853.814	-0.06
854.109	-0.08
854.404	-0.08
854.699	-0.07
854.994	-0.08
855.288	-0.08
855.583	-0.07
855.877	-0.08
856.172	-0.08
856.466	-0.08
856.76	-0.09
857.055	-0.09
857.349	-0.1
857.643	-0.09
857.937	-0.1
858.231	-0.09
858.525	-0.1
858.819	-0.09
859.113	-0.12
859.407	-0.11
859.701	-0.11
859.994	-0.11
860.288	-0.1
860.581	-0.12
860.875	-0.11
861.168	-0.12
861.462	-0.11
861.755	-0.11
862.048	-0.12
862.341	-0.12
862.634	-0.12
862.928	-0.11
863.221	-0.12
863.513	-0.11
863.806	-0.12
864.099	-0.12
864.392	-0.13
864.685	-0.12
864.977	-0.12
865.27	-0.13
865.562	-0.12
865.855	-0.12
866.147	-0.13
866.44	-0.13
866.732	-0.13
867.024	-0.14
867.316	-0.13
867.608	-0.14
867.9	-0.14
868.192	-0.15
868.484	-0.14
868.776	-0.15
869.068	-0.14
869.359	-0.14
869.651	-0.15
869.943	-0.16
870.234	-0.14
870.526	-0.16
870.817	-0.15
871.108	-0.14
871.4	-0.15
871.691	-0.16
871.982	-0.15
872.273	-0.18
872.564	-0.17
872.855	-0.17
873.146	-0.17
873.437	-0.16
873.728	-0.18
874.019	-0.17
874.309	-0.17
874.6	-0.17
874.89	-0.18
875.181	-0.18
875.471	-0.17
875.762	-0.17
876.052	-0.17
876.342	-0.17
876.632	-0.16
876.922	-0.18
877.213	-0.18
877.503	-0.18
877.792	-0.18
878.082	-0.19
878.372	-0.17
878.662	-0.2
878.952	-0.18
879.241	-0.18
879.531	-0.17
879.82	-0.19
880.11	-0.18
880.399	-0.19
880.688	-0.17
880.978	-0.17
881.267	-0.17
