Data from 12-12-AQDScycling_Absorbance__443__00443.txt Node

Date: Tue Dec 12 12:47:29 EST 2023
User: kyuminlee
Spectrometer: FLMS00943
Trigger mode: 0
Integration Time (sec): 1.000000E-1
Scans to average: 1
Electric dark correction enabled: true
Nonlinearity correction enabled: false
Boxcar width: 0
XAxis mode: Wavelengths
Number of Pixels in Spectrum: 2048
>>>>>Begin Spectral Data<<<<<
179.651	-0
180.037	-0
180.424	-0
180.81	0.06
181.197	0.33
181.583	-0
181.97	1.29
182.356	-0
182.743	-0
183.129	0.15
183.515	0.37
183.901	-0
184.288	0.26
184.674	-0
185.06	-1.3
185.446	-0.08
185.832	-0.17
186.218	0.39
186.604	-0.12
186.99	-0.15
187.376	0.01
187.762	-0.04
188.148	0.61
188.534	-0.23
188.92	0.08
189.305	0.15
189.691	0.15
190.077	0.22
190.463	0.08
190.848	0.06
191.234	0.07
191.619	-0.01
192.005	0.11
192.391	0.04
192.776	0.1
193.161	0.11
193.547	0.09
193.932	0.11
194.318	0.12
194.703	0.16
195.088	0.17
195.473	0.14
195.859	0.12
196.244	0.2
196.629	0.07
197.014	-0.01
197.399	0.14
197.784	0.11
198.169	0.08
198.554	0.19
198.939	0.13
199.324	0.06
199.709	0.01
200.094	0.04
200.478	0.17
200.863	0.08
201.248	0.16
201.633	0.02
202.017	0.16
202.402	0.44
202.787	0.11
203.171	0.41
203.556	0.22
203.94	0.32
204.325	0.16
204.709	0.12
205.093	0.14
205.478	0.19
205.862	0.14
206.246	0.13
206.631	0.23
207.015	0.06
207.399	0.22
207.783	0.09
208.167	0.16
208.551	0.33
208.935	0.07
209.319	0.1
209.703	0.11
210.087	0.2
210.471	-0.03
210.855	0.12
211.239	0.19
211.623	0.18
212.007	0.28
212.39	0.21
212.774	0.22
213.158	0.12
213.541	0.35
213.925	0.2
214.309	0.37
214.692	0.13
215.076	0.11
215.459	0.11
215.842	0.14
216.226	0.4
216.609	0.3
216.993	0.16
217.376	0.39
217.759	0.18
218.142	0.35
218.525	0.34
218.909	0.28
219.292	0.31
219.675	0.36
220.058	0.42
220.441	0.45
220.824	0.42
221.207	0.46
221.59	0.54
221.973	0.52
222.355	0.59
222.738	0.69
223.121	0.55
223.504	0.61
223.886	0.57
224.269	0.76
224.652	0.73
225.034	0.64
225.417	0.69
225.799	0.72
226.182	0.82
226.564	0.82
226.947	0.62
227.329	0.79
227.711	0.84
228.094	0.91
228.476	1.03
228.858	0.76
229.24	0.84
229.623	0.91
230.005	0.96
230.387	0.85
230.769	0.84
231.151	0.91
231.533	0.91
231.915	0.97
232.297	0.95
232.679	0.81
233.061	0.93
233.442	1.02
233.824	1.11
234.206	1.2
234.588	1.09
234.969	1.07
235.351	0.99
235.733	1.05
236.114	1.29
236.496	1.03
236.877	1.11
237.259	1.02
237.64	1.09
238.022	0.95
238.403	0.97
238.784	1.07
239.165	0.98
239.547	1.13
239.928	1.06
240.309	1.14
240.69	1.05
241.071	1.05
241.452	1.05
241.834	0.96
242.215	1.17
242.595	0.96
242.976	1.25
243.357	1.22
243.738	1.11
244.119	1.1
244.5	1.09
244.881	1.1
245.261	1.32
245.642	1.15
246.023	1.13
246.403	1.13
246.784	1.29
247.164	1.27
247.545	1.3
247.925	1.25
248.306	1.25
248.686	1.45
249.067	1.26
249.447	1.41
249.827	1.45
250.207	1.33
250.588	1.19
250.968	1.41
251.348	1.26
251.728	1.42
252.108	1.41
252.488	1.41
252.868	1.45
253.248	1.43
253.628	1.36
254.008	1.51
254.388	1.26
254.768	1.28
255.147	1.62
255.527	1.4
255.907	1.49
256.287	1.34
256.666	1.47
257.046	1.49
257.425	1.46
257.805	1.3
258.184	1.31
258.564	1.4
258.943	1.3
259.323	1.4
259.702	1.49
260.081	1.53
260.461	1.37
260.84	1.43
261.219	1.62
261.598	1.4
261.977	1.4
262.356	1.4
262.736	1.49
263.115	1.56
263.494	1.4
263.873	1.46
264.251	1.4
264.63	1.58
265.009	1.33
265.388	1.41
265.767	1.36
266.145	1.36
266.524	1.34
266.903	1.35
267.281	1.36
267.66	1.43
268.039	1.44
268.417	1.34
268.796	1.36
269.174	1.39
269.552	1.32
269.931	1.49
270.309	1.4
270.687	1.47
271.066	1.55
271.444	1.3
271.822	1.39
272.2	1.38
272.578	1.48
272.956	1.34
273.334	1.41
273.712	1.38
274.09	1.36
274.468	1.41
274.846	1.34
275.224	1.44
275.602	1.43
275.98	1.39
276.357	1.47
276.735	1.32
277.113	1.43
277.49	1.33
277.868	1.29
278.246	1.37
278.623	1.27
279.001	1.4
279.378	1.34
279.756	1.65
280.133	1.54
280.51	1.3
280.888	1.33
281.265	1.24
281.642	1.48
282.019	1.75
282.396	1.48
282.773	1.43
283.151	1.47
283.528	1.51
283.905	1.39
284.282	1.43
284.659	1.61
285.035	1.3
285.412	1.34
285.789	1.39
286.166	1.4
286.543	1.55
286.919	1.5
287.296	1.29
287.673	1.53
288.049	1.52
288.426	1.57
288.802	1.54
289.179	1.46
289.555	1.56
289.932	1.39
290.308	1.39
290.684	1.34
291.061	1.32
291.437	1.5
291.813	1.41
292.189	1.38
292.565	1.41
292.942	1.25
293.318	1.26
293.694	1.51
294.07	1.37
294.446	1.5
294.822	1.64
295.197	1.38
295.573	1.52
295.949	1.54
296.325	1.48
296.701	1.45
297.076	1.56
297.452	1.57
297.828	1.44
298.203	1.53
298.579	1.41
298.954	1.43
299.33	1.41
299.705	1.53
300.081	1.56
300.456	1.47
300.831	1.49
301.206	1.46
301.582	1.66
301.957	1.45
302.332	1.69
302.707	1.43
303.082	1.47
303.457	1.48
303.832	1.51
304.207	1.36
304.582	1.4
304.957	1.59
305.332	1.56
305.707	1.46
306.082	1.48
306.456	1.66
306.831	1.41
307.206	1.47
307.58	1.52
307.955	1.43
308.33	1.5
308.704	1.52
309.079	1.53
309.453	1.54
309.828	1.56
310.202	1.57
310.576	1.51
310.951	1.47
311.325	1.57
311.699	1.4
312.073	1.35
312.447	1.52
312.821	1.43
313.196	1.46
313.57	1.43
313.944	1.47
314.317	1.42
314.691	1.39
315.065	1.41
315.439	1.54
315.813	1.47
316.187	1.45
316.56	1.6
316.934	1.55
317.308	1.41
317.681	1.46
318.055	1.49
318.428	1.53
318.802	1.64
319.175	1.48
319.549	1.44
319.922	1.36
320.295	1.4
320.669	1.63
321.042	1.38
321.415	1.69
321.788	1.41
322.162	1.44
322.535	1.46
322.908	1.5
323.281	1.44
323.654	1.67
324.027	1.5
324.4	1.56
324.773	1.52
325.145	1.53
325.518	1.4
325.891	1.3
326.264	1.68
326.636	1.5
327.009	1.57
327.382	1.56
327.754	1.49
328.127	1.47
328.499	1.68
328.872	1.59
329.244	1.5
329.616	1.43
329.989	1.39
330.361	1.51
330.733	1.45
331.106	1.39
331.478	1.54
331.85	1.36
332.222	1.51
332.594	1.47
332.966	1.54
333.338	1.51
333.71	1.48
334.082	1.78
334.454	1.48
334.826	1.53
335.197	1.52
335.569	1.57
335.941	1.39
336.312	1.49
336.684	1.46
337.056	1.45
337.427	1.56
337.799	1.57
338.17	1.5
338.542	1.46
338.913	1.49
339.284	1.59
339.656	1.51
340.027	1.65
340.398	1.6
340.769	1.6
341.141	1.79
341.512	1.58
341.883	1.58
342.254	1.58
342.625	1.57
342.996	1.5
343.367	1.48
343.738	1.62
344.108	1.43
344.479	1.5
344.85	1.56
345.221	1.62
345.591	1.4
345.962	1.46
346.333	1.41
346.703	1.26
347.074	1.32
347.444	1.35
347.815	1.39
348.185	1.35
348.556	1.43
348.926	1.24
349.296	1.34
349.666	1.33
350.037	1.34
350.407	1.25
350.777	1.43
351.147	1.4
351.517	1.37
351.887	1.4
352.257	1.45
352.627	1.29
352.997	1.22
353.367	1.37
353.737	1.3
354.106	1.31
354.476	1.28
354.846	1.35
355.216	1.45
355.585	1.34
355.955	1.45
356.324	1.39
356.694	1.32
357.063	1.27
357.433	1.23
357.802	1.28
358.171	1.26
358.541	1.23
358.91	1.23
359.279	1.34
359.648	1.19
360.017	1.22
360.387	1.21
360.756	1.18
361.125	1.21
361.494	1.17
361.863	1.15
362.231	1.09
362.6	1.11
362.969	1.19
363.338	1.06
363.707	1.09
364.075	1.11
364.444	1.04
364.813	1.05
365.181	1.07
365.55	1.07
365.918	1.08
366.287	1.02
366.655	1.07
367.024	1.04
367.392	1.05
367.76	1
368.128	1
368.497	1.02
368.865	0.97
369.233	1.01
369.601	0.98
369.969	1.03
370.337	0.98
370.705	0.96
371.073	0.99
371.441	0.93
371.809	0.98
372.177	0.98
372.544	0.97
372.912	1.01
373.28	0.98
373.647	0.95
374.015	0.98
374.383	1
374.75	0.99
375.118	0.95
375.485	0.99
375.853	0.97
376.22	0.94
376.587	0.97
376.955	0.95
377.322	0.98
377.689	0.95
378.056	0.93
378.423	0.9
378.79	0.98
379.157	0.91
379.524	0.95
379.891	0.93
380.258	0.96
380.625	0.95
380.992	0.93
381.359	0.97
381.726	1.03
382.092	0.99
382.459	0.95
382.826	0.95
383.192	0.96
383.559	0.97
383.925	1
384.292	0.96
384.658	1.02
385.025	0.97
385.391	1.02
385.757	1.02
386.123	1.06
386.49	1.01
386.856	1.03
387.222	1.02
387.588	1.01
387.954	1.08
388.32	1.17
388.686	1.04
389.052	1.05
389.418	1.03
389.784	1.05
390.15	1.05
390.515	1.02
390.881	1.13
391.247	1.06
391.613	1.09
391.978	1.04
392.344	1.13
392.709	1.09
393.075	1.11
393.44	1.07
393.806	1.08
394.171	1.05
394.536	1.03
394.902	1.05
395.267	1.02
395.632	1
395.997	1.03
396.362	1.01
396.727	1.03
397.092	1.05
397.457	1.01
397.822	1.05
398.187	1.02
398.552	0.96
398.917	0.99
399.282	1.02
399.646	0.97
400.011	1.03
400.376	0.98
400.74	1.01
401.105	0.97
401.47	0.97
401.834	0.97
402.199	0.91
402.563	0.9
402.927	0.87
403.292	0.95
403.656	0.93
404.02	0.91
404.384	0.95
404.749	0.9
405.113	0.93
405.477	0.88
405.841	0.86
406.205	0.87
406.569	0.87
406.933	0.85
407.296	0.86
407.66	0.86
408.024	0.86
408.388	0.82
408.752	0.83
409.115	0.84
409.479	0.84
409.842	0.82
410.206	0.81
410.569	0.79
410.933	0.82
411.296	0.78
411.66	0.81
412.023	0.75
412.386	0.78
412.749	0.76
413.113	0.76
413.476	0.73
413.839	0.77
414.202	0.74
414.565	0.75
414.928	0.74
415.291	0.72
415.654	0.73
416.017	0.76
416.38	0.72
416.742	0.71
417.105	0.69
417.468	0.72
417.83	0.7
418.193	0.72
418.556	0.73
418.918	0.7
419.281	0.72
419.643	0.71
420.005	0.69
420.368	0.72
420.73	0.68
421.092	0.68
421.455	0.7
421.817	0.67
422.179	0.69
422.541	0.68
422.903	0.69
423.265	0.69
423.627	0.7
423.989	0.68
424.351	0.66
424.713	0.65
425.075	0.65
425.436	0.65
425.798	0.65
426.16	0.67
426.521	0.68
426.883	0.65
427.245	0.66
427.606	0.64
427.967	0.64
428.329	0.66
428.69	0.66
429.052	0.64
429.413	0.64
429.774	0.66
430.135	0.63
430.497	0.65
430.858	0.63
431.219	0.62
431.58	0.61
431.941	0.63
432.302	0.63
432.663	0.62
433.024	0.64
433.384	0.63
433.745	0.61
434.106	0.62
434.467	0.61
434.827	0.63
435.188	0.61
435.548	0.63
435.909	0.62
436.269	0.62
436.63	0.6
436.99	0.58
437.351	0.6
437.711	0.61
438.071	0.59
438.431	0.59
438.792	0.58
439.152	0.57
439.512	0.57
439.872	0.57
440.232	0.59
440.592	0.57
440.952	0.59
441.312	0.55
441.671	0.56
442.031	0.56
442.391	0.55
442.751	0.55
443.11	0.55
443.47	0.52
443.83	0.54
444.189	0.54
444.549	0.54
444.908	0.53
445.267	0.52
445.627	0.53
445.986	0.51
446.345	0.51
446.705	0.53
447.064	0.51
447.423	0.51
447.782	0.52
448.141	0.52
448.5	0.51
448.859	0.49
449.218	0.49
449.577	0.49
449.936	0.52
450.295	0.5
450.653	0.49
451.012	0.49
451.371	0.5
451.729	0.48
452.088	0.48
452.447	0.48
452.805	0.48
453.163	0.47
453.522	0.48
453.88	0.46
454.239	0.46
454.597	0.46
454.955	0.46
455.313	0.45
455.671	0.45
456.029	0.44
456.388	0.44
456.746	0.44
457.104	0.43
457.461	0.42
457.819	0.43
458.177	0.42
458.535	0.4
458.893	0.4
459.25	0.41
459.608	0.4
459.966	0.38
460.323	0.39
460.681	0.39
461.038	0.39
461.396	0.37
461.753	0.38
462.111	0.37
462.468	0.37
462.825	0.35
463.182	0.35
463.54	0.35
463.897	0.35
464.254	0.35
464.611	0.35
464.968	0.34
465.325	0.34
465.682	0.34
466.039	0.34
466.395	0.33
466.752	0.33
467.109	0.33
467.466	0.32
467.822	0.33
468.179	0.31
468.535	0.31
468.892	0.3
469.248	0.3
469.605	0.29
469.961	0.3
470.318	0.31
470.674	0.3
471.03	0.29
471.386	0.29
471.743	0.28
472.099	0.28
472.455	0.29
472.811	0.27
473.167	0.28
473.523	0.26
473.879	0.27
474.235	0.26
474.59	0.25
474.946	0.26
475.302	0.25
475.657	0.25
476.013	0.25
476.369	0.23
476.724	0.24
477.08	0.24
477.435	0.24
477.791	0.23
478.146	0.23
478.501	0.23
478.857	0.22
479.212	0.22
479.567	0.22
479.922	0.21
480.277	0.22
480.632	0.21
480.987	0.21
481.342	0.21
481.697	0.2
482.052	0.2
482.407	0.2
482.762	0.19
483.116	0.19
483.471	0.19
483.826	0.19
484.18	0.19
484.535	0.19
484.89	0.18
485.244	0.19
485.598	0.18
485.953	0.18
486.307	0.18
486.661	0.18
487.016	0.18
487.37	0.18
487.724	0.17
488.078	0.18
488.432	0.17
488.786	0.17
489.14	0.17
489.494	0.17
489.848	0.16
490.202	0.16
490.556	0.16
490.91	0.16
491.263	0.16
491.617	0.16
491.971	0.16
492.324	0.15
492.678	0.16
493.031	0.16
493.385	0.15
493.738	0.15
494.091	0.15
494.445	0.15
494.798	0.15
495.151	0.14
495.504	0.14
495.857	0.15
496.21	0.15
496.564	0.14
496.916	0.15
497.269	0.14
497.622	0.14
497.975	0.14
498.328	0.15
498.681	0.14
499.033	0.14
499.386	0.14
499.739	0.13
500.091	0.14
500.444	0.13
500.796	0.13
501.149	0.13
501.501	0.13
501.854	0.13
502.206	0.13
502.558	0.13
502.91	0.13
503.263	0.13
503.615	0.13
503.967	0.13
504.319	0.12
504.671	0.13
505.023	0.13
505.375	0.12
505.726	0.12
506.078	0.12
506.43	0.12
506.782	0.12
507.133	0.12
507.485	0.12
507.837	0.13
508.188	0.13
508.54	0.12
508.891	0.13
509.243	0.11
509.594	0.12
509.945	0.12
510.296	0.12
510.648	0.12
510.999	0.11
511.35	0.12
511.701	0.12
512.052	0.12
512.403	0.12
512.754	0.12
513.105	0.11
513.456	0.12
513.807	0.12
514.157	0.12
514.508	0.12
514.859	0.11
515.209	0.12
515.56	0.13
515.91	0.12
516.261	0.12
516.611	0.12
516.962	0.12
517.312	0.12
517.662	0.12
518.013	0.12
518.363	0.12
518.713	0.12
519.063	0.12
519.413	0.12
519.763	0.12
520.113	0.12
520.463	0.12
520.813	0.12
521.163	0.13
521.512	0.12
521.862	0.11
522.212	0.12
522.562	0.12
522.911	0.13
523.261	0.12
523.61	0.12
523.96	0.12
524.309	0.12
524.658	0.12
525.008	0.12
525.357	0.12
525.706	0.12
526.056	0.12
526.405	0.12
526.754	0.12
527.103	0.12
527.452	0.12
527.801	0.12
528.15	0.13
528.499	0.12
528.847	0.12
529.196	0.12
529.545	0.13
529.893	0.13
530.242	0.13
530.591	0.13
530.939	0.13
531.288	0.13
531.636	0.13
531.985	0.13
532.333	0.13
532.681	0.12
533.029	0.13
533.378	0.13
533.726	0.13
534.074	0.13
534.422	0.12
534.77	0.13
535.118	0.13
535.466	0.13
535.814	0.12
536.162	0.13
536.509	0.14
536.857	0.13
537.205	0.13
537.552	0.13
537.9	0.13
538.248	0.13
538.595	0.13
538.943	0.13
539.29	0.12
539.637	0.13
539.985	0.13
540.332	0.12
540.679	0.12
541.026	0.13
541.373	0.13
541.721	0.13
542.068	0.12
542.415	0.12
542.762	0.12
543.108	0.12
543.455	0.11
543.802	0.11
544.149	0.11
544.496	0.12
544.842	0.12
545.189	0.11
545.535	0.11
545.882	0.12
546.228	0.12
546.575	0.12
546.921	0.12
547.267	0.11
547.614	0.12
547.96	0.12
548.306	0.12
548.652	0.12
548.998	0.13
549.344	0.12
549.69	0.11
550.036	0.12
550.382	0.12
550.728	0.12
551.074	0.13
551.42	0.12
551.765	0.12
552.111	0.13
552.457	0.12
552.802	0.12
553.148	0.12
553.493	0.12
553.839	0.12
554.184	0.13
554.529	0.12
554.875	0.12
555.22	0.13
555.565	0.12
555.91	0.13
556.255	0.13
556.6	0.13
556.945	0.12
557.29	0.12
557.635	0.12
557.98	0.13
558.325	0.12
558.67	0.13
559.014	0.12
559.359	0.13
559.704	0.13
560.048	0.13
560.393	0.13
560.737	0.12
561.082	0.13
561.426	0.11
561.77	0.13
562.115	0.13
562.459	0.13
562.803	0.13
563.147	0.13
563.491	0.12
563.835	0.13
564.179	0.12
564.523	0.12
564.867	0.13
565.211	0.13
565.555	0.13
565.899	0.13
566.242	0.12
566.586	0.12
566.93	0.13
567.273	0.14
567.617	0.13
567.96	0.13
568.304	0.13
568.647	0.12
568.99	0.14
569.334	0.14
569.677	0.13
570.02	0.13
570.363	0.13
570.706	0.13
571.049	0.13
571.392	0.13
571.735	0.13
572.078	0.13
572.421	0.14
572.764	0.12
573.106	0.13
573.449	0.12
573.792	0.13
574.134	0.13
574.477	0.13
574.819	0.13
575.162	0.12
575.504	0.12
575.847	0.13
576.189	0.13
576.531	0.12
576.873	0.12
577.215	0.13
577.558	0.12
577.9	0.12
578.242	0.12
578.584	0.13
578.926	0.13
579.267	0.12
579.609	0.13
579.951	0.13
580.293	0.13
580.634	0.13
580.976	0.13
581.318	0.13
581.659	0.13
582.001	0.13
582.342	0.13
582.683	0.13
583.025	0.12
583.366	0.12
583.707	0.13
584.049	0.12
584.39	0.13
584.731	0.12
585.072	0.12
585.413	0.14
585.754	0.12
586.095	0.12
586.435	0.12
586.776	0.13
587.117	0.12
587.458	0.13
587.798	0.13
588.139	0.13
588.48	0.12
588.82	0.12
589.161	0.12
589.501	0.12
589.841	0.13
590.182	0.12
590.522	0.12
590.862	0.12
591.202	0.13
591.542	0.12
591.882	0.12
592.222	0.12
592.562	0.13
592.902	0.12
593.242	0.13
593.582	0.13
593.922	0.13
594.261	0.12
594.601	0.12
594.941	0.12
595.28	0.12
595.62	0.13
595.959	0.12
596.299	0.12
596.638	0.12
596.977	0.12
597.317	0.13
597.656	0.13
597.995	0.13
598.334	0.13
598.673	0.13
599.012	0.13
599.351	0.13
599.69	0.13
600.029	0.14
600.368	0.13
600.707	0.13
601.046	0.13
601.384	0.14
601.723	0.13
602.061	0.13
602.4	0.12
602.738	0.13
603.077	0.12
603.415	0.12
603.754	0.12
604.092	0.13
604.43	0.12
604.768	0.13
605.107	0.12
605.445	0.12
605.783	0.12
606.121	0.12
606.459	0.13
606.796	0.12
607.134	0.12
607.472	0.13
607.81	0.13
608.148	0.12
608.485	0.13
608.823	0.13
609.16	0.12
609.498	0.12
609.835	0.13
610.173	0.12
610.51	0.13
610.847	0.12
611.185	0.13
611.522	0.13
611.859	0.13
612.196	0.13
612.533	0.14
612.87	0.13
613.207	0.13
613.544	0.14
613.881	0.14
614.217	0.14
614.554	0.13
614.891	0.13
615.228	0.14
615.564	0.13
615.901	0.14
616.237	0.13
616.574	0.13
616.91	0.14
617.246	0.13
617.583	0.13
617.919	0.14
618.255	0.13
618.591	0.13
618.927	0.13
619.263	0.13
619.599	0.13
619.935	0.13
620.271	0.13
620.607	0.13
620.943	0.13
621.279	0.13
621.614	0.13
621.95	0.13
622.286	0.13
622.621	0.13
622.957	0.13
623.292	0.12
623.627	0.12
623.963	0.12
624.298	0.12
624.633	0.13
624.968	0.12
625.304	0.12
625.639	0.12
625.974	0.12
626.309	0.12
626.644	0.12
626.979	0.13
627.313	0.13
627.648	0.12
627.983	0.12
628.318	0.12
628.652	0.11
628.987	0.11
629.321	0.12
629.656	0.11
629.99	0.11
630.325	0.12
630.659	0.11
630.993	0.11
631.327	0.11
631.662	0.11
631.996	0.11
632.33	0.12
632.664	0.12
632.998	0.11
633.332	0.11
633.666	0.11
633.999	0.11
634.333	0.11
634.667	0.11
635.001	0.11
635.334	0.11
635.668	0.11
636.001	0.11
636.335	0.11
636.668	0.11
637.001	0.11
637.335	0.11
637.668	0.11
638.001	0.11
638.334	0.11
638.668	0.1
639.001	0.11
639.334	0.1
639.667	0.11
639.999	0.1
640.332	0.11
640.665	0.11
640.998	0.11
641.331	0.11
641.663	0.11
641.996	0.11
642.328	0.11
642.661	0.1
642.993	0.1
643.326	0.11
643.658	0.1
643.99	0.1
644.323	0.1
644.655	0.1
644.987	0.11
645.319	0.1
645.651	0.11
645.983	0.1
646.315	0.1
646.647	0.11
646.979	0.11
647.31	0.11
647.642	0.11
647.974	0.1
648.305	0.12
648.637	0.11
648.968	0.11
649.3	0.11
649.631	0.12
649.963	0.1
650.294	0.11
650.625	0.1
650.957	0.11
651.288	0.11
651.619	0.11
651.95	0.11
652.281	0.11
652.612	0.11
652.943	0.12
653.274	0.11
653.604	0.11
653.935	0.11
654.266	0.11
654.596	0.11
654.927	0.11
655.258	0.11
655.588	0.11
655.918	0.11
656.249	0.09
656.579	0.1
656.909	0.11
657.24	0.11
657.57	0.11
657.9	0.11
658.23	0.11
658.56	0.11
658.89	0.11
659.22	0.11
659.55	0.11
659.88	0.11
660.209	0.11
660.539	0.12
660.869	0.11
661.198	0.12
661.528	0.11
661.857	0.11
662.187	0.12
662.516	0.11
662.846	0.11
663.175	0.11
663.504	0.11
663.833	0.11
664.163	0.11
664.492	0.11
664.821	0.11
665.15	0.11
665.479	0.11
665.807	0.1
666.136	0.11
666.465	0.11
666.794	0.1
667.122	0.11
667.451	0.11
667.78	0.11
668.108	0.1
668.437	0.11
668.765	0.1
669.093	0.11
669.422	0.11
669.75	0.11
670.078	0.1
670.406	0.11
670.734	0.11
671.062	0.1
671.39	0.11
671.718	0.11
672.046	0.1
672.374	0.1
672.702	0.1
673.029	0.1
673.357	0.11
673.685	0.11
674.012	0.11
674.34	0.11
674.667	0.11
674.995	0.11
675.322	0.11
675.649	0.1
675.977	0.11
676.304	0.1
676.631	0.1
676.958	0.1
677.285	0.1
677.612	0.1
677.939	0.1
678.266	0.11
678.593	0.1
678.92	0.11
679.246	0.11
679.573	0.11
679.9	0.09
680.226	0.11
680.553	0.1
680.879	0.11
681.206	0.1
681.532	0.09
681.858	0.1
682.184	0.1
682.511	0.09
682.837	0.09
683.163	0.1
683.489	0.11
683.815	0.09
684.141	0.09
684.467	0.09
684.793	0.09
685.118	0.09
685.444	0.1
685.77	0.09
686.095	0.1
686.421	0.09
686.746	0.1
687.072	0.1
687.397	0.09
687.723	0.1
688.048	0.1
688.373	0.1
688.698	0.1
689.023	0.09
689.349	0.1
689.674	0.1
689.999	0.09
690.323	0.09
690.648	0.1
690.973	0.09
691.298	0.1
691.623	0.1
691.947	0.09
692.272	0.1
692.596	0.1
692.921	0.1
693.245	0.09
693.57	0.1
693.894	0.09
694.218	0.1
694.543	0.09
694.867	0.09
695.191	0.09
695.515	0.09
695.839	0.09
696.163	0.09
696.487	0.09
696.811	0.09
697.135	0.09
697.458	0.09
697.782	0.09
698.106	0.09
698.429	0.09
698.753	0.09
699.076	0.09
699.4	0.08
699.723	0.09
700.046	0.08
700.37	0.09
700.693	0.09
701.016	0.09
701.339	0.09
701.662	0.1
701.985	0.09
702.308	0.09
702.631	0.08
702.954	0.1
703.277	0.09
703.599	0.09
703.922	0.08
704.245	0.08
704.567	0.08
704.89	0.09
705.212	0.08
705.535	0.08
705.857	0.08
706.179	0.08
706.502	0.07
706.824	0.07
707.146	0.07
707.468	0.08
707.79	0.07
708.112	0.08
708.434	0.08
708.756	0.08
709.078	0.08
709.399	0.08
709.721	0.08
710.043	0.08
710.364	0.08
710.686	0.09
711.007	0.08
711.329	0.08
711.65	0.08
711.972	0.08
712.293	0.09
712.614	0.09
712.935	0.09
713.256	0.08
713.577	0.09
713.898	0.08
714.219	0.08
714.54	0.08
714.861	0.07
715.182	0.08
715.503	0.08
715.823	0.07
716.144	0.07
716.464	0.07
716.785	0.07
717.105	0.08
717.426	0.08
717.746	0.07
718.066	0.06
718.387	0.07
718.707	0.07
719.027	0.07
719.347	0.06
719.667	0.07
719.987	0.07
720.307	0.06
720.627	0.07
720.947	0.07
721.266	0.07
721.586	0.07
721.906	0.07
722.225	0.06
722.545	0.07
722.864	0.07
723.184	0.08
723.503	0.07
723.823	0.07
724.142	0.05
724.461	0.06
724.78	0.07
725.099	0.06
725.418	0.07
725.737	0.06
726.056	0.06
726.375	0.07
726.694	0.07
727.013	0.07
727.331	0.05
727.65	0.06
727.969	0.07
728.287	0.07
728.606	0.06
728.924	0.06
729.242	0.06
729.561	0.07
729.879	0.08
730.197	0.07
730.515	0.07
730.834	0.06
731.152	0.07
731.47	0.07
731.788	0.07
732.105	0.06
732.423	0.06
732.741	0.06
733.059	0.07
733.376	0.07
733.694	0.06
734.012	0.06
734.329	0.07
734.647	0.07
734.964	0.08
735.281	0.07
735.599	0.07
735.916	0.07
736.233	0.07
736.55	0.06
736.867	0.07
737.184	0.08
737.501	0.07
737.818	0.07
738.135	0.07
738.452	0.06
738.768	0.07
739.085	0.06
739.402	0.06
739.718	0.06
740.035	0.07
740.351	0.07
740.668	0.07
740.984	0.07
741.3	0.06
741.617	0.06
741.933	0.06
742.249	0.08
742.565	0.07
742.881	0.07
743.197	0.06
743.513	0.06
743.829	0.06
744.144	0.06
744.46	0.06
744.776	0.06
745.091	0.06
745.407	0.06
745.722	0.06
746.038	0.06
746.353	0.05
746.669	0.06
746.984	0.05
747.299	0.05
747.614	0.06
747.93	0.06
748.245	0.04
748.56	0.05
748.875	0.05
749.189	0.06
749.504	0.06
749.819	0.06
750.134	0.06
750.448	0.06
750.763	0.05
751.078	0.05
751.392	0.05
751.707	0.07
752.021	0.07
752.335	0.07
752.65	0.07
752.964	0.06
753.278	0.07
753.592	0.07
753.906	0.05
754.22	0.06
754.534	0.06
754.848	0.06
755.162	0.07
755.476	0.06
755.789	0.07
756.103	0.05
756.417	0.07
756.73	0.06
757.044	0.07
757.357	0.06
757.671	0.07
757.984	0.07
758.297	0.08
758.61	0.07
758.924	0.07
759.237	0.05
759.55	0.06
759.863	0.06
760.176	0.06
760.488	0.06
760.801	0.06
761.114	0.06
761.427	0.06
761.739	0.06
762.052	0.06
762.365	0.05
762.677	0.06
762.99	0.05
763.302	0.06
763.614	0.06
763.926	0.06
764.239	0.05
764.551	0.05
764.863	0.06
765.175	0.06
765.487	0.05
765.799	0.05
766.111	0.05
766.423	0.06
766.734	0.06
767.046	0.05
767.358	0.05
767.669	0.05
767.981	0.06
768.292	0.05
768.604	0.05
768.915	0.05
769.226	0.05
769.537	0.04
769.849	0.06
770.16	0.06
770.471	0.04
770.782	0.04
771.093	0.05
771.404	0.04
771.715	0.04
772.025	0.05
772.336	0.04
772.647	0.04
772.957	0.05
773.268	0.05
773.578	0.04
773.889	0.05
774.199	0.06
774.51	0.05
774.82	0.05
775.13	0.05
775.44	0.05
775.75	0.05
776.06	0.05
776.37	0.05
776.68	0.05
776.99	0.07
777.3	0.05
777.61	0.05
777.92	0.05
778.229	0.04
778.539	0.05
778.848	0.05
779.158	0.06
779.467	0.06
779.777	0.05
780.086	0.06
780.395	0.05
780.704	0.05
781.013	0.04
781.323	0.05
781.632	0.05
781.941	0.05
782.249	0.05
782.558	0.05
782.867	0.05
783.176	0.04
783.485	0.04
783.793	0.05
784.102	0.05
784.41	0.04
784.719	0.05
785.027	0.04
785.335	0.04
785.644	0.05
785.952	0.04
786.26	0.05
786.568	0.04
786.876	0.04
787.184	0.05
787.492	0.05
787.8	0.03
788.108	0.05
788.416	0.05
788.723	0.04
789.031	0.04
789.338	0.04
789.646	0.03
789.953	0.05
790.261	0.04
790.568	0.05
790.876	0.05
791.183	0.05
791.49	0.05
791.797	0.06
792.104	0.04
792.411	0.05
792.718	0.05
793.025	0.05
793.332	0.05
793.639	0.06
793.945	0.06
794.252	0.05
794.559	0.06
794.865	0.06
795.172	0.05
795.478	0.05
795.784	0.06
796.091	0.06
796.397	0.06
796.703	0.06
797.009	0.06
797.315	0.06
797.622	0.05
797.927	0.05
798.233	0.06
798.539	0.06
798.845	0.05
799.151	0.06
799.456	0.06
799.762	0.05
800.068	0.06
800.373	0.06
800.679	0.05
800.984	0.06
801.289	0.05
801.595	0.06
801.9	0.06
802.205	0.05
802.51	0.05
802.815	0.05
803.12	0.06
803.425	0.05
803.73	0.05
804.035	0.06
804.339	0.05
804.644	0.05
804.949	0.05
805.253	0.05
805.558	0.05
805.862	0.05
806.167	0.05
806.471	0.04
806.775	0.04
807.08	0.05
807.384	0.05
807.688	0.05
807.992	0.05
808.296	0.05
808.6	0.05
808.904	0.05
809.207	0.05
809.511	0.07
809.815	0.06
810.119	0.06
810.422	0.06
810.726	0.07
811.029	0.07
811.332	0.06
811.636	0.07
811.939	0.06
812.242	0.06
812.546	0.06
812.849	0.07
813.152	0.07
813.455	0.07
813.758	0.07
814.06	0.07
814.363	0.06
814.666	0.07
814.969	0.07
815.271	0.07
815.574	0.06
815.877	0.06
816.179	0.05
816.481	0.05
816.784	0.06
817.086	0.05
817.388	0.05
817.69	0.05
817.993	0.05
818.295	0.05
818.597	0.05
818.899	0.04
819.2	0.04
819.502	0.05
819.804	0.05
820.106	0.04
820.407	0.04
820.709	0.04
821.01	0.04
821.312	0.05
821.613	0.04
821.915	0.04
822.216	0.03
822.517	0.03
822.818	0.04
823.119	0.04
823.42	0.05
823.721	0.03
824.022	0.03
824.323	0.03
824.624	0.03
824.925	0.04
825.226	0.04
825.526	0.04
825.827	0.03
826.127	0.04
826.428	0.04
826.728	0.03
827.028	0.04
827.329	0.04
827.629	0.03
827.929	0.03
828.229	0.04
828.529	0.04
828.829	0.04
829.129	0.04
829.429	0.03
829.729	0.04
830.029	0.03
830.328	0.04
830.628	0.02
830.927	0.02
831.227	0.02
831.526	0.03
831.826	0.02
832.125	0.02
832.424	0.02
832.724	0.03
833.023	0.03
833.322	0.03
833.621	0.03
833.92	0.02
834.219	0.03
834.518	0.03
834.816	0.01
835.115	0.02
835.414	0.02
835.712	0.01
836.011	0.01
836.309	0.02
836.608	0.01
836.906	0
837.205	0
837.503	0.01
837.801	0.01
838.099	-0
838.397	-0.01
838.695	-0.01
838.993	-0
839.291	-0
839.589	-0
839.887	-0
840.184	-0.01
840.482	-0.01
840.78	0
841.077	-0.01
841.375	-0.01
841.672	-0.01
841.969	-0.01
842.267	-0.01
842.564	-0.02
842.861	-0
843.158	-0.02
843.455	-0.03
843.752	-0.02
844.049	-0.02
844.346	-0.02
844.643	-0.03
844.94	-0.02
845.236	-0.02
845.533	-0.03
845.83	-0.03
846.126	-0.03
846.423	-0.03
846.719	-0.04
847.015	-0.03
847.312	-0.05
847.608	-0.05
847.904	-0.04
848.2	-0.04
848.496	-0.04
848.792	-0.04
849.088	-0.04
849.384	-0.04
849.68	-0.05
849.975	-0.04
850.271	-0.05
850.567	-0.05
850.862	-0.05
851.158	-0.05
851.453	-0.05
851.748	-0.07
852.044	-0.05
852.339	-0.06
852.634	-0.07
852.929	-0.05
853.224	-0.06
853.519	-0.07
853.814	-0.06
854.109	-0.06
854.404	-0.07
854.699	-0.06
854.994	-0.07
855.288	-0.07
855.583	-0.06
855.877	-0.07
856.172	-0.06
856.466	-0.07
856.76	-0.07
857.055	-0.08
857.349	-0.09
857.643	-0.09
857.937	-0.09
858.231	-0.1
858.525	-0.1
858.819	-0.1
859.113	-0.11
859.407	-0.1
859.701	-0.11
859.994	-0.11
860.288	-0.1
860.581	-0.1
860.875	-0.1
861.168	-0.11
861.462	-0.1
861.755	-0.1
862.048	-0.11
862.341	-0.1
862.634	-0.1
862.928	-0.1
863.221	-0.1
863.513	-0.12
863.806	-0.11
864.099	-0.11
864.392	-0.11
864.685	-0.1
864.977	-0.11
865.27	-0.11
865.562	-0.13
865.855	-0.11
866.147	-0.12
866.44	-0.12
866.732	-0.11
867.024	-0.11
867.316	-0.13
867.608	-0.13
867.9	-0.12
868.192	-0.13
868.484	-0.14
868.776	-0.13
869.068	-0.13
869.359	-0.13
869.651	-0.14
869.943	-0.14
870.234	-0.14
870.526	-0.14
870.817	-0.15
871.108	-0.14
871.4	-0.14
871.691	-0.15
871.982	-0.15
872.273	-0.17
872.564	-0.17
872.855	-0.16
873.146	-0.16
873.437	-0.16
873.728	-0.16
874.019	-0.16
874.309	-0.17
874.6	-0.16
874.89	-0.17
875.181	-0.17
875.471	-0.17
875.762	-0.16
876.052	-0.16
876.342	-0.15
876.632	-0.15
876.922	-0.17
877.213	-0.17
877.503	-0.18
877.792	-0.17
878.082	-0.16
878.372	-0.16
878.662	-0.17
878.952	-0.17
879.241	-0.17
879.531	-0.16
879.82	-0.17
880.11	-0.17
880.399	-0.17
880.688	-0.15
880.978	-0.15
881.267	-0.15
