Data from 12-12-AQDScycling_Absorbance__481__00481.txt Node

Date: Tue Dec 12 12:56:59 EST 2023
User: kyuminlee
Spectrometer: FLMS00943
Trigger mode: 0
Integration Time (sec): 1.000000E-1
Scans to average: 1
Electric dark correction enabled: true
Nonlinearity correction enabled: false
Boxcar width: 0
XAxis mode: Wavelengths
Number of Pixels in Spectrum: 2048
>>>>>Begin Spectral Data<<<<<
179.651	-0
180.037	-0
180.424	-0
180.81	-0.04
181.197	0.23
181.583	-0.65
181.97	0.17
182.356	-0
182.743	-0.71
183.129	-0.18
183.515	-0
183.901	-2.36
184.288	1.01
184.674	-0
185.06	-1.05
185.446	-0
185.832	-0
186.218	0.81
186.604	0.1
186.99	-0
187.376	0.94
187.762	-0
188.148	0.42
188.534	0
188.92	0.16
189.305	0.06
189.691	0.1
190.077	0.2
190.463	0.12
190.848	0.08
191.234	0.06
191.619	-0.03
192.005	-0
192.391	0.09
192.776	0.04
193.161	0.1
193.547	0.11
193.932	0.11
194.318	0
194.703	0.05
195.088	0.14
195.473	0.11
195.859	0.28
196.244	0.12
196.629	0.1
197.014	0.03
197.399	0.13
197.784	0.04
198.169	0.12
198.554	0.24
198.939	0.21
199.324	0.15
199.709	0.11
200.094	0.04
200.478	0.09
200.863	0.24
201.248	0.11
201.633	0.11
202.017	0.13
202.402	0.29
202.787	0.11
203.171	0.1
203.556	0.17
203.94	0.1
204.325	0.24
204.709	0.25
205.093	0.11
205.478	-0.01
205.862	0.04
206.246	0.21
206.631	0.17
207.015	0.07
207.399	0.35
207.783	0.17
208.167	0.14
208.551	0.17
208.935	0.07
209.319	0.03
209.703	0.02
210.087	0.1
210.471	0.17
210.855	0.02
211.239	0.2
211.623	0.37
212.007	0.2
212.39	0.24
212.774	0.14
213.158	0.08
213.541	0.21
213.925	0.3
214.309	0.4
214.692	0.29
215.076	0.21
215.459	0.2
215.842	0.21
216.226	0.31
216.609	0.37
216.993	0.2
217.376	0.3
217.759	0.18
218.142	0.27
218.525	0.52
218.909	0.33
219.292	0.34
219.675	0.61
220.058	0.45
220.441	0.45
220.824	0.51
221.207	0.5
221.59	0.44
221.973	0.41
222.355	0.62
222.738	0.71
223.121	0.51
223.504	0.5
223.886	0.72
224.269	0.58
224.652	0.63
225.034	0.72
225.417	0.63
225.799	0.72
226.182	0.97
226.564	0.78
226.947	0.77
227.329	0.74
227.711	0.81
228.094	0.91
228.476	0.89
228.858	0.83
229.24	0.81
229.623	0.89
230.005	0.8
230.387	0.85
230.769	0.8
231.151	0.92
231.533	0.96
231.915	0.91
232.297	1.04
232.679	0.9
233.061	0.97
233.442	1.09
233.824	0.93
234.206	1.03
234.588	1.01
234.969	1.03
235.351	1.01
235.733	1.1
236.114	1.11
236.496	1.03
236.877	0.94
237.259	1.11
237.64	1
238.022	1.01
238.403	1.05
238.784	1.01
239.165	1
239.547	0.95
239.928	1.11
240.309	1.05
240.69	1.12
241.071	1
241.452	1.01
241.834	1.08
242.215	1.04
242.595	1.01
242.976	1.05
243.357	1.16
243.738	1
244.119	1.2
244.5	1.12
244.881	1.16
245.261	1.12
245.642	1.12
246.023	1.26
246.403	1.22
246.784	1.22
247.164	1.16
247.545	1.22
247.925	1.22
248.306	1.2
248.686	1.37
249.067	1.29
249.447	1.23
249.827	1.4
250.207	1.36
250.588	1.24
250.968	1.37
251.348	1.35
251.728	1.51
252.108	1.37
252.488	1.39
252.868	1.3
253.248	1.45
253.628	1.33
254.008	1.36
254.388	1.24
254.768	1.19
255.147	1.39
255.527	1.36
255.907	1.36
256.287	1.51
256.666	1.31
257.046	1.39
257.425	1.63
257.805	1.28
258.184	1.29
258.564	1.35
258.943	1.49
259.323	1.48
259.702	1.42
260.081	1.49
260.461	1.43
260.84	1.41
261.219	1.7
261.598	1.63
261.977	1.47
262.356	1.51
262.736	1.45
263.115	1.42
263.494	1.4
263.873	1.44
264.251	1.48
264.63	1.46
265.009	1.35
265.388	1.4
265.767	1.38
266.145	1.38
266.524	1.36
266.903	1.35
267.281	1.29
267.66	1.41
268.039	1.33
268.417	1.5
268.796	1.39
269.174	1.5
269.552	1.31
269.931	1.46
270.309	1.37
270.687	1.72
271.066	1.6
271.444	1.36
271.822	1.47
272.2	1.51
272.578	1.38
272.956	1.39
273.334	1.25
273.712	1.56
274.09	1.51
274.468	1.31
274.846	1.32
275.224	1.4
275.602	1.32
275.98	1.57
276.357	1.46
276.735	1.56
277.113	1.45
277.49	1.38
277.868	1.38
278.246	1.37
278.623	1.2
279.001	1.27
279.378	1.39
279.756	1.39
280.133	1.35
280.51	1.35
280.888	1.33
281.265	1.33
281.642	1.45
282.019	1.43
282.396	1.78
282.773	1.38
283.151	1.42
283.528	1.35
283.905	1.33
284.282	1.49
284.659	1.53
285.035	1.35
285.412	1.39
285.789	1.51
286.166	1.41
286.543	1.53
286.919	1.43
287.296	1.45
287.673	1.76
288.049	1.52
288.426	1.7
288.802	1.47
289.179	1.51
289.555	1.48
289.932	1.47
290.308	1.31
290.684	1.34
291.061	1.32
291.437	1.51
291.813	1.32
292.189	1.38
292.565	1.25
292.942	1.2
293.318	1.3
293.694	1.48
294.07	1.28
294.446	1.42
294.822	1.62
295.197	1.49
295.573	1.37
295.949	1.39
296.325	1.34
296.701	1.45
297.076	1.55
297.452	1.48
297.828	1.38
298.203	1.76
298.579	1.41
298.954	1.46
299.33	1.54
299.705	1.5
300.081	1.57
300.456	1.45
300.831	1.42
301.206	1.4
301.582	1.56
301.957	1.52
302.332	1.76
302.707	1.5
303.082	1.41
303.457	1.6
303.832	1.53
304.207	1.42
304.582	1.46
304.957	1.54
305.332	1.53
305.707	1.59
306.082	1.69
306.456	1.58
306.831	1.51
307.206	1.5
307.58	1.54
307.955	1.43
308.33	1.48
308.704	1.51
309.079	1.42
309.453	1.65
309.828	1.52
310.202	1.45
310.576	1.54
310.951	1.66
311.325	1.41
311.699	1.52
312.073	1.5
312.447	1.49
312.821	1.39
313.196	1.62
313.57	1.48
313.944	1.47
314.317	1.38
314.691	1.55
315.065	1.48
315.439	1.5
315.813	1.57
316.187	1.41
316.56	1.66
316.934	1.5
317.308	1.47
317.681	1.5
318.055	1.42
318.428	1.5
318.802	1.5
319.175	1.43
319.549	1.73
319.922	1.33
320.295	1.55
320.669	1.7
321.042	1.59
321.415	1.7
321.788	1.48
322.162	1.51
322.535	1.51
322.908	1.47
323.281	1.47
323.654	1.67
324.027	1.46
324.4	1.59
324.773	1.44
325.145	1.5
325.518	1.5
325.891	1.46
326.264	1.56
326.636	1.38
327.009	1.45
327.382	1.48
327.754	1.63
328.127	1.53
328.499	1.45
328.872	1.4
329.244	1.5
329.616	1.5
329.989	1.41
330.361	1.49
330.733	1.39
331.106	1.51
331.478	1.57
331.85	1.55
332.222	1.42
332.594	1.44
332.966	1.46
333.338	1.53
333.71	1.6
334.082	1.6
334.454	1.47
334.826	1.54
335.197	1.47
335.569	1.45
335.941	1.51
336.312	1.55
336.684	1.49
337.056	1.42
337.427	1.55
337.799	1.54
338.17	1.59
338.542	1.52
338.913	1.49
339.284	1.59
339.656	1.59
340.027	1.63
340.398	1.63
340.769	1.69
341.141	1.58
341.512	1.53
341.883	1.63
342.254	1.57
342.625	1.52
342.996	1.54
343.367	1.6
343.738	1.57
344.108	1.48
344.479	1.54
344.85	1.33
345.221	1.5
345.591	1.43
345.962	1.46
346.333	1.48
346.703	1.38
347.074	1.24
347.444	1.32
347.815	1.41
348.185	1.45
348.556	1.38
348.926	1.4
349.296	1.39
349.666	1.27
350.037	1.3
350.407	1.29
350.777	1.37
351.147	1.45
351.517	1.42
351.887	1.27
352.257	1.34
352.627	1.35
352.997	1.35
353.367	1.31
353.737	1.39
354.106	1.33
354.476	1.29
354.846	1.36
355.216	1.4
355.585	1.46
355.955	1.3
356.324	1.29
356.694	1.32
357.063	1.18
357.433	1.24
357.802	1.29
358.171	1.25
358.541	1.22
358.91	1.13
359.279	1.19
359.648	1.19
360.017	1.25
360.387	1.13
360.756	1.08
361.125	1.12
361.494	1.13
361.863	1.06
362.231	1.04
362.6	1.03
362.969	1.07
363.338	0.98
363.707	0.99
364.075	0.98
364.444	0.92
364.813	0.93
365.181	0.91
365.55	0.89
365.918	0.86
366.287	0.88
366.655	0.88
367.024	0.9
367.392	0.83
367.76	0.82
368.128	0.82
368.497	0.8
368.865	0.82
369.233	0.78
369.601	0.82
369.969	0.77
370.337	0.77
370.705	0.77
371.073	0.74
371.441	0.74
371.809	0.73
372.177	0.71
372.544	0.74
372.912	0.69
373.28	0.7
373.647	0.7
374.015	0.7
374.383	0.69
374.75	0.68
375.118	0.66
375.485	0.65
375.853	0.65
376.22	0.66
376.587	0.63
376.955	0.66
377.322	0.65
377.689	0.61
378.056	0.64
378.423	0.64
378.79	0.64
379.157	0.64
379.524	0.62
379.891	0.61
380.258	0.62
380.625	0.58
380.992	0.63
381.359	0.6
381.726	0.64
382.092	0.62
382.459	0.61
382.826	0.61
383.192	0.61
383.559	0.61
383.925	0.63
384.292	0.61
384.658	0.62
385.025	0.61
385.391	0.61
385.757	0.62
386.123	0.62
386.49	0.63
386.856	0.62
387.222	0.63
387.588	0.63
387.954	0.63
388.32	0.63
388.686	0.6
389.052	0.61
389.418	0.63
389.784	0.62
390.15	0.61
390.515	0.63
390.881	0.62
391.247	0.62
391.613	0.65
391.978	0.61
392.344	0.63
392.709	0.61
393.075	0.65
393.44	0.6
393.806	0.63
394.171	0.59
394.536	0.61
394.902	0.59
395.267	0.59
395.632	0.6
395.997	0.59
396.362	0.62
396.727	0.6
397.092	0.6
397.457	0.59
397.822	0.58
398.187	0.56
398.552	0.56
398.917	0.58
399.282	0.59
399.646	0.56
400.011	0.57
400.376	0.57
400.74	0.57
401.105	0.55
401.47	0.58
401.834	0.57
402.199	0.54
402.563	0.53
402.927	0.53
403.292	0.56
403.656	0.53
404.02	0.54
404.384	0.53
404.749	0.52
405.113	0.52
405.477	0.51
405.841	0.52
406.205	0.51
406.569	0.5
406.933	0.49
407.296	0.48
407.66	0.5
408.024	0.49
408.388	0.5
408.752	0.47
409.115	0.46
409.479	0.47
409.842	0.46
410.206	0.45
410.569	0.46
410.933	0.45
411.296	0.46
411.66	0.46
412.023	0.44
412.386	0.43
412.749	0.45
413.113	0.45
413.476	0.42
413.839	0.43
414.202	0.42
414.565	0.39
414.928	0.44
415.291	0.41
415.654	0.4
416.017	0.42
416.38	0.42
416.742	0.4
417.105	0.38
417.468	0.41
417.83	0.42
418.193	0.43
418.556	0.4
418.918	0.42
419.281	0.41
419.643	0.41
420.005	0.42
420.368	0.41
420.73	0.38
421.092	0.39
421.455	0.38
421.817	0.36
422.179	0.36
422.541	0.38
422.903	0.38
423.265	0.38
423.627	0.37
423.989	0.37
424.351	0.37
424.713	0.37
425.075	0.35
425.436	0.36
425.798	0.35
426.16	0.36
426.521	0.37
426.883	0.37
427.245	0.36
427.606	0.36
427.967	0.36
428.329	0.36
428.69	0.35
429.052	0.36
429.413	0.36
429.774	0.36
430.135	0.35
430.497	0.35
430.858	0.34
431.219	0.32
431.58	0.33
431.941	0.33
432.302	0.35
432.663	0.35
433.024	0.36
433.384	0.34
433.745	0.34
434.106	0.34
434.467	0.34
434.827	0.35
435.188	0.33
435.548	0.34
435.909	0.32
436.269	0.35
436.63	0.32
436.99	0.33
437.351	0.32
437.711	0.33
438.071	0.33
438.431	0.33
438.792	0.32
439.152	0.31
439.512	0.31
439.872	0.31
440.232	0.33
440.592	0.33
440.952	0.32
441.312	0.31
441.671	0.3
442.031	0.31
442.391	0.3
442.751	0.31
443.11	0.3
443.47	0.3
443.83	0.3
444.189	0.29
444.549	0.31
444.908	0.3
445.267	0.29
445.627	0.29
445.986	0.29
446.345	0.28
446.705	0.28
447.064	0.28
447.423	0.29
447.782	0.28
448.141	0.29
448.5	0.27
448.859	0.28
449.218	0.28
449.577	0.28
449.936	0.28
450.295	0.28
450.653	0.28
451.012	0.28
451.371	0.28
451.729	0.28
452.088	0.28
452.447	0.27
452.805	0.27
453.163	0.28
453.522	0.28
453.88	0.26
454.239	0.27
454.597	0.26
454.955	0.25
455.313	0.26
455.671	0.26
456.029	0.25
456.388	0.25
456.746	0.25
457.104	0.24
457.461	0.24
457.819	0.24
458.177	0.23
458.535	0.23
458.893	0.23
459.25	0.22
459.608	0.23
459.966	0.22
460.323	0.22
460.681	0.21
461.038	0.22
461.396	0.22
461.753	0.22
462.111	0.21
462.468	0.21
462.825	0.2
463.182	0.2
463.54	0.2
463.897	0.2
464.254	0.2
464.611	0.2
464.968	0.2
465.325	0.19
465.682	0.2
466.039	0.19
466.395	0.19
466.752	0.19
467.109	0.18
467.466	0.18
467.822	0.19
468.179	0.18
468.535	0.18
468.892	0.18
469.248	0.18
469.605	0.17
469.961	0.18
470.318	0.18
470.674	0.18
471.03	0.17
471.386	0.18
471.743	0.17
472.099	0.17
472.455	0.17
472.811	0.16
473.167	0.16
473.523	0.16
473.879	0.16
474.235	0.16
474.59	0.14
474.946	0.15
475.302	0.15
475.657	0.14
476.013	0.14
476.369	0.13
476.724	0.15
477.08	0.14
477.435	0.14
477.791	0.14
478.146	0.14
478.501	0.14
478.857	0.14
479.212	0.14
479.567	0.13
479.922	0.13
480.277	0.13
480.632	0.13
480.987	0.13
481.342	0.13
481.697	0.12
482.052	0.12
482.407	0.12
482.762	0.12
483.116	0.12
483.471	0.11
483.826	0.12
484.18	0.12
484.535	0.12
484.89	0.11
485.244	0.11
485.598	0.11
485.953	0.11
486.307	0.11
486.661	0.11
487.016	0.1
487.37	0.12
487.724	0.11
488.078	0.11
488.432	0.11
488.786	0.11
489.14	0.11
489.494	0.1
489.848	0.1
490.202	0.1
490.556	0.1
490.91	0.1
491.263	0.1
491.617	0.1
491.971	0.1
492.324	0.1
492.678	0.1
493.031	0.1
493.385	0.1
493.738	0.09
494.091	0.1
494.445	0.1
494.798	0.1
495.151	0.1
495.504	0.09
495.857	0.09
496.21	0.1
496.564	0.09
496.916	0.09
497.269	0.09
497.622	0.09
497.975	0.09
498.328	0.09
498.681	0.09
499.033	0.08
499.386	0.08
499.739	0.09
500.091	0.09
500.444	0.09
500.796	0.09
501.149	0.08
501.501	0.08
501.854	0.09
502.206	0.09
502.558	0.08
502.91	0.09
503.263	0.09
503.615	0.08
503.967	0.09
504.319	0.09
504.671	0.08
505.023	0.08
505.375	0.08
505.726	0.08
506.078	0.08
506.43	0.08
506.782	0.08
507.133	0.08
507.485	0.08
507.837	0.09
508.188	0.08
508.54	0.09
508.891	0.08
509.243	0.08
509.594	0.08
509.945	0.08
510.296	0.08
510.648	0.09
510.999	0.07
511.35	0.08
511.701	0.08
512.052	0.08
512.403	0.08
512.754	0.08
513.105	0.08
513.456	0.08
513.807	0.07
514.157	0.08
514.508	0.08
514.859	0.07
515.209	0.08
515.56	0.08
515.91	0.08
516.261	0.08
516.611	0.08
516.962	0.08
517.312	0.08
517.662	0.08
518.013	0.07
518.363	0.08
518.713	0.08
519.063	0.08
519.413	0.08
519.763	0.08
520.113	0.09
520.463	0.08
520.813	0.08
521.163	0.08
521.512	0.07
521.862	0.08
522.212	0.08
522.562	0.08
522.911	0.08
523.261	0.08
523.61	0.08
523.96	0.08
524.309	0.08
524.658	0.08
525.008	0.08
525.357	0.08
525.706	0.09
526.056	0.08
526.405	0.08
526.754	0.08
527.103	0.08
527.452	0.08
527.801	0.08
528.15	0.08
528.499	0.08
528.847	0.08
529.196	0.09
529.545	0.09
529.893	0.09
530.242	0.08
530.591	0.09
530.939	0.09
531.288	0.08
531.636	0.09
531.985	0.08
532.333	0.09
532.681	0.08
533.029	0.08
533.378	0.08
533.726	0.08
534.074	0.09
534.422	0.08
534.77	0.09
535.118	0.09
535.466	0.08
535.814	0.08
536.162	0.08
536.509	0.09
536.857	0.09
537.205	0.09
537.552	0.09
537.9	0.09
538.248	0.08
538.595	0.08
538.943	0.09
539.29	0.08
539.637	0.08
539.985	0.09
540.332	0.08
540.679	0.08
541.026	0.08
541.373	0.09
541.721	0.08
542.068	0.08
542.415	0.08
542.762	0.07
543.108	0.06
543.455	0.07
543.802	0.08
544.149	0.07
544.496	0.07
544.842	0.07
545.189	0.07
545.535	0.07
545.882	0.07
546.228	0.07
546.575	0.07
546.921	0.06
547.267	0.08
547.614	0.07
547.96	0.08
548.306	0.06
548.652	0.07
548.998	0.08
549.344	0.07
549.69	0.07
550.036	0.07
550.382	0.07
550.728	0.07
551.074	0.08
551.42	0.08
551.765	0.07
552.111	0.08
552.457	0.08
552.802	0.07
553.148	0.07
553.493	0.07
553.839	0.08
554.184	0.08
554.529	0.07
554.875	0.08
555.22	0.08
555.565	0.08
555.91	0.07
556.255	0.08
556.6	0.08
556.945	0.07
557.29	0.08
557.635	0.08
557.98	0.08
558.325	0.08
558.67	0.07
559.014	0.08
559.359	0.08
559.704	0.09
560.048	0.07
560.393	0.08
560.737	0.06
561.082	0.08
561.426	0.07
561.77	0.08
562.115	0.06
562.459	0.08
562.803	0.07
563.147	0.08
563.491	0.07
563.835	0.08
564.179	0.08
564.523	0.07
564.867	0.07
565.211	0.08
565.555	0.07
565.899	0.08
566.242	0.08
566.586	0.07
566.93	0.08
567.273	0.08
567.617	0.08
567.96	0.08
568.304	0.08
568.647	0.07
568.99	0.08
569.334	0.08
569.677	0.08
570.02	0.08
570.363	0.08
570.706	0.08
571.049	0.08
571.392	0.08
571.735	0.07
572.078	0.08
572.421	0.09
572.764	0.07
573.106	0.08
573.449	0.08
573.792	0.07
574.134	0.08
574.477	0.08
574.819	0.07
575.162	0.07
575.504	0.07
575.847	0.08
576.189	0.08
576.531	0.08
576.873	0.08
577.215	0.08
577.558	0.08
577.9	0.07
578.242	0.08
578.584	0.08
578.926	0.08
579.267	0.07
579.609	0.08
579.951	0.08
580.293	0.08
580.634	0.08
580.976	0.08
581.318	0.07
581.659	0.07
582.001	0.08
582.342	0.08
582.683	0.08
583.025	0.07
583.366	0.08
583.707	0.07
584.049	0.07
584.39	0.07
584.731	0.07
585.072	0.07
585.413	0.08
585.754	0.08
586.095	0.07
586.435	0.08
586.776	0.08
587.117	0.07
587.458	0.07
587.798	0.07
588.139	0.08
588.48	0.07
588.82	0.08
589.161	0.07
589.501	0.07
589.841	0.08
590.182	0.08
590.522	0.07
590.862	0.07
591.202	0.08
591.542	0.08
591.882	0.07
592.222	0.07
592.562	0.08
592.902	0.07
593.242	0.07
593.582	0.09
593.922	0.07
594.261	0.07
594.601	0.08
594.941	0.07
595.28	0.08
595.62	0.08
595.959	0.07
596.299	0.08
596.638	0.08
596.977	0.08
597.317	0.08
597.656	0.08
597.995	0.08
598.334	0.09
598.673	0.08
599.012	0.08
599.351	0.08
599.69	0.07
600.029	0.08
600.368	0.08
600.707	0.08
601.046	0.08
601.384	0.09
601.723	0.09
602.061	0.08
602.4	0.08
602.738	0.08
603.077	0.08
603.415	0.08
603.754	0.08
604.092	0.08
604.43	0.08
604.768	0.08
605.107	0.08
605.445	0.08
605.783	0.07
606.121	0.07
606.459	0.07
606.796	0.07
607.134	0.07
607.472	0.07
607.81	0.08
608.148	0.07
608.485	0.08
608.823	0.08
609.16	0.07
609.498	0.08
609.835	0.08
610.173	0.07
610.51	0.08
610.847	0.07
611.185	0.08
611.522	0.08
611.859	0.08
612.196	0.08
612.533	0.08
612.87	0.08
613.207	0.09
613.544	0.08
613.881	0.09
614.217	0.09
614.554	0.08
614.891	0.09
615.228	0.09
615.564	0.09
615.901	0.09
616.237	0.09
616.574	0.08
616.91	0.08
617.246	0.09
617.583	0.08
617.919	0.09
618.255	0.09
618.591	0.09
618.927	0.08
619.263	0.1
619.599	0.09
619.935	0.09
620.271	0.09
620.607	0.09
620.943	0.08
621.279	0.09
621.614	0.09
621.95	0.09
622.286	0.09
622.621	0.08
622.957	0.08
623.292	0.08
623.627	0.08
623.963	0.08
624.298	0.08
624.633	0.08
624.968	0.08
625.304	0.08
625.639	0.07
625.974	0.07
626.309	0.07
626.644	0.08
626.979	0.08
627.313	0.08
627.648	0.08
627.983	0.08
628.318	0.07
628.652	0.07
628.987	0.07
629.321	0.07
629.656	0.07
629.99	0.07
630.325	0.07
630.659	0.07
630.993	0.07
631.327	0.07
631.662	0.06
631.996	0.07
632.33	0.07
632.664	0.08
632.998	0.07
633.332	0.07
633.666	0.07
633.999	0.07
634.333	0.07
634.667	0.07
635.001	0.07
635.334	0.07
635.668	0.07
636.001	0.07
636.335	0.07
636.668	0.07
637.001	0.06
637.335	0.07
637.668	0.07
638.001	0.07
638.334	0.07
638.668	0.07
639.001	0.07
639.334	0.06
639.667	0.06
639.999	0.07
640.332	0.07
640.665	0.07
640.998	0.07
641.331	0.07
641.663	0.06
641.996	0.07
642.328	0.08
642.661	0.07
642.993	0.06
643.326	0.07
643.658	0.06
643.99	0.06
644.323	0.06
644.655	0.06
644.987	0.06
645.319	0.07
645.651	0.07
645.983	0.07
646.315	0.06
646.647	0.07
646.979	0.07
647.31	0.07
647.642	0.07
647.974	0.07
648.305	0.08
648.637	0.08
648.968	0.07
649.3	0.07
649.631	0.08
649.963	0.07
650.294	0.07
650.625	0.07
650.957	0.07
651.288	0.07
651.619	0.07
651.95	0.08
652.281	0.07
652.612	0.07
652.943	0.08
653.274	0.07
653.604	0.07
653.935	0.08
654.266	0.07
654.596	0.07
654.927	0.06
655.258	0.08
655.588	0.08
655.918	0.08
656.249	0.06
656.579	0.06
656.909	0.07
657.24	0.07
657.57	0.08
657.9	0.08
658.23	0.07
658.56	0.08
658.89	0.08
659.22	0.07
659.55	0.08
659.88	0.08
660.209	0.08
660.539	0.08
660.869	0.07
661.198	0.08
661.528	0.07
661.857	0.08
662.187	0.08
662.516	0.08
662.846	0.07
663.175	0.07
663.504	0.08
663.833	0.07
664.163	0.08
664.492	0.07
664.821	0.07
665.15	0.07
665.479	0.07
665.807	0.07
666.136	0.08
666.465	0.08
666.794	0.07
667.122	0.07
667.451	0.07
667.78	0.07
668.108	0.08
668.437	0.07
668.765	0.07
669.093	0.08
669.422	0.07
669.75	0.07
670.078	0.07
670.406	0.07
670.734	0.07
671.062	0.07
671.39	0.07
671.718	0.07
672.046	0.07
672.374	0.07
672.702	0.07
673.029	0.07
673.357	0.08
673.685	0.08
674.012	0.07
674.34	0.07
674.667	0.08
674.995	0.07
675.322	0.08
675.649	0.07
675.977	0.07
676.304	0.07
676.631	0.07
676.958	0.07
677.285	0.07
677.612	0.07
677.939	0.07
678.266	0.07
678.593	0.07
678.92	0.07
679.246	0.07
679.573	0.07
679.9	0.06
680.226	0.07
680.553	0.06
680.879	0.07
681.206	0.07
681.532	0.07
681.858	0.06
682.184	0.06
682.511	0.07
682.837	0.06
683.163	0.07
683.489	0.07
683.815	0.06
684.141	0.06
684.467	0.06
684.793	0.06
685.118	0.06
685.444	0.06
685.77	0.06
686.095	0.07
686.421	0.06
686.746	0.07
687.072	0.06
687.397	0.06
687.723	0.07
688.048	0.07
688.373	0.07
688.698	0.07
689.023	0.06
689.349	0.07
689.674	0.07
689.999	0.07
690.323	0.06
690.648	0.07
690.973	0.06
691.298	0.07
691.623	0.07
691.947	0.07
692.272	0.07
692.596	0.07
692.921	0.07
693.245	0.07
693.57	0.07
693.894	0.07
694.218	0.07
694.543	0.06
694.867	0.07
695.191	0.06
695.515	0.07
695.839	0.06
696.163	0.07
696.487	0.07
696.811	0.06
697.135	0.07
697.458	0.07
697.782	0.06
698.106	0.07
698.429	0.07
698.753	0.07
699.076	0.06
699.4	0.06
699.723	0.07
700.046	0.05
700.37	0.07
700.693	0.07
701.016	0.06
701.339	0.06
701.662	0.07
701.985	0.07
702.308	0.06
702.631	0.07
702.954	0.06
703.277	0.07
703.599	0.07
703.922	0.06
704.245	0.06
704.567	0.06
704.89	0.05
705.212	0.06
705.535	0.05
705.857	0.06
706.179	0.05
706.502	0.05
706.824	0.05
707.146	0.06
707.468	0.07
707.79	0.06
708.112	0.06
708.434	0.06
708.756	0.06
709.078	0.06
709.399	0.05
709.721	0.06
710.043	0.06
710.364	0.06
710.686	0.06
711.007	0.06
711.329	0.07
711.65	0.06
711.972	0.06
712.293	0.06
712.614	0.07
712.935	0.06
713.256	0.07
713.577	0.07
713.898	0.06
714.219	0.06
714.54	0.06
714.861	0.06
715.182	0.06
715.503	0.05
715.823	0.05
716.144	0.05
716.464	0.05
716.785	0.05
717.105	0.05
717.426	0.05
717.746	0.05
718.066	0.05
718.387	0.05
718.707	0.04
719.027	0.06
719.347	0.04
719.667	0.06
719.987	0.05
720.307	0.05
720.627	0.05
720.947	0.05
721.266	0.05
721.586	0.05
721.906	0.05
722.225	0.05
722.545	0.05
722.864	0.05
723.184	0.05
723.503	0.05
723.823	0.06
724.142	0.04
724.461	0.05
724.78	0.05
725.099	0.05
725.418	0.04
725.737	0.04
726.056	0.05
726.375	0.05
726.694	0.05
727.013	0.05
727.331	0.04
727.65	0.05
727.969	0.05
728.287	0.05
728.606	0.05
728.924	0.05
729.242	0.05
729.561	0.05
729.879	0.05
730.197	0.05
730.515	0.05
730.834	0.05
731.152	0.05
731.47	0.05
731.788	0.06
732.105	0.04
732.423	0.05
732.741	0.05
733.059	0.05
733.376	0.05
733.694	0.05
734.012	0.04
734.329	0.06
734.647	0.05
734.964	0.05
735.281	0.06
735.599	0.06
735.916	0.06
736.233	0.05
736.55	0.05
736.867	0.06
737.184	0.06
737.501	0.05
737.818	0.05
738.135	0.06
738.452	0.05
738.768	0.05
739.085	0.05
739.402	0.04
739.718	0.05
740.035	0.06
740.351	0.05
740.668	0.06
740.984	0.05
741.3	0.05
741.617	0.05
741.933	0.05
742.249	0.06
742.565	0.05
742.881	0.06
743.197	0.05
743.513	0.05
743.829	0.05
744.144	0.04
744.46	0.05
744.776	0.05
745.091	0.04
745.407	0.04
745.722	0.04
746.038	0.04
746.353	0.03
746.669	0.04
746.984	0.04
747.299	0.04
747.614	0.05
747.93	0.05
748.245	0.04
748.56	0.04
748.875	0.04
749.189	0.04
749.504	0.04
749.819	0.05
750.134	0.04
750.448	0.04
750.763	0.05
751.078	0.04
751.392	0.05
751.707	0.06
752.021	0.06
752.335	0.06
752.65	0.06
752.964	0.05
753.278	0.05
753.592	0.05
753.906	0.04
754.22	0.05
754.534	0.05
754.848	0.05
755.162	0.05
755.476	0.05
755.789	0.05
756.103	0.05
756.417	0.06
756.73	0.05
757.044	0.05
757.357	0.05
757.671	0.06
757.984	0.04
758.297	0.06
758.61	0.06
758.924	0.05
759.237	0.05
759.55	0.04
759.863	0.05
760.176	0.06
760.488	0.06
760.801	0.05
761.114	0.05
761.427	0.05
761.739	0.06
762.052	0.05
762.365	0.05
762.677	0.05
762.99	0.03
763.302	0.05
763.614	0.05
763.926	0.05
764.239	0.04
764.551	0.05
764.863	0.04
765.175	0.05
765.487	0.05
765.799	0.04
766.111	0.03
766.423	0.05
766.734	0.04
767.046	0.04
767.358	0.04
767.669	0.04
767.981	0.05
768.292	0.05
768.604	0.05
768.915	0.04
769.226	0.04
769.537	0.03
769.849	0.05
770.16	0.04
770.471	0.04
770.782	0.04
771.093	0.04
771.404	0.03
771.715	0.03
772.025	0.04
772.336	0.04
772.647	0.03
772.957	0.05
773.268	0.05
773.578	0.04
773.889	0.04
774.199	0.05
774.51	0.05
774.82	0.04
775.13	0.04
775.44	0.05
775.75	0.05
776.06	0.05
776.37	0.04
776.68	0.05
776.99	0.05
777.3	0.04
777.61	0.05
777.92	0.05
778.229	0.05
778.539	0.05
778.848	0.05
779.158	0.05
779.467	0.05
779.777	0.03
780.086	0.05
780.395	0.04
780.704	0.04
781.013	0.04
781.323	0.04
781.632	0.05
781.941	0.05
782.249	0.04
782.558	0.04
782.867	0.04
783.176	0.03
783.485	0.04
783.793	0.04
784.102	0.03
784.41	0.03
784.719	0.04
785.027	0.04
785.335	0.04
785.644	0.04
785.952	0.03
786.26	0.04
786.568	0.03
786.876	0.04
787.184	0.03
787.492	0.04
787.8	0.04
788.108	0.04
788.416	0.04
788.723	0.03
789.031	0.03
789.338	0.04
789.646	0.04
789.953	0.04
790.261	0.04
790.568	0.05
790.876	0.04
791.183	0.04
791.49	0.04
791.797	0.04
792.104	0.05
792.411	0.04
792.718	0.04
793.025	0.05
793.332	0.04
793.639	0.05
793.945	0.06
794.252	0.05
794.559	0.05
794.865	0.05
795.172	0.06
795.478	0.04
795.784	0.05
796.091	0.05
796.397	0.06
796.703	0.05
797.009	0.06
797.315	0.05
797.622	0.05
797.927	0.05
798.233	0.05
798.539	0.06
798.845	0.06
799.151	0.05
799.456	0.06
799.762	0.05
800.068	0.05
800.373	0.06
800.679	0.06
800.984	0.05
801.289	0.05
801.595	0.05
801.9	0.05
802.205	0.06
802.51	0.05
802.815	0.05
803.12	0.05
803.425	0.05
803.73	0.04
804.035	0.05
804.339	0.04
804.644	0.04
804.949	0.05
805.253	0.04
805.558	0.05
805.862	0.04
806.167	0.05
806.471	0.04
806.775	0.05
807.08	0.04
807.384	0.04
807.688	0.04
807.992	0.05
808.296	0.04
808.6	0.04
808.904	0.04
809.207	0.05
809.511	0.05
809.815	0.06
810.119	0.05
810.422	0.05
810.726	0.06
811.029	0.07
811.332	0.05
811.636	0.07
811.939	0.06
812.242	0.06
812.546	0.07
812.849	0.06
813.152	0.07
813.455	0.07
813.758	0.06
814.06	0.06
814.363	0.07
814.666	0.07
814.969	0.06
815.271	0.06
815.574	0.06
815.877	0.06
816.179	0.06
816.481	0.05
816.784	0.05
817.086	0.06
817.388	0.04
817.69	0.04
817.993	0.04
818.295	0.04
818.597	0.04
818.899	0.05
819.2	0.04
819.502	0.03
819.804	0.04
820.106	0.04
820.407	0.04
820.709	0.04
821.01	0.04
821.312	0.05
821.613	0.03
821.915	0.04
822.216	0.04
822.517	0.03
822.818	0.03
823.119	0.04
823.42	0.04
823.721	0.03
824.022	0.03
824.323	0.03
824.624	0.03
824.925	0.04
825.226	0.04
825.526	0.03
825.827	0.03
826.127	0.03
826.428	0.04
826.728	0.03
827.028	0.04
827.329	0.03
827.629	0.03
827.929	0.04
828.229	0.03
828.529	0.04
828.829	0.03
829.129	0.03
829.429	0.04
829.729	0.03
830.029	0.03
830.328	0.03
830.628	0.01
830.927	0.02
831.227	0.02
831.526	0.03
831.826	0.03
832.125	0.02
832.424	0.02
832.724	0.03
833.023	0.03
833.322	0.03
833.621	0.02
833.92	0.02
834.219	0.02
834.518	0.02
834.816	0.01
835.115	0.03
835.414	0.01
835.712	0.01
836.011	0.01
836.309	0
836.608	0
836.906	0.01
837.205	-0
837.503	-0
837.801	0
838.099	-0.01
838.397	-0.01
838.695	-0
838.993	-0
839.291	-0.01
839.589	-0
839.887	-0.01
840.184	-0.02
840.482	-0.01
840.78	-0
841.077	-0.01
841.375	-0.01
841.672	-0.01
841.969	-0.01
842.267	-0.01
842.564	-0.01
842.861	-0.01
843.158	-0.02
843.455	-0.03
843.752	-0.02
844.049	-0.01
844.346	-0.03
844.643	-0.03
844.94	-0.03
845.236	-0.02
845.533	-0.03
845.83	-0.04
846.126	-0.03
846.423	-0.03
846.719	-0.05
847.015	-0.03
847.312	-0.04
847.608	-0.04
847.904	-0.04
848.2	-0.05
848.496	-0.04
848.792	-0.04
849.088	-0.03
849.384	-0.05
849.68	-0.04
849.975	-0.04
850.271	-0.05
850.567	-0.05
850.862	-0.05
851.158	-0.06
851.453	-0.06
851.748	-0.06
852.044	-0.05
852.339	-0.05
852.634	-0.07
852.929	-0.06
853.224	-0.06
853.519	-0.06
853.814	-0.06
854.109	-0.06
854.404	-0.07
854.699	-0.06
854.994	-0.06
855.288	-0.06
855.583	-0.06
855.877	-0.08
856.172	-0.07
856.466	-0.07
856.76	-0.08
857.055	-0.07
857.349	-0.08
857.643	-0.09
857.937	-0.1
858.231	-0.09
858.525	-0.09
858.819	-0.1
859.113	-0.11
859.407	-0.11
859.701	-0.11
859.994	-0.11
860.288	-0.1
860.581	-0.11
860.875	-0.1
861.168	-0.11
861.462	-0.11
861.755	-0.1
862.048	-0.11
862.341	-0.11
862.634	-0.11
862.928	-0.1
863.221	-0.1
863.513	-0.11
863.806	-0.12
864.099	-0.11
864.392	-0.11
864.685	-0.11
864.977	-0.11
865.27	-0.12
865.562	-0.12
865.855	-0.11
866.147	-0.12
866.44	-0.11
866.732	-0.12
867.024	-0.14
867.316	-0.12
867.608	-0.13
867.9	-0.12
868.192	-0.13
868.484	-0.13
868.776	-0.13
869.068	-0.13
869.359	-0.13
869.651	-0.13
869.943	-0.14
870.234	-0.15
870.526	-0.15
870.817	-0.15
871.108	-0.13
871.4	-0.14
871.691	-0.15
871.982	-0.16
872.273	-0.17
872.564	-0.17
872.855	-0.16
873.146	-0.16
873.437	-0.16
873.728	-0.17
874.019	-0.15
874.309	-0.17
874.6	-0.16
874.89	-0.17
875.181	-0.17
875.471	-0.16
875.762	-0.16
876.052	-0.16
876.342	-0.16
876.632	-0.18
876.922	-0.17
877.213	-0.18
877.503	-0.18
877.792	-0.16
878.082	-0.17
878.372	-0.16
878.662	-0.18
878.952	-0.18
879.241	-0.17
879.531	-0.16
879.82	-0.16
880.11	-0.16
880.399	-0.17
880.688	-0.15
880.978	-0.15
881.267	-0.15
