Data from 12-12-AQDScycling_Absorbance__681__00681.txt Node

Date: Tue Dec 12 13:46:59 EST 2023
User: kyuminlee
Spectrometer: FLMS00943
Trigger mode: 0
Integration Time (sec): 1.000000E-1
Scans to average: 1
Electric dark correction enabled: true
Nonlinearity correction enabled: false
Boxcar width: 0
XAxis mode: Wavelengths
Number of Pixels in Spectrum: 2048
>>>>>Begin Spectral Data<<<<<
179.651	-0
180.037	-0
180.424	-0
180.81	0.2
181.197	0.39
181.583	-0
181.97	-0.65
182.356	-0
182.743	-0
183.129	0.33
183.515	0.75
183.901	-0
184.288	0.08
184.674	-0
185.06	-0.9
185.446	-0.61
185.832	-1.36
186.218	-0
186.604	-0
186.99	-0
187.376	0.73
187.762	-0.21
188.148	0.48
188.534	-0.33
188.92	0.14
189.305	0.06
189.691	0.23
190.077	0.12
190.463	0.07
190.848	0.06
191.234	0.04
191.619	0.06
192.005	0.17
192.391	0.06
192.776	0.04
193.161	0.24
193.547	0.12
193.932	0.03
194.318	0.05
194.703	0.08
195.088	0.14
195.473	0.05
195.859	0.11
196.244	0.14
196.629	0.05
197.014	0.21
197.399	0.23
197.784	0.1
198.169	0.06
198.554	0.11
198.939	0.07
199.324	0.08
199.709	0.09
200.094	0.1
200.478	0.09
200.863	0.2
201.248	0.15
201.633	0.07
202.017	0.17
202.402	0.47
202.787	0.05
203.171	0.04
203.556	0.36
203.94	0.07
204.325	0.15
204.709	0.22
205.093	-0.01
205.478	0.26
205.862	-0.01
206.246	0.26
206.631	0.09
207.015	0.06
207.399	0.14
207.783	0.14
208.167	0.19
208.551	0.28
208.935	0.15
209.319	0.19
209.703	0.13
210.087	0.29
210.471	0.06
210.855	0.03
211.239	0.21
211.623	0.25
212.007	0.33
212.39	0.38
212.774	0.12
213.158	0.16
213.541	0.21
213.925	0.16
214.309	0.33
214.692	0.3
215.076	0.1
215.459	0.18
215.842	0.11
216.226	0.21
216.609	0.23
216.993	0.13
217.376	0.66
217.759	0.17
218.142	0.28
218.525	0.41
218.909	0.35
219.292	0.33
219.675	0.45
220.058	0.33
220.441	0.53
220.824	0.53
221.207	0.63
221.59	0.55
221.973	0.47
222.355	0.57
222.738	0.63
223.121	0.6
223.504	0.66
223.886	0.72
224.269	0.75
224.652	0.64
225.034	0.73
225.417	0.72
225.799	0.79
226.182	0.78
226.564	1.02
226.947	0.73
227.329	0.78
227.711	0.94
228.094	0.89
228.476	0.96
228.858	0.88
229.24	0.8
229.623	0.85
230.005	0.76
230.387	0.76
230.769	0.91
231.151	0.9
231.533	0.91
231.915	0.91
232.297	0.92
232.679	0.89
233.061	0.95
233.442	1.03
233.824	1.12
234.206	1.07
234.588	1.04
234.969	1.03
235.351	0.99
235.733	1.05
236.114	1.23
236.496	1.12
236.877	1.03
237.259	1.11
237.64	0.98
238.022	1.06
238.403	0.9
238.784	0.97
239.165	1.04
239.547	1.02
239.928	1.06
240.309	0.98
240.69	0.96
241.071	1.08
241.452	1.08
241.834	0.98
242.215	1.19
242.595	1.05
242.976	1.1
243.357	1.02
243.738	1.02
244.119	1.43
244.5	1.09
244.881	1.21
245.261	1.2
245.642	1.14
246.023	1.14
246.403	1.13
246.784	1.24
247.164	1.22
247.545	1.32
247.925	1.27
248.306	1.22
248.686	1.5
249.067	1.19
249.447	1.36
249.827	1.45
250.207	1.33
250.588	1.27
250.968	1.44
251.348	1.29
251.728	1.45
252.108	1.45
252.488	1.51
252.868	1.38
253.248	1.41
253.628	1.51
254.008	1.61
254.388	1.26
254.768	1.28
255.147	1.35
255.527	1.44
255.907	1.34
256.287	1.39
256.666	1.39
257.046	1.47
257.425	1.5
257.805	1.34
258.184	1.48
258.564	1.33
258.943	1.25
259.323	1.49
259.702	1.52
260.081	1.45
260.461	1.46
260.84	1.42
261.219	1.68
261.598	1.47
261.977	1.3
262.356	1.4
262.736	1.51
263.115	1.43
263.494	1.37
263.873	1.43
264.251	1.47
264.63	1.52
265.009	1.37
265.388	1.31
265.767	1.43
266.145	1.39
266.524	1.55
266.903	1.43
267.281	1.36
267.66	1.43
268.039	1.38
268.417	1.38
268.796	1.4
269.174	1.56
269.552	1.27
269.931	1.31
270.309	1.4
270.687	1.64
271.066	1.69
271.444	1.39
271.822	1.4
272.2	1.43
272.578	1.45
272.956	1.4
273.334	1.48
273.712	1.33
274.09	1.42
274.468	1.26
274.846	1.41
275.224	1.3
275.602	1.44
275.98	1.6
276.357	1.45
276.735	1.47
277.113	1.32
277.49	1.33
277.868	1.31
278.246	1.33
278.623	1.46
279.001	1.32
279.378	1.42
279.756	1.46
280.133	1.49
280.51	1.51
280.888	1.52
281.265	1.38
281.642	1.49
282.019	1.55
282.396	1.54
282.773	1.39
283.151	1.48
283.528	1.37
283.905	1.47
284.282	1.58
284.659	1.46
285.035	1.34
285.412	1.29
285.789	1.48
286.166	1.41
286.543	1.38
286.919	1.43
287.296	1.41
287.673	1.53
288.049	1.66
288.426	1.62
288.802	1.47
289.179	1.46
289.555	1.64
289.932	1.48
290.308	1.29
290.684	1.38
291.061	1.44
291.437	1.53
291.813	1.44
292.189	1.25
292.565	1.24
292.942	1.3
293.318	1.5
293.694	1.43
294.07	1.26
294.446	1.38
294.822	1.56
295.197	1.5
295.573	1.49
295.949	1.44
296.325	1.46
296.701	1.41
297.076	1.63
297.452	1.53
297.828	1.45
298.203	1.53
298.579	1.5
298.954	1.47
299.33	1.43
299.705	1.52
300.081	1.49
300.456	1.51
300.831	1.5
301.206	1.44
301.582	1.54
301.957	1.44
302.332	1.62
302.707	1.41
303.082	1.37
303.457	1.44
303.832	1.47
304.207	1.45
304.582	1.52
304.957	1.49
305.332	1.63
305.707	1.48
306.082	1.54
306.456	1.56
306.831	1.44
307.206	1.5
307.58	1.54
307.955	1.55
308.33	1.45
308.704	1.46
309.079	1.5
309.453	1.69
309.828	1.61
310.202	1.5
310.576	1.5
310.951	1.47
311.325	1.56
311.699	1.43
312.073	1.35
312.447	1.46
312.821	1.41
313.196	1.58
313.57	1.5
313.944	1.41
314.317	1.37
314.691	1.47
315.065	1.56
315.439	1.56
315.813	1.5
316.187	1.45
316.56	1.67
316.934	1.58
317.308	1.45
317.681	1.5
318.055	1.42
318.428	1.5
318.802	1.85
319.175	1.57
319.549	1.59
319.922	1.42
320.295	1.4
320.669	1.7
321.042	1.47
321.415	1.54
321.788	1.47
322.162	1.55
322.535	1.62
322.908	1.61
323.281	1.44
323.654	1.59
324.027	1.38
324.4	1.81
324.773	1.57
325.145	1.69
325.518	1.53
325.891	1.34
326.264	1.79
326.636	1.48
327.009	1.34
327.382	1.44
327.754	1.78
328.127	1.61
328.499	1.55
328.872	1.52
329.244	1.45
329.616	1.41
329.989	1.43
330.361	1.38
330.733	1.5
331.106	1.4
331.478	1.52
331.85	1.45
332.222	1.51
332.594	1.42
332.966	1.69
333.338	1.68
333.71	1.54
334.082	1.64
334.454	1.31
334.826	1.47
335.197	1.57
335.569	1.48
335.941	1.46
336.312	1.42
336.684	1.53
337.056	1.5
337.427	1.55
337.799	1.48
338.17	1.41
338.542	1.47
338.913	1.54
339.284	1.55
339.656	1.55
340.027	1.6
340.398	1.62
340.769	1.6
341.141	1.66
341.512	1.54
341.883	1.58
342.254	1.56
342.625	1.49
342.996	1.53
343.367	1.68
343.738	1.55
344.108	1.46
344.479	1.65
344.85	1.47
345.221	1.54
345.591	1.44
345.962	1.42
346.333	1.61
346.703	1.33
347.074	1.32
347.444	1.31
347.815	1.33
348.185	1.38
348.556	1.43
348.926	1.28
349.296	1.31
349.666	1.48
350.037	1.21
350.407	1.28
350.777	1.33
351.147	1.33
351.517	1.36
351.887	1.32
352.257	1.32
352.627	1.33
352.997	1.32
353.367	1.37
353.737	1.38
354.106	1.37
354.476	1.25
354.846	1.34
355.216	1.35
355.585	1.38
355.955	1.48
356.324	1.46
356.694	1.29
357.063	1.28
357.433	1.28
357.802	1.26
358.171	1.37
358.541	1.39
358.91	1.3
359.279	1.31
359.648	1.19
360.017	1.26
360.387	1.22
360.756	1.14
361.125	1.23
361.494	1.24
361.863	1.19
362.231	1.17
362.6	1.17
362.969	1.22
363.338	1.11
363.707	1.19
364.075	1.16
364.444	1.07
364.813	1.1
365.181	1.12
365.55	1.12
365.918	1.2
366.287	1.12
366.655	1.08
367.024	1.14
367.392	1.12
367.76	1.05
368.128	1.03
368.497	1.07
368.865	1.09
369.233	1.05
369.601	1.01
369.969	1.04
370.337	1.05
370.705	1.02
371.073	1.02
371.441	0.98
371.809	1.05
372.177	0.98
372.544	1.05
372.912	1.03
373.28	1.01
373.647	1.01
374.015	1.03
374.383	1.04
374.75	1.05
375.118	0.99
375.485	1.02
375.853	1.02
376.22	0.97
376.587	0.97
376.955	0.99
377.322	1
377.689	0.96
378.056	0.95
378.423	0.96
378.79	1.04
379.157	1.04
379.524	1.01
379.891	0.99
380.258	1.01
380.625	1.03
380.992	1.01
381.359	1.01
381.726	1.07
382.092	1.05
382.459	1
382.826	1.02
383.192	1.03
383.559	1.07
383.925	1.03
384.292	1.02
384.658	1.11
385.025	1.04
385.391	1.17
385.757	1.14
386.123	1.13
386.49	1.14
386.856	1.13
387.222	1.11
387.588	1.08
387.954	1.13
388.32	1.13
388.686	1.12
389.052	1.13
389.418	1.16
389.784	1.08
390.15	1.11
390.515	1.05
390.881	1.14
391.247	1.11
391.613	1.17
391.978	1.09
392.344	1.16
392.709	1.1
393.075	1.15
393.44	1.11
393.806	1.1
394.171	1.14
394.536	1.1
394.902	1.12
395.267	1.09
395.632	1.08
395.997	1.08
396.362	1.04
396.727	1.04
397.092	1.09
397.457	1.11
397.822	1.04
398.187	1.07
398.552	1.05
398.917	1.07
399.282	1.06
399.646	1.06
400.011	1.1
400.376	1.03
400.74	1.04
401.105	0.96
401.47	1.07
401.834	0.99
402.199	1
402.563	0.99
402.927	0.99
403.292	1.01
403.656	0.97
404.02	1.03
404.384	0.97
404.749	0.97
405.113	0.95
405.477	0.98
405.841	0.93
406.205	0.91
406.569	0.92
406.933	0.91
407.296	0.9
407.66	0.93
408.024	0.92
408.388	0.91
408.752	0.86
409.115	0.91
409.479	0.9
409.842	0.87
410.206	0.85
410.569	0.85
410.933	0.83
411.296	0.85
411.66	0.87
412.023	0.78
412.386	0.84
412.749	0.84
413.113	0.81
413.476	0.8
413.839	0.83
414.202	0.77
414.565	0.77
414.928	0.8
415.291	0.8
415.654	0.79
416.017	0.79
416.38	0.78
416.742	0.73
417.105	0.77
417.468	0.77
417.83	0.78
418.193	0.79
418.556	0.75
418.918	0.76
419.281	0.75
419.643	0.77
420.005	0.75
420.368	0.79
420.73	0.74
421.092	0.77
421.455	0.76
421.817	0.73
422.179	0.71
422.541	0.72
422.903	0.73
423.265	0.74
423.627	0.72
423.989	0.71
424.351	0.7
424.713	0.71
425.075	0.7
425.436	0.7
425.798	0.68
426.16	0.72
426.521	0.72
426.883	0.71
427.245	0.72
427.606	0.68
427.967	0.7
428.329	0.7
428.69	0.72
429.052	0.71
429.413	0.69
429.774	0.7
430.135	0.69
430.497	0.7
430.858	0.67
431.219	0.66
431.58	0.68
431.941	0.66
432.302	0.68
432.663	0.68
433.024	0.69
433.384	0.67
433.745	0.65
434.106	0.66
434.467	0.66
434.827	0.67
435.188	0.65
435.548	0.67
435.909	0.64
436.269	0.66
436.63	0.62
436.99	0.64
437.351	0.62
437.711	0.64
438.071	0.63
438.431	0.62
438.792	0.61
439.152	0.63
439.512	0.63
439.872	0.63
440.232	0.64
440.592	0.62
440.952	0.63
441.312	0.61
441.671	0.6
442.031	0.6
442.391	0.6
442.751	0.6
443.11	0.59
443.47	0.59
443.83	0.59
444.189	0.59
444.549	0.58
444.908	0.58
445.267	0.59
445.627	0.55
445.986	0.56
446.345	0.55
446.705	0.55
447.064	0.55
447.423	0.56
447.782	0.54
448.141	0.54
448.5	0.53
448.859	0.55
449.218	0.54
449.577	0.56
449.936	0.54
450.295	0.54
450.653	0.52
451.012	0.54
451.371	0.52
451.729	0.52
452.088	0.53
452.447	0.52
452.805	0.52
453.163	0.53
453.522	0.52
453.88	0.5
454.239	0.51
454.597	0.49
454.955	0.49
455.313	0.5
455.671	0.48
456.029	0.48
456.388	0.48
456.746	0.48
457.104	0.46
457.461	0.45
457.819	0.45
458.177	0.45
458.535	0.44
458.893	0.44
459.25	0.45
459.608	0.44
459.966	0.43
460.323	0.44
460.681	0.41
461.038	0.42
461.396	0.41
461.753	0.41
462.111	0.4
462.468	0.4
462.825	0.39
463.182	0.39
463.54	0.39
463.897	0.39
464.254	0.39
464.611	0.37
464.968	0.37
465.325	0.38
465.682	0.37
466.039	0.37
466.395	0.36
466.752	0.36
467.109	0.35
467.466	0.35
467.822	0.35
468.179	0.34
468.535	0.34
468.892	0.33
469.248	0.33
469.605	0.32
469.961	0.33
470.318	0.34
470.674	0.32
471.03	0.31
471.386	0.31
471.743	0.3
472.099	0.3
472.455	0.3
472.811	0.3
473.167	0.3
473.523	0.28
473.879	0.29
474.235	0.29
474.59	0.29
474.946	0.28
475.302	0.28
475.657	0.27
476.013	0.27
476.369	0.26
476.724	0.27
477.08	0.26
477.435	0.26
477.791	0.25
478.146	0.26
478.501	0.25
478.857	0.25
479.212	0.24
479.567	0.24
479.922	0.23
480.277	0.23
480.632	0.23
480.987	0.23
481.342	0.23
481.697	0.22
482.052	0.22
482.407	0.22
482.762	0.21
483.116	0.21
483.471	0.21
483.826	0.2
484.18	0.21
484.535	0.2
484.89	0.2
485.244	0.2
485.598	0.2
485.953	0.19
486.307	0.19
486.661	0.2
487.016	0.19
487.37	0.19
487.724	0.18
488.078	0.18
488.432	0.18
488.786	0.18
489.14	0.18
489.494	0.17
489.848	0.17
490.202	0.18
490.556	0.17
490.91	0.18
491.263	0.17
491.617	0.17
491.971	0.17
492.324	0.17
492.678	0.17
493.031	0.17
493.385	0.16
493.738	0.16
494.091	0.16
494.445	0.16
494.798	0.16
495.151	0.16
495.504	0.16
495.857	0.15
496.21	0.15
496.564	0.15
496.916	0.16
497.269	0.14
497.622	0.15
497.975	0.15
498.328	0.15
498.681	0.15
499.033	0.14
499.386	0.14
499.739	0.14
500.091	0.14
500.444	0.14
500.796	0.14
501.149	0.14
501.501	0.14
501.854	0.14
502.206	0.14
502.558	0.14
502.91	0.14
503.263	0.14
503.615	0.14
503.967	0.14
504.319	0.15
504.671	0.14
505.023	0.14
505.375	0.14
505.726	0.14
506.078	0.14
506.43	0.13
506.782	0.13
507.133	0.14
507.485	0.14
507.837	0.14
508.188	0.14
508.54	0.13
508.891	0.14
509.243	0.14
509.594	0.14
509.945	0.14
510.296	0.13
510.648	0.14
510.999	0.13
511.35	0.13
511.701	0.13
512.052	0.14
512.403	0.14
512.754	0.14
513.105	0.13
513.456	0.13
513.807	0.13
514.157	0.14
514.508	0.13
514.859	0.13
515.209	0.13
515.56	0.13
515.91	0.13
516.261	0.13
516.611	0.13
516.962	0.13
517.312	0.13
517.662	0.13
518.013	0.13
518.363	0.13
518.713	0.13
519.063	0.13
519.413	0.14
519.763	0.13
520.113	0.14
520.463	0.14
520.813	0.14
521.163	0.14
521.512	0.13
521.862	0.13
522.212	0.14
522.562	0.14
522.911	0.14
523.261	0.13
523.61	0.14
523.96	0.14
524.309	0.14
524.658	0.14
525.008	0.14
525.357	0.13
525.706	0.14
526.056	0.13
526.405	0.14
526.754	0.13
527.103	0.13
527.452	0.13
527.801	0.13
528.15	0.13
528.499	0.13
528.847	0.14
529.196	0.14
529.545	0.14
529.893	0.14
530.242	0.14
530.591	0.14
530.939	0.14
531.288	0.15
531.636	0.14
531.985	0.14
532.333	0.13
532.681	0.14
533.029	0.13
533.378	0.14
533.726	0.14
534.074	0.15
534.422	0.14
534.77	0.15
535.118	0.14
535.466	0.15
535.814	0.14
536.162	0.14
536.509	0.15
536.857	0.14
537.205	0.15
537.552	0.15
537.9	0.15
538.248	0.14
538.595	0.15
538.943	0.15
539.29	0.15
539.637	0.15
539.985	0.15
540.332	0.14
540.679	0.14
541.026	0.13
541.373	0.15
541.721	0.14
542.068	0.14
542.415	0.14
542.762	0.14
543.108	0.13
543.455	0.13
543.802	0.13
544.149	0.14
544.496	0.14
544.842	0.13
545.189	0.13
545.535	0.13
545.882	0.13
546.228	0.13
546.575	0.12
546.921	0.13
547.267	0.12
547.614	0.14
547.96	0.13
548.306	0.13
548.652	0.13
548.998	0.14
549.344	0.14
549.69	0.14
550.036	0.13
550.382	0.13
550.728	0.13
551.074	0.13
551.42	0.14
551.765	0.14
552.111	0.14
552.457	0.14
552.802	0.14
553.148	0.14
553.493	0.14
553.839	0.14
554.184	0.14
554.529	0.14
554.875	0.14
555.22	0.14
555.565	0.15
555.91	0.14
556.255	0.14
556.6	0.15
556.945	0.14
557.29	0.14
557.635	0.14
557.98	0.14
558.325	0.15
558.67	0.14
559.014	0.14
559.359	0.14
559.704	0.14
560.048	0.13
560.393	0.14
560.737	0.13
561.082	0.14
561.426	0.14
561.77	0.13
562.115	0.14
562.459	0.14
562.803	0.14
563.147	0.14
563.491	0.14
563.835	0.14
564.179	0.15
564.523	0.14
564.867	0.13
565.211	0.15
565.555	0.14
565.899	0.15
566.242	0.15
566.586	0.14
566.93	0.14
567.273	0.14
567.617	0.15
567.96	0.14
568.304	0.15
568.647	0.14
568.99	0.14
569.334	0.16
569.677	0.14
570.02	0.15
570.363	0.14
570.706	0.14
571.049	0.14
571.392	0.16
571.735	0.14
572.078	0.15
572.421	0.15
572.764	0.14
573.106	0.15
573.449	0.15
573.792	0.15
574.134	0.14
574.477	0.15
574.819	0.15
575.162	0.14
575.504	0.14
575.847	0.14
576.189	0.15
576.531	0.14
576.873	0.14
577.215	0.14
577.558	0.15
577.9	0.14
578.242	0.14
578.584	0.14
578.926	0.14
579.267	0.15
579.609	0.14
579.951	0.14
580.293	0.14
580.634	0.15
580.976	0.15
581.318	0.15
581.659	0.14
582.001	0.14
582.342	0.13
582.683	0.15
583.025	0.13
583.366	0.13
583.707	0.13
584.049	0.13
584.39	0.14
584.731	0.14
585.072	0.14
585.413	0.14
585.754	0.15
586.095	0.14
586.435	0.14
586.776	0.14
587.117	0.14
587.458	0.14
587.798	0.14
588.139	0.14
588.48	0.13
588.82	0.13
589.161	0.14
589.501	0.13
589.841	0.14
590.182	0.14
590.522	0.14
590.862	0.14
591.202	0.13
591.542	0.14
591.882	0.13
592.222	0.14
592.562	0.14
592.902	0.14
593.242	0.14
593.582	0.15
593.922	0.14
594.261	0.13
594.601	0.14
594.941	0.13
595.28	0.14
595.62	0.14
595.959	0.13
596.299	0.14
596.638	0.14
596.977	0.14
597.317	0.15
597.656	0.14
597.995	0.14
598.334	0.15
598.673	0.15
599.012	0.14
599.351	0.15
599.69	0.14
600.029	0.15
600.368	0.15
600.707	0.15
601.046	0.15
601.384	0.15
601.723	0.15
602.061	0.14
602.4	0.14
602.738	0.15
603.077	0.14
603.415	0.15
603.754	0.14
604.092	0.14
604.43	0.13
604.768	0.15
605.107	0.15
605.445	0.14
605.783	0.15
606.121	0.14
606.459	0.14
606.796	0.14
607.134	0.14
607.472	0.13
607.81	0.14
608.148	0.13
608.485	0.14
608.823	0.14
609.16	0.13
609.498	0.14
609.835	0.14
610.173	0.13
610.51	0.14
610.847	0.14
611.185	0.14
611.522	0.14
611.859	0.14
612.196	0.14
612.533	0.15
612.87	0.15
613.207	0.15
613.544	0.14
613.881	0.16
614.217	0.15
614.554	0.14
614.891	0.14
615.228	0.15
615.564	0.14
615.901	0.15
616.237	0.14
616.574	0.14
616.91	0.15
617.246	0.15
617.583	0.15
617.919	0.15
618.255	0.15
618.591	0.15
618.927	0.14
619.263	0.15
619.599	0.15
619.935	0.14
620.271	0.15
620.607	0.15
620.943	0.14
621.279	0.15
621.614	0.15
621.95	0.15
622.286	0.15
622.621	0.14
622.957	0.14
623.292	0.14
623.627	0.14
623.963	0.14
624.298	0.15
624.633	0.14
624.968	0.14
625.304	0.14
625.639	0.14
625.974	0.14
626.309	0.14
626.644	0.13
626.979	0.15
627.313	0.14
627.648	0.14
627.983	0.14
628.318	0.13
628.652	0.13
628.987	0.13
629.321	0.14
629.656	0.13
629.99	0.13
630.325	0.14
630.659	0.13
630.993	0.13
631.327	0.13
631.662	0.12
631.996	0.12
632.33	0.12
632.664	0.13
632.998	0.13
633.332	0.12
633.666	0.12
633.999	0.12
634.333	0.12
634.667	0.13
635.001	0.12
635.334	0.12
635.668	0.12
636.001	0.12
636.335	0.13
636.668	0.13
637.001	0.12
637.335	0.12
637.668	0.13
638.001	0.12
638.334	0.12
638.668	0.12
639.001	0.12
639.334	0.13
639.667	0.12
639.999	0.12
640.332	0.13
640.665	0.12
640.998	0.12
641.331	0.13
641.663	0.13
641.996	0.13
642.328	0.13
642.661	0.13
642.993	0.13
643.326	0.12
643.658	0.12
643.99	0.12
644.323	0.12
644.655	0.13
644.987	0.12
645.319	0.13
645.651	0.13
645.983	0.12
646.315	0.12
646.647	0.13
646.979	0.13
647.31	0.13
647.642	0.12
647.974	0.12
648.305	0.13
648.637	0.12
648.968	0.12
649.3	0.12
649.631	0.13
649.963	0.12
650.294	0.12
650.625	0.12
650.957	0.13
651.288	0.13
651.619	0.13
651.95	0.13
652.281	0.13
652.612	0.12
652.943	0.13
653.274	0.13
653.604	0.12
653.935	0.12
654.266	0.12
654.596	0.12
654.927	0.12
655.258	0.13
655.588	0.13
655.918	0.12
656.249	0.11
656.579	0.11
656.909	0.12
657.24	0.11
657.57	0.12
657.9	0.12
658.23	0.12
658.56	0.13
658.89	0.12
659.22	0.12
659.55	0.12
659.88	0.12
660.209	0.12
660.539	0.12
660.869	0.12
661.198	0.12
661.528	0.11
661.857	0.12
662.187	0.13
662.516	0.12
662.846	0.12
663.175	0.11
663.504	0.11
663.833	0.12
664.163	0.12
664.492	0.11
664.821	0.11
665.15	0.11
665.479	0.12
665.807	0.11
666.136	0.12
666.465	0.12
666.794	0.12
667.122	0.12
667.451	0.12
667.78	0.12
668.108	0.12
668.437	0.12
668.765	0.12
669.093	0.12
669.422	0.12
669.75	0.12
670.078	0.12
670.406	0.12
670.734	0.12
671.062	0.11
671.39	0.11
671.718	0.12
672.046	0.11
672.374	0.11
672.702	0.11
673.029	0.11
673.357	0.11
673.685	0.12
674.012	0.12
674.34	0.11
674.667	0.11
674.995	0.11
675.322	0.12
675.649	0.11
675.977	0.11
676.304	0.11
676.631	0.11
676.958	0.11
677.285	0.11
677.612	0.11
677.939	0.11
678.266	0.11
678.593	0.1
678.92	0.11
679.246	0.11
679.573	0.11
679.9	0.1
680.226	0.11
680.553	0.1
680.879	0.11
681.206	0.11
681.532	0.1
681.858	0.11
682.184	0.1
682.511	0.12
682.837	0.11
683.163	0.11
683.489	0.11
683.815	0.11
684.141	0.11
684.467	0.12
684.793	0.11
685.118	0.11
685.444	0.11
685.77	0.1
686.095	0.11
686.421	0.1
686.746	0.11
687.072	0.11
687.397	0.1
687.723	0.11
688.048	0.1
688.373	0.1
688.698	0.1
689.023	0.1
689.349	0.1
689.674	0.1
689.999	0.1
690.323	0.09
690.648	0.1
690.973	0.09
691.298	0.1
691.623	0.1
691.947	0.1
692.272	0.1
692.596	0.1
692.921	0.11
693.245	0.09
693.57	0.11
693.894	0.11
694.218	0.11
694.543	0.1
694.867	0.11
695.191	0.1
695.515	0.1
695.839	0.09
696.163	0.11
696.487	0.11
696.811	0.1
697.135	0.1
697.458	0.1
697.782	0.1
698.106	0.11
698.429	0.11
698.753	0.1
699.076	0.1
699.4	0.1
699.723	0.1
700.046	0.1
700.37	0.1
700.693	0.1
701.016	0.1
701.339	0.1
701.662	0.11
701.985	0.1
702.308	0.1
702.631	0.1
702.954	0.1
703.277	0.09
703.599	0.1
703.922	0.09
704.245	0.1
704.567	0.09
704.89	0.1
705.212	0.09
705.535	0.09
705.857	0.08
706.179	0.08
706.502	0.08
706.824	0.09
707.146	0.08
707.468	0.09
707.79	0.1
708.112	0.09
708.434	0.09
708.756	0.1
709.078	0.1
709.399	0.09
709.721	0.09
710.043	0.09
710.364	0.09
710.686	0.1
711.007	0.1
711.329	0.1
711.65	0.1
711.972	0.09
712.293	0.1
712.614	0.1
712.935	0.09
713.256	0.1
713.577	0.1
713.898	0.08
714.219	0.1
714.54	0.09
714.861	0.08
715.182	0.09
715.503	0.08
715.823	0.09
716.144	0.09
716.464	0.08
716.785	0.08
717.105	0.08
717.426	0.08
717.746	0.09
718.066	0.08
718.387	0.08
718.707	0.08
719.027	0.08
719.347	0.07
719.667	0.09
719.987	0.08
720.307	0.08
720.627	0.08
720.947	0.08
721.266	0.08
721.586	0.07
721.906	0.08
722.225	0.07
722.545	0.07
722.864	0.08
723.184	0.08
723.503	0.09
723.823	0.09
724.142	0.08
724.461	0.08
724.78	0.08
725.099	0.09
725.418	0.08
725.737	0.08
726.056	0.09
726.375	0.08
726.694	0.08
727.013	0.07
727.331	0.07
727.65	0.07
727.969	0.08
728.287	0.08
728.606	0.08
728.924	0.07
729.242	0.08
729.561	0.08
729.879	0.08
730.197	0.08
730.515	0.07
730.834	0.07
731.152	0.08
731.47	0.08
731.788	0.08
732.105	0.07
732.423	0.08
732.741	0.07
733.059	0.08
733.376	0.08
733.694	0.08
734.012	0.07
734.329	0.08
734.647	0.09
734.964	0.08
735.281	0.08
735.599	0.08
735.916	0.09
736.233	0.08
736.55	0.08
736.867	0.08
737.184	0.08
737.501	0.08
737.818	0.08
738.135	0.09
738.452	0.07
738.768	0.07
739.085	0.08
739.402	0.07
739.718	0.08
740.035	0.08
740.351	0.08
740.668	0.08
740.984	0.08
741.3	0.07
741.617	0.07
741.933	0.07
742.249	0.08
742.565	0.07
742.881	0.08
743.197	0.08
743.513	0.07
743.829	0.07
744.144	0.07
744.46	0.07
744.776	0.08
745.091	0.07
745.407	0.07
745.722	0.06
746.038	0.07
746.353	0.05
746.669	0.08
746.984	0.06
747.299	0.07
747.614	0.07
747.93	0.07
748.245	0.06
748.56	0.06
748.875	0.06
749.189	0.06
749.504	0.06
749.819	0.06
750.134	0.06
750.448	0.06
750.763	0.06
751.078	0.06
751.392	0.07
751.707	0.07
752.021	0.08
752.335	0.07
752.65	0.07
752.964	0.07
753.278	0.08
753.592	0.07
753.906	0.07
754.22	0.07
754.534	0.07
754.848	0.07
755.162	0.07
755.476	0.07
755.789	0.07
756.103	0.06
756.417	0.07
756.73	0.07
757.044	0.07
757.357	0.07
757.671	0.07
757.984	0.07
758.297	0.07
758.61	0.07
758.924	0.07
759.237	0.07
759.55	0.06
759.863	0.06
760.176	0.07
760.488	0.07
760.801	0.07
761.114	0.07
761.427	0.06
761.739	0.07
762.052	0.06
762.365	0.07
762.677	0.06
762.99	0.06
763.302	0.06
763.614	0.06
763.926	0.06
764.239	0.06
764.551	0.06
764.863	0.06
765.175	0.06
765.487	0.06
765.799	0.06
766.111	0.05
766.423	0.06
766.734	0.06
767.046	0.06
767.358	0.06
767.669	0.06
767.981	0.06
768.292	0.06
768.604	0.06
768.915	0.06
769.226	0.05
769.537	0.05
769.849	0.06
770.16	0.06
770.471	0.05
770.782	0.06
771.093	0.06
771.404	0.05
771.715	0.05
772.025	0.06
772.336	0.06
772.647	0.05
772.957	0.06
773.268	0.06
773.578	0.06
773.889	0.06
774.199	0.07
774.51	0.06
774.82	0.06
775.13	0.07
775.44	0.06
775.75	0.07
776.06	0.07
776.37	0.06
776.68	0.07
776.99	0.07
777.3	0.06
777.61	0.07
777.92	0.06
778.229	0.06
778.539	0.06
778.848	0.07
779.158	0.06
779.467	0.06
779.777	0.06
780.086	0.07
780.395	0.05
780.704	0.06
781.013	0.05
781.323	0.05
781.632	0.05
781.941	0.05
782.249	0.06
782.558	0.04
782.867	0.06
783.176	0.04
783.485	0.05
783.793	0.05
784.102	0.05
784.41	0.05
784.719	0.05
785.027	0.05
785.335	0.05
785.644	0.06
785.952	0.05
786.26	0.05
786.568	0.05
786.876	0.04
787.184	0.05
787.492	0.05
787.8	0.05
788.108	0.06
788.416	0.05
788.723	0.06
789.031	0.04
789.338	0.06
789.646	0.05
789.953	0.06
790.261	0.06
790.568	0.06
790.876	0.05
791.183	0.06
791.49	0.05
791.797	0.06
792.104	0.05
792.411	0.06
792.718	0.05
793.025	0.06
793.332	0.05
793.639	0.06
793.945	0.06
794.252	0.06
794.559	0.06
794.865	0.06
795.172	0.06
795.478	0.06
795.784	0.06
796.091	0.06
796.397	0.06
796.703	0.07
797.009	0.07
797.315	0.06
797.622	0.06
797.927	0.06
798.233	0.06
798.539	0.07
798.845	0.06
799.151	0.07
799.456	0.07
799.762	0.07
800.068	0.06
800.373	0.08
800.679	0.07
800.984	0.06
801.289	0.06
801.595	0.07
801.9	0.06
802.205	0.06
802.51	0.07
802.815	0.07
803.12	0.07
803.425	0.07
803.73	0.07
804.035	0.06
804.339	0.06
804.644	0.06
804.949	0.06
805.253	0.06
805.558	0.06
805.862	0.05
806.167	0.06
806.471	0.05
806.775	0.06
807.08	0.06
807.384	0.05
807.688	0.06
807.992	0.05
808.296	0.05
808.6	0.05
808.904	0.06
809.207	0.06
809.511	0.07
809.815	0.07
810.119	0.06
810.422	0.07
810.726	0.07
811.029	0.07
811.332	0.07
811.636	0.07
811.939	0.07
812.242	0.07
812.546	0.07
812.849	0.07
813.152	0.07
813.455	0.07
813.758	0.07
814.06	0.07
814.363	0.07
814.666	0.07
814.969	0.07
815.271	0.07
815.574	0.06
815.877	0.07
816.179	0.07
816.481	0.06
816.784	0.07
817.086	0.06
817.388	0.06
817.69	0.05
817.993	0.06
818.295	0.06
818.597	0.06
818.899	0.05
819.2	0.05
819.502	0.05
819.804	0.05
820.106	0.05
820.407	0.04
820.709	0.05
821.01	0.05
821.312	0.06
821.613	0.05
821.915	0.04
822.216	0.05
822.517	0.04
822.818	0.04
823.119	0.05
823.42	0.05
823.721	0.04
824.022	0.04
824.323	0.04
824.624	0.04
824.925	0.05
825.226	0.05
825.526	0.04
825.827	0.05
826.127	0.05
826.428	0.04
826.728	0.04
827.028	0.03
827.329	0.03
827.629	0.03
827.929	0.04
828.229	0.04
828.529	0.05
828.829	0.04
829.129	0.05
829.429	0.05
829.729	0.04
830.029	0.03
830.328	0.04
830.628	0.04
830.927	0.03
831.227	0.04
831.526	0.03
831.826	0.04
832.125	0.03
832.424	0.03
832.724	0.04
833.023	0.04
833.322	0.04
833.621	0.03
833.92	0.03
834.219	0.03
834.518	0.03
834.816	0.02
835.115	0.03
835.414	0.02
835.712	0.03
836.011	0.02
836.309	0.03
836.608	0.02
836.906	0.01
837.205	0.01
837.503	0.01
837.801	0
838.099	0
838.397	-0
838.695	-0
838.993	-0
839.291	-0.01
839.589	-0.01
839.887	-0
840.184	-0.01
840.482	-0.01
840.78	-0.01
841.077	-0.02
841.375	-0.01
841.672	-0.01
841.969	-0.01
842.267	-0.01
842.564	-0.01
842.861	0
843.158	-0
843.455	-0.02
843.752	-0.01
844.049	-0.01
844.346	-0.02
844.643	-0.03
844.94	-0.02
845.236	-0.01
845.533	-0.01
845.83	-0.02
846.126	-0.02
846.423	-0.02
846.719	-0.03
847.015	-0.02
847.312	-0.03
847.608	-0.03
847.904	-0.03
848.2	-0.03
848.496	-0.03
848.792	-0.03
849.088	-0.02
849.384	-0.04
849.68	-0.04
849.975	-0.03
850.271	-0.04
850.567	-0.04
850.862	-0.05
851.158	-0.04
851.453	-0.04
851.748	-0.05
852.044	-0.04
852.339	-0.04
852.634	-0.06
852.929	-0.04
853.224	-0.05
853.519	-0.05
853.814	-0.05
854.109	-0.05
854.404	-0.05
854.699	-0.06
854.994	-0.05
855.288	-0.05
855.583	-0.05
855.877	-0.06
856.172	-0.05
856.466	-0.06
856.76	-0.06
857.055	-0.05
857.349	-0.07
857.643	-0.08
857.937	-0.09
858.231	-0.08
858.525	-0.09
858.819	-0.09
859.113	-0.1
859.407	-0.09
859.701	-0.11
859.994	-0.1
860.288	-0.09
860.581	-0.09
860.875	-0.1
861.168	-0.1
861.462	-0.1
861.755	-0.09
862.048	-0.12
862.341	-0.1
862.634	-0.11
862.928	-0.1
863.221	-0.11
863.513	-0.11
863.806	-0.11
864.099	-0.11
864.392	-0.11
864.685	-0.1
864.977	-0.11
865.27	-0.11
865.562	-0.11
865.855	-0.12
866.147	-0.12
866.44	-0.11
866.732	-0.12
867.024	-0.12
867.316	-0.12
867.608	-0.12
867.9	-0.13
868.192	-0.12
868.484	-0.12
868.776	-0.12
869.068	-0.12
869.359	-0.12
869.651	-0.13
869.943	-0.14
870.234	-0.14
870.526	-0.14
870.817	-0.14
871.108	-0.13
871.4	-0.14
871.691	-0.14
871.982	-0.15
872.273	-0.15
872.564	-0.15
872.855	-0.15
873.146	-0.15
873.437	-0.15
873.728	-0.17
874.019	-0.15
874.309	-0.15
874.6	-0.16
874.89	-0.16
875.181	-0.15
875.471	-0.15
875.762	-0.16
876.052	-0.16
876.342	-0.15
876.632	-0.16
876.922	-0.17
877.213	-0.16
877.503	-0.17
877.792	-0.16
878.082	-0.17
878.372	-0.17
878.662	-0.18
878.952	-0.16
879.241	-0.17
879.531	-0.16
879.82	-0.15
880.11	-0.16
880.399	-0.16
880.688	-0.15
880.978	-0.15
881.267	-0.15
