Data from 12-12-AQDScycling_Absorbance__690__00690.txt Node

Date: Tue Dec 12 13:49:14 EST 2023
User: kyuminlee
Spectrometer: FLMS00943
Trigger mode: 0
Integration Time (sec): 1.000000E-1
Scans to average: 1
Electric dark correction enabled: true
Nonlinearity correction enabled: false
Boxcar width: 0
XAxis mode: Wavelengths
Number of Pixels in Spectrum: 2048
>>>>>Begin Spectral Data<<<<<
179.651	0.11
180.037	0.11
180.424	0.11
180.81	-0.11
181.197	0.07
181.583	-0
181.97	0.85
182.356	-0
182.743	-1.38
183.129	-0
183.515	2.06
183.901	-2.48
184.288	0.21
184.674	1.54
185.06	-0
185.446	0.04
185.832	-0
186.218	0.23
186.604	-0
186.99	-0
187.376	-0
187.762	-0.51
188.148	0.41
188.534	-0.31
188.92	0.13
189.305	-0.05
189.691	0.21
190.077	0.18
190.463	0.21
190.848	0.02
191.234	0.01
191.619	0.03
192.005	0.15
192.391	0.1
192.776	0.18
193.161	0.16
193.547	0.07
193.932	0.05
194.318	0.01
194.703	0.41
195.088	0.26
195.473	0.06
195.859	0.15
196.244	0.14
196.629	0.11
197.014	0.23
197.399	0.16
197.784	0.13
198.169	0.22
198.554	0.32
198.939	0.14
199.324	0.07
199.709	0.05
200.094	0.01
200.478	0.04
200.863	0.28
201.248	0.28
201.633	0.08
202.017	-0.02
202.402	0.18
202.787	0.12
203.171	0.27
203.556	0.21
203.94	0.14
204.325	0.21
204.709	0.21
205.093	0.11
205.478	0.19
205.862	0.11
206.246	0.17
206.631	0.15
207.015	0.04
207.399	0.21
207.783	0.18
208.167	0.11
208.551	0.18
208.935	0.18
209.319	0.14
209.703	0.12
210.087	0.19
210.471	0.04
210.855	0.16
211.239	0.19
211.623	0.28
212.007	0.29
212.39	0.28
212.774	0.17
213.158	0.09
213.541	0.27
213.925	0.3
214.309	0.28
214.692	0.32
215.076	0.19
215.459	0.14
215.842	0.12
216.226	0.24
216.609	0.26
216.993	0.13
217.376	0.37
217.759	0.16
218.142	0.32
218.525	0.48
218.909	0.35
219.292	0.31
219.675	0.49
220.058	0.58
220.441	0.53
220.824	0.55
221.207	0.56
221.59	0.4
221.973	0.49
222.355	0.68
222.738	0.61
223.121	0.65
223.504	0.61
223.886	0.63
224.269	0.83
224.652	0.59
225.034	0.84
225.417	0.73
225.799	0.82
226.182	0.85
226.564	0.8
226.947	0.76
227.329	0.72
227.711	1.02
228.094	0.91
228.476	0.9
228.858	0.81
229.24	0.85
229.623	0.84
230.005	1
230.387	0.78
230.769	0.85
231.151	0.94
231.533	0.91
231.915	0.82
232.297	0.97
232.679	0.95
233.061	0.86
233.442	1.03
233.824	1.02
234.206	1.17
234.588	1.04
234.969	0.98
235.351	0.84
235.733	1.15
236.114	1.01
236.496	1.13
236.877	1.28
237.259	1.04
237.64	1.12
238.022	1.02
238.403	0.95
238.784	0.99
239.165	1.01
239.547	1.05
239.928	1.01
240.309	1.12
240.69	1.02
241.071	1.22
241.452	1.28
241.834	0.97
242.215	1.18
242.595	1.06
242.976	1.19
243.357	1.14
243.738	1.05
244.119	1.33
244.5	1.06
244.881	1.32
245.261	1.18
245.642	1.1
246.023	1.27
246.403	1.22
246.784	1.35
247.164	1.23
247.545	1.32
247.925	1.22
248.306	1.23
248.686	1.3
249.067	1.27
249.447	1.39
249.827	1.32
250.207	1.45
250.588	1.25
250.968	1.33
251.348	1.47
251.728	1.31
252.108	1.34
252.488	1.45
252.868	1.36
253.248	1.41
253.628	1.38
254.008	1.43
254.388	1.3
254.768	1.39
255.147	1.42
255.527	1.31
255.907	1.31
256.287	1.49
256.666	1.32
257.046	1.52
257.425	1.43
257.805	1.32
258.184	1.3
258.564	1.48
258.943	1.35
259.323	1.57
259.702	1.47
260.081	1.4
260.461	1.61
260.84	1.4
261.219	1.59
261.598	1.52
261.977	1.32
262.356	1.5
262.736	1.52
263.115	1.6
263.494	1.51
263.873	1.51
264.251	1.42
264.63	1.42
265.009	1.39
265.388	1.34
265.767	1.4
266.145	1.28
266.524	1.37
266.903	1.41
267.281	1.44
267.66	1.54
268.039	1.44
268.417	1.57
268.796	1.52
269.174	1.5
269.552	1.31
269.931	1.42
270.309	1.36
270.687	1.53
271.066	1.47
271.444	1.28
271.822	1.5
272.2	1.38
272.578	1.4
272.956	1.4
273.334	1.21
273.712	1.39
274.09	1.42
274.468	1.46
274.846	1.32
275.224	1.26
275.602	1.37
275.98	1.63
276.357	1.48
276.735	1.42
277.113	1.48
277.49	1.38
277.868	1.26
278.246	1.47
278.623	1.31
279.001	1.33
279.378	1.4
279.756	1.52
280.133	1.36
280.51	1.39
280.888	1.54
281.265	1.35
281.642	1.43
282.019	1.51
282.396	1.64
282.773	1.39
283.151	1.45
283.528	1.4
283.905	1.54
284.282	1.47
284.659	1.53
285.035	1.34
285.412	1.37
285.789	1.5
286.166	1.46
286.543	1.4
286.919	1.43
287.296	1.4
287.673	1.44
288.049	1.46
288.426	1.53
288.802	1.55
289.179	1.52
289.555	1.67
289.932	1.47
290.308	1.3
290.684	1.38
291.061	1.35
291.437	1.59
291.813	1.28
292.189	1.22
292.565	1.3
292.942	1.36
293.318	1.3
293.694	1.37
294.07	1.29
294.446	1.38
294.822	1.38
295.197	1.41
295.573	1.45
295.949	1.4
296.325	1.55
296.701	1.68
297.076	1.64
297.452	1.55
297.828	1.42
298.203	1.69
298.579	1.46
298.954	1.52
299.33	1.49
299.705	1.41
300.081	1.44
300.456	1.52
300.831	1.54
301.206	1.44
301.582	1.61
301.957	1.54
302.332	1.53
302.707	1.46
303.082	1.52
303.457	1.44
303.832	1.53
304.207	1.46
304.582	1.52
304.957	1.37
305.332	1.66
305.707	1.52
306.082	1.57
306.456	1.63
306.831	1.43
307.206	1.55
307.58	1.41
307.955	1.48
308.33	1.43
308.704	1.5
309.079	1.5
309.453	1.78
309.828	1.48
310.202	1.42
310.576	1.46
310.951	1.57
311.325	1.63
311.699	1.44
312.073	1.36
312.447	1.57
312.821	1.46
313.196	1.51
313.57	1.4
313.944	1.44
314.317	1.44
314.691	1.56
315.065	1.49
315.439	1.74
315.813	1.51
316.187	1.42
316.56	1.64
316.934	1.5
317.308	1.46
317.681	1.66
318.055	1.44
318.428	1.55
318.802	1.53
319.175	1.51
319.549	1.52
319.922	1.53
320.295	1.49
320.669	1.75
321.042	1.51
321.415	1.59
321.788	1.48
322.162	1.66
322.535	1.54
322.908	1.56
323.281	1.5
323.654	1.84
324.027	1.44
324.4	1.75
324.773	1.55
325.145	1.43
325.518	1.32
325.891	1.38
326.264	1.56
326.636	1.38
327.009	1.55
327.382	1.5
327.754	1.8
328.127	1.42
328.499	1.5
328.872	1.55
329.244	1.53
329.616	1.51
329.989	1.36
330.361	1.55
330.733	1.43
331.106	1.38
331.478	1.79
331.85	1.52
332.222	1.4
332.594	1.5
332.966	1.59
333.338	1.54
333.71	1.49
334.082	1.6
334.454	1.44
334.826	1.43
335.197	1.45
335.569	1.6
335.941	1.45
336.312	1.39
336.684	1.54
337.056	1.51
337.427	1.58
337.799	1.49
338.17	1.57
338.542	1.5
338.913	1.58
339.284	1.65
339.656	1.73
340.027	1.56
340.398	1.63
340.769	1.58
341.141	1.59
341.512	1.52
341.883	1.64
342.254	1.39
342.625	1.49
342.996	1.54
343.367	1.45
343.738	1.57
344.108	1.43
344.479	1.57
344.85	1.45
345.221	1.5
345.591	1.33
345.962	1.42
346.333	1.48
346.703	1.34
347.074	1.37
347.444	1.33
347.815	1.53
348.185	1.42
348.556	1.43
348.926	1.52
349.296	1.45
349.666	1.37
350.037	1.41
350.407	1.32
350.777	1.33
351.147	1.38
351.517	1.58
351.887	1.41
352.257	1.38
352.627	1.3
352.997	1.36
353.367	1.37
353.737	1.49
354.106	1.4
354.476	1.39
354.846	1.35
355.216	1.44
355.585	1.36
355.955	1.36
356.324	1.34
356.694	1.23
357.063	1.31
357.433	1.25
357.802	1.31
358.171	1.29
358.541	1.22
358.91	1.22
359.279	1.28
359.648	1.13
360.017	1.2
360.387	1.15
360.756	1.13
361.125	1.13
361.494	1.18
361.863	1.14
362.231	1.09
362.6	1.1
362.969	1.12
363.338	1.01
363.707	1.06
364.075	1.05
364.444	1
364.813	0.99
365.181	0.97
365.55	0.97
365.918	0.99
366.287	0.95
366.655	0.97
367.024	0.95
367.392	0.94
367.76	0.9
368.128	0.96
368.497	0.86
368.865	0.85
369.233	0.89
369.601	0.88
369.969	0.88
370.337	0.83
370.705	0.84
371.073	0.86
371.441	0.8
371.809	0.84
372.177	0.85
372.544	0.83
372.912	0.83
373.28	0.81
373.647	0.81
374.015	0.83
374.383	0.85
374.75	0.82
375.118	0.8
375.485	0.78
375.853	0.78
376.22	0.79
376.587	0.79
376.955	0.76
377.322	0.77
377.689	0.74
378.056	0.76
378.423	0.79
378.79	0.76
379.157	0.79
379.524	0.76
379.891	0.78
380.258	0.77
380.625	0.76
380.992	0.75
381.359	0.79
381.726	0.78
382.092	0.73
382.459	0.74
382.826	0.75
383.192	0.79
383.559	0.79
383.925	0.81
384.292	0.79
384.658	0.81
385.025	0.76
385.391	0.78
385.757	0.79
386.123	0.82
386.49	0.8
386.856	0.8
387.222	0.79
387.588	0.8
387.954	0.84
388.32	0.83
388.686	0.81
389.052	0.78
389.418	0.8
389.784	0.81
390.15	0.8
390.515	0.77
390.881	0.82
391.247	0.81
391.613	0.82
391.978	0.8
392.344	0.82
392.709	0.79
393.075	0.8
393.44	0.81
393.806	0.8
394.171	0.78
394.536	0.77
394.902	0.79
395.267	0.79
395.632	0.78
395.997	0.76
396.362	0.77
396.727	0.79
397.092	0.76
397.457	0.77
397.822	0.75
398.187	0.78
398.552	0.75
398.917	0.76
399.282	0.74
399.646	0.75
400.011	0.74
400.376	0.74
400.74	0.73
401.105	0.72
401.47	0.71
401.834	0.69
402.199	0.71
402.563	0.71
402.927	0.69
403.292	0.7
403.656	0.68
404.02	0.71
404.384	0.71
404.749	0.67
405.113	0.68
405.477	0.66
405.841	0.65
406.205	0.66
406.569	0.66
406.933	0.64
407.296	0.64
407.66	0.64
408.024	0.63
408.388	0.64
408.752	0.64
409.115	0.62
409.479	0.62
409.842	0.58
410.206	0.62
410.569	0.62
410.933	0.62
411.296	0.61
411.66	0.59
412.023	0.59
412.386	0.56
412.749	0.59
413.113	0.59
413.476	0.55
413.839	0.54
414.202	0.56
414.565	0.53
414.928	0.56
415.291	0.52
415.654	0.54
416.017	0.56
416.38	0.55
416.742	0.53
417.105	0.53
417.468	0.54
417.83	0.52
418.193	0.56
418.556	0.52
418.918	0.54
419.281	0.54
419.643	0.54
420.005	0.54
420.368	0.52
420.73	0.51
421.092	0.53
421.455	0.53
421.817	0.51
422.179	0.51
422.541	0.49
422.903	0.51
423.265	0.52
423.627	0.49
423.989	0.5
424.351	0.48
424.713	0.49
425.075	0.47
425.436	0.48
425.798	0.48
426.16	0.48
426.521	0.51
426.883	0.51
427.245	0.48
427.606	0.49
427.967	0.48
428.329	0.47
428.69	0.5
429.052	0.48
429.413	0.49
429.774	0.45
430.135	0.47
430.497	0.47
430.858	0.47
431.219	0.46
431.58	0.46
431.941	0.45
432.302	0.45
432.663	0.47
433.024	0.47
433.384	0.46
433.745	0.44
434.106	0.45
434.467	0.45
434.827	0.46
435.188	0.45
435.548	0.46
435.909	0.44
436.269	0.47
436.63	0.42
436.99	0.45
437.351	0.44
437.711	0.46
438.071	0.43
438.431	0.45
438.792	0.44
439.152	0.43
439.512	0.42
439.872	0.43
440.232	0.42
440.592	0.43
440.952	0.43
441.312	0.41
441.671	0.43
442.031	0.41
442.391	0.41
442.751	0.41
443.11	0.41
443.47	0.42
443.83	0.41
444.189	0.4
444.549	0.41
444.908	0.42
445.267	0.41
445.627	0.39
445.986	0.38
446.345	0.37
446.705	0.38
447.064	0.39
447.423	0.38
447.782	0.38
448.141	0.37
448.5	0.37
448.859	0.38
449.218	0.37
449.577	0.37
449.936	0.38
450.295	0.37
450.653	0.37
451.012	0.37
451.371	0.37
451.729	0.37
452.088	0.36
452.447	0.37
452.805	0.36
453.163	0.37
453.522	0.36
453.88	0.34
454.239	0.35
454.597	0.34
454.955	0.34
455.313	0.33
455.671	0.34
456.029	0.33
456.388	0.33
456.746	0.33
457.104	0.33
457.461	0.31
457.819	0.32
458.177	0.32
458.535	0.31
458.893	0.31
459.25	0.31
459.608	0.3
459.966	0.3
460.323	0.29
460.681	0.28
461.038	0.29
461.396	0.29
461.753	0.28
462.111	0.28
462.468	0.28
462.825	0.28
463.182	0.27
463.54	0.27
463.897	0.27
464.254	0.27
464.611	0.27
464.968	0.26
465.325	0.27
465.682	0.26
466.039	0.26
466.395	0.26
466.752	0.25
467.109	0.25
467.466	0.25
467.822	0.24
468.179	0.24
468.535	0.24
468.892	0.24
469.248	0.23
469.605	0.22
469.961	0.23
470.318	0.24
470.674	0.23
471.03	0.23
471.386	0.23
471.743	0.22
472.099	0.22
472.455	0.23
472.811	0.21
473.167	0.22
473.523	0.21
473.879	0.21
474.235	0.2
474.59	0.2
474.946	0.2
475.302	0.2
475.657	0.2
476.013	0.19
476.369	0.19
476.724	0.2
477.08	0.19
477.435	0.19
477.791	0.19
478.146	0.18
478.501	0.19
478.857	0.18
479.212	0.18
479.567	0.18
479.922	0.17
480.277	0.17
480.632	0.16
480.987	0.17
481.342	0.16
481.697	0.16
482.052	0.16
482.407	0.15
482.762	0.16
483.116	0.16
483.471	0.15
483.826	0.15
484.18	0.15
484.535	0.15
484.89	0.14
485.244	0.15
485.598	0.15
485.953	0.14
486.307	0.14
486.661	0.15
487.016	0.14
487.37	0.14
487.724	0.14
488.078	0.14
488.432	0.14
488.786	0.14
489.14	0.13
489.494	0.13
489.848	0.13
490.202	0.13
490.556	0.13
490.91	0.13
491.263	0.12
491.617	0.13
491.971	0.13
492.324	0.12
492.678	0.13
493.031	0.13
493.385	0.13
493.738	0.13
494.091	0.12
494.445	0.13
494.798	0.12
495.151	0.11
495.504	0.12
495.857	0.12
496.21	0.12
496.564	0.12
496.916	0.12
497.269	0.11
497.622	0.12
497.975	0.11
498.328	0.11
498.681	0.11
499.033	0.1
499.386	0.11
499.739	0.1
500.091	0.11
500.444	0.1
500.796	0.11
501.149	0.1
501.501	0.11
501.854	0.1
502.206	0.1
502.558	0.11
502.91	0.11
503.263	0.1
503.615	0.1
503.967	0.1
504.319	0.12
504.671	0.1
505.023	0.1
505.375	0.1
505.726	0.1
506.078	0.11
506.43	0.1
506.782	0.11
507.133	0.1
507.485	0.11
507.837	0.11
508.188	0.1
508.54	0.1
508.891	0.11
509.243	0.1
509.594	0.11
509.945	0.1
510.296	0.1
510.648	0.1
510.999	0.09
511.35	0.1
511.701	0.1
512.052	0.11
512.403	0.1
512.754	0.1
513.105	0.1
513.456	0.1
513.807	0.1
514.157	0.1
514.508	0.1
514.859	0.1
515.209	0.1
515.56	0.1
515.91	0.1
516.261	0.1
516.611	0.1
516.962	0.1
517.312	0.1
517.662	0.1
518.013	0.1
518.363	0.09
518.713	0.1
519.063	0.11
519.413	0.1
519.763	0.1
520.113	0.1
520.463	0.1
520.813	0.1
521.163	0.1
521.512	0.1
521.862	0.1
522.212	0.1
522.562	0.11
522.911	0.1
523.261	0.11
523.61	0.1
523.96	0.1
524.309	0.11
524.658	0.11
525.008	0.1
525.357	0.1
525.706	0.1
526.056	0.1
526.405	0.1
526.754	0.1
527.103	0.1
527.452	0.1
527.801	0.1
528.15	0.1
528.499	0.1
528.847	0.1
529.196	0.11
529.545	0.11
529.893	0.11
530.242	0.11
530.591	0.11
530.939	0.11
531.288	0.11
531.636	0.11
531.985	0.11
532.333	0.11
532.681	0.11
533.029	0.11
533.378	0.11
533.726	0.11
534.074	0.12
534.422	0.1
534.77	0.11
535.118	0.11
535.466	0.11
535.814	0.11
536.162	0.11
536.509	0.11
536.857	0.1
537.205	0.11
537.552	0.11
537.9	0.11
538.248	0.11
538.595	0.12
538.943	0.11
539.29	0.11
539.637	0.11
539.985	0.11
540.332	0.11
540.679	0.11
541.026	0.11
541.373	0.11
541.721	0.1
542.068	0.11
542.415	0.12
542.762	0.1
543.108	0.1
543.455	0.1
543.802	0.1
544.149	0.1
544.496	0.11
544.842	0.1
545.189	0.09
545.535	0.1
545.882	0.1
546.228	0.1
546.575	0.09
546.921	0.09
547.267	0.09
547.614	0.1
547.96	0.1
548.306	0.1
548.652	0.09
548.998	0.1
549.344	0.1
549.69	0.1
550.036	0.09
550.382	0.1
550.728	0.1
551.074	0.11
551.42	0.1
551.765	0.09
552.111	0.1
552.457	0.11
552.802	0.1
553.148	0.1
553.493	0.1
553.839	0.1
554.184	0.11
554.529	0.11
554.875	0.1
555.22	0.1
555.565	0.11
555.91	0.1
556.255	0.11
556.6	0.11
556.945	0.1
557.29	0.1
557.635	0.11
557.98	0.11
558.325	0.11
558.67	0.11
559.014	0.11
559.359	0.1
559.704	0.1
560.048	0.1
560.393	0.11
560.737	0.09
561.082	0.11
561.426	0.1
561.77	0.1
562.115	0.1
562.459	0.1
562.803	0.1
563.147	0.1
563.491	0.1
563.835	0.11
564.179	0.11
564.523	0.1
564.867	0.11
565.211	0.11
565.555	0.11
565.899	0.11
566.242	0.11
566.586	0.1
566.93	0.1
567.273	0.11
567.617	0.12
567.96	0.11
568.304	0.11
568.647	0.1
568.99	0.11
569.334	0.11
569.677	0.1
570.02	0.11
570.363	0.11
570.706	0.1
571.049	0.11
571.392	0.11
571.735	0.11
572.078	0.11
572.421	0.12
572.764	0.11
573.106	0.11
573.449	0.11
573.792	0.1
574.134	0.1
574.477	0.11
574.819	0.1
575.162	0.1
575.504	0.11
575.847	0.1
576.189	0.11
576.531	0.11
576.873	0.1
577.215	0.11
577.558	0.1
577.9	0.1
578.242	0.1
578.584	0.1
578.926	0.11
579.267	0.11
579.609	0.11
579.951	0.11
580.293	0.11
580.634	0.11
580.976	0.11
581.318	0.11
581.659	0.1
582.001	0.1
582.342	0.1
582.683	0.1
583.025	0.09
583.366	0.1
583.707	0.11
584.049	0.1
584.39	0.1
584.731	0.1
585.072	0.1
585.413	0.1
585.754	0.1
586.095	0.1
586.435	0.1
586.776	0.1
587.117	0.1
587.458	0.1
587.798	0.1
588.139	0.11
588.48	0.1
588.82	0.1
589.161	0.1
589.501	0.1
589.841	0.1
590.182	0.1
590.522	0.1
590.862	0.11
591.202	0.1
591.542	0.1
591.882	0.1
592.222	0.1
592.562	0.1
592.902	0.1
593.242	0.1
593.582	0.11
593.922	0.1
594.261	0.1
594.601	0.1
594.941	0.1
595.28	0.1
595.62	0.1
595.959	0.1
596.299	0.1
596.638	0.1
596.977	0.09
597.317	0.11
597.656	0.1
597.995	0.1
598.334	0.11
598.673	0.1
599.012	0.1
599.351	0.12
599.69	0.11
600.029	0.11
600.368	0.12
600.707	0.11
601.046	0.1
601.384	0.11
601.723	0.11
602.061	0.1
602.4	0.11
602.738	0.11
603.077	0.11
603.415	0.1
603.754	0.1
604.092	0.11
604.43	0.11
604.768	0.1
605.107	0.11
605.445	0.1
605.783	0.11
606.121	0.1
606.459	0.1
606.796	0.1
607.134	0.1
607.472	0.1
607.81	0.1
608.148	0.1
608.485	0.1
608.823	0.1
609.16	0.1
609.498	0.1
609.835	0.1
610.173	0.1
610.51	0.11
610.847	0.11
611.185	0.1
611.522	0.11
611.859	0.1
612.196	0.11
612.533	0.11
612.87	0.11
613.207	0.11
613.544	0.1
613.881	0.12
614.217	0.11
614.554	0.1
614.891	0.11
615.228	0.11
615.564	0.11
615.901	0.11
616.237	0.12
616.574	0.11
616.91	0.12
617.246	0.12
617.583	0.11
617.919	0.11
618.255	0.12
618.591	0.11
618.927	0.11
619.263	0.11
619.599	0.11
619.935	0.11
620.271	0.12
620.607	0.11
620.943	0.11
621.279	0.11
621.614	0.11
621.95	0.11
622.286	0.11
622.621	0.11
622.957	0.11
623.292	0.11
623.627	0.11
623.963	0.11
624.298	0.11
624.633	0.11
624.968	0.1
625.304	0.1
625.639	0.1
625.974	0.1
626.309	0.1
626.644	0.11
626.979	0.11
627.313	0.11
627.648	0.11
627.983	0.11
628.318	0.1
628.652	0.1
628.987	0.1
629.321	0.1
629.656	0.1
629.99	0.09
630.325	0.1
630.659	0.09
630.993	0.09
631.327	0.1
631.662	0.09
631.996	0.08
632.33	0.09
632.664	0.1
632.998	0.09
633.332	0.09
633.666	0.09
633.999	0.09
634.333	0.09
634.667	0.09
635.001	0.09
635.334	0.09
635.668	0.09
636.001	0.09
636.335	0.09
636.668	0.09
637.001	0.09
637.335	0.09
637.668	0.09
638.001	0.09
638.334	0.09
638.668	0.09
639.001	0.09
639.334	0.09
639.667	0.09
639.999	0.09
640.332	0.1
640.665	0.09
640.998	0.09
641.331	0.09
641.663	0.09
641.996	0.09
642.328	0.09
642.661	0.09
642.993	0.1
643.326	0.1
643.658	0.09
643.99	0.08
644.323	0.09
644.655	0.09
644.987	0.09
645.319	0.1
645.651	0.09
645.983	0.09
646.315	0.09
646.647	0.09
646.979	0.1
647.31	0.1
647.642	0.1
647.974	0.09
648.305	0.1
648.637	0.09
648.968	0.09
649.3	0.09
649.631	0.1
649.963	0.09
650.294	0.09
650.625	0.1
650.957	0.09
651.288	0.1
651.619	0.1
651.95	0.1
652.281	0.1
652.612	0.09
652.943	0.1
653.274	0.1
653.604	0.09
653.935	0.1
654.266	0.1
654.596	0.09
654.927	0.1
655.258	0.09
655.588	0.1
655.918	0.1
656.249	0.07
656.579	0.09
656.909	0.09
657.24	0.09
657.57	0.1
657.9	0.09
658.23	0.09
658.56	0.1
658.89	0.1
659.22	0.09
659.55	0.09
659.88	0.09
660.209	0.09
660.539	0.1
660.869	0.09
661.198	0.09
661.528	0.09
661.857	0.09
662.187	0.09
662.516	0.1
662.846	0.09
663.175	0.09
663.504	0.08
663.833	0.09
664.163	0.09
664.492	0.09
664.821	0.09
665.15	0.09
665.479	0.09
665.807	0.09
666.136	0.09
666.465	0.09
666.794	0.09
667.122	0.09
667.451	0.09
667.78	0.09
668.108	0.1
668.437	0.09
668.765	0.1
669.093	0.1
669.422	0.09
669.75	0.09
670.078	0.09
670.406	0.09
670.734	0.1
671.062	0.1
671.39	0.09
671.718	0.1
672.046	0.09
672.374	0.09
672.702	0.09
673.029	0.08
673.357	0.09
673.685	0.09
674.012	0.09
674.34	0.09
674.667	0.09
674.995	0.09
675.322	0.1
675.649	0.09
675.977	0.09
676.304	0.09
676.631	0.09
676.958	0.09
677.285	0.09
677.612	0.08
677.939	0.08
678.266	0.09
678.593	0.09
678.92	0.09
679.246	0.08
679.573	0.08
679.9	0.08
680.226	0.08
680.553	0.08
680.879	0.08
681.206	0.09
681.532	0.08
681.858	0.09
682.184	0.09
682.511	0.09
682.837	0.08
683.163	0.09
683.489	0.1
683.815	0.09
684.141	0.09
684.467	0.09
684.793	0.09
685.118	0.09
685.444	0.09
685.77	0.08
686.095	0.08
686.421	0.08
686.746	0.09
687.072	0.08
687.397	0.08
687.723	0.08
688.048	0.09
688.373	0.08
688.698	0.08
689.023	0.08
689.349	0.08
689.674	0.08
689.999	0.08
690.323	0.07
690.648	0.07
690.973	0.07
691.298	0.08
691.623	0.07
691.947	0.08
692.272	0.07
692.596	0.08
692.921	0.09
693.245	0.08
693.57	0.08
693.894	0.08
694.218	0.08
694.543	0.08
694.867	0.08
695.191	0.08
695.515	0.09
695.839	0.08
696.163	0.08
696.487	0.09
696.811	0.09
697.135	0.09
697.458	0.09
697.782	0.08
698.106	0.09
698.429	0.09
698.753	0.08
699.076	0.08
699.4	0.08
699.723	0.08
700.046	0.07
700.37	0.09
700.693	0.09
701.016	0.08
701.339	0.08
701.662	0.08
701.985	0.08
702.308	0.07
702.631	0.08
702.954	0.08
703.277	0.08
703.599	0.09
703.922	0.07
704.245	0.07
704.567	0.07
704.89	0.08
705.212	0.08
705.535	0.07
705.857	0.07
706.179	0.07
706.502	0.07
706.824	0.06
707.146	0.07
707.468	0.08
707.79	0.07
708.112	0.08
708.434	0.07
708.756	0.07
709.078	0.08
709.399	0.07
709.721	0.07
710.043	0.07
710.364	0.08
710.686	0.08
711.007	0.08
711.329	0.09
711.65	0.08
711.972	0.08
712.293	0.08
712.614	0.08
712.935	0.08
713.256	0.08
713.577	0.09
713.898	0.08
714.219	0.07
714.54	0.08
714.861	0.07
715.182	0.07
715.503	0.07
715.823	0.07
716.144	0.07
716.464	0.06
716.785	0.06
717.105	0.07
717.426	0.07
717.746	0.07
718.066	0.06
718.387	0.06
718.707	0.06
719.027	0.08
719.347	0.05
719.667	0.07
719.987	0.06
720.307	0.06
720.627	0.06
720.947	0.07
721.266	0.06
721.586	0.06
721.906	0.07
722.225	0.06
722.545	0.06
722.864	0.07
723.184	0.07
723.503	0.07
723.823	0.08
724.142	0.07
724.461	0.07
724.78	0.07
725.099	0.07
725.418	0.07
725.737	0.06
726.056	0.07
726.375	0.07
726.694	0.07
727.013	0.06
727.331	0.06
727.65	0.06
727.969	0.07
728.287	0.07
728.606	0.06
728.924	0.05
729.242	0.06
729.561	0.06
729.879	0.06
730.197	0.07
730.515	0.06
730.834	0.06
731.152	0.06
731.47	0.06
731.788	0.07
732.105	0.06
732.423	0.07
732.741	0.07
733.059	0.06
733.376	0.07
733.694	0.07
734.012	0.06
734.329	0.07
734.647	0.07
734.964	0.08
735.281	0.07
735.599	0.08
735.916	0.08
736.233	0.06
736.55	0.07
736.867	0.08
737.184	0.08
737.501	0.07
737.818	0.07
738.135	0.08
738.452	0.07
738.768	0.07
739.085	0.06
739.402	0.06
739.718	0.07
740.035	0.07
740.351	0.07
740.668	0.07
740.984	0.07
741.3	0.06
741.617	0.07
741.933	0.06
742.249	0.07
742.565	0.07
742.881	0.07
743.197	0.07
743.513	0.06
743.829	0.06
744.144	0.06
744.46	0.06
744.776	0.07
745.091	0.06
745.407	0.06
745.722	0.06
746.038	0.05
746.353	0.05
746.669	0.06
746.984	0.05
747.299	0.05
747.614	0.06
747.93	0.06
748.245	0.06
748.56	0.06
748.875	0.06
749.189	0.05
749.504	0.05
749.819	0.06
750.134	0.05
750.448	0.05
750.763	0.05
751.078	0.04
751.392	0.05
751.707	0.06
752.021	0.06
752.335	0.07
752.65	0.06
752.964	0.06
753.278	0.06
753.592	0.06
753.906	0.05
754.22	0.07
754.534	0.06
754.848	0.06
755.162	0.06
755.476	0.07
755.789	0.06
756.103	0.05
756.417	0.07
756.73	0.06
757.044	0.07
757.357	0.06
757.671	0.06
757.984	0.06
758.297	0.07
758.61	0.06
758.924	0.06
759.237	0.06
759.55	0.06
759.863	0.06
760.176	0.07
760.488	0.06
760.801	0.06
761.114	0.05
761.427	0.05
761.739	0.05
762.052	0.05
762.365	0.06
762.677	0.06
762.99	0.05
763.302	0.05
763.614	0.06
763.926	0.06
764.239	0.05
764.551	0.05
764.863	0.06
765.175	0.06
765.487	0.06
765.799	0.05
766.111	0.04
766.423	0.06
766.734	0.06
767.046	0.06
767.358	0.06
767.669	0.06
767.981	0.05
768.292	0.06
768.604	0.05
768.915	0.05
769.226	0.06
769.537	0.05
769.849	0.05
770.16	0.05
770.471	0.05
770.782	0.05
771.093	0.06
771.404	0.04
771.715	0.04
772.025	0.05
772.336	0.05
772.647	0.04
772.957	0.06
773.268	0.06
773.578	0.05
773.889	0.05
774.199	0.06
774.51	0.06
774.82	0.06
775.13	0.05
775.44	0.06
775.75	0.06
776.06	0.06
776.37	0.05
776.68	0.06
776.99	0.06
777.3	0.06
777.61	0.07
777.92	0.05
778.229	0.05
778.539	0.06
778.848	0.06
779.158	0.05
779.467	0.06
779.777	0.05
780.086	0.05
780.395	0.05
780.704	0.05
781.013	0.04
781.323	0.04
781.632	0.05
781.941	0.05
782.249	0.05
782.558	0.05
782.867	0.05
783.176	0.04
783.485	0.05
783.793	0.05
784.102	0.05
784.41	0.05
784.719	0.04
785.027	0.04
785.335	0.04
785.644	0.05
785.952	0.04
786.26	0.05
786.568	0.05
786.876	0.05
787.184	0.05
787.492	0.04
787.8	0.05
788.108	0.06
788.416	0.05
788.723	0.05
789.031	0.05
789.338	0.05
789.646	0.04
789.953	0.06
790.261	0.05
790.568	0.05
790.876	0.05
791.183	0.06
791.49	0.04
791.797	0.04
792.104	0.04
792.411	0.06
792.718	0.04
793.025	0.06
793.332	0.05
793.639	0.05
793.945	0.06
794.252	0.06
794.559	0.05
794.865	0.05
795.172	0.06
795.478	0.05
795.784	0.06
796.091	0.05
796.397	0.06
796.703	0.06
797.009	0.07
797.315	0.06
797.622	0.05
797.927	0.05
798.233	0.06
798.539	0.07
798.845	0.06
799.151	0.06
799.456	0.06
799.762	0.05
800.068	0.06
800.373	0.07
800.679	0.06
800.984	0.05
801.289	0.05
801.595	0.06
801.9	0.06
802.205	0.06
802.51	0.06
802.815	0.06
803.12	0.06
803.425	0.06
803.73	0.06
804.035	0.06
804.339	0.06
804.644	0.06
804.949	0.06
805.253	0.06
805.558	0.05
805.862	0.05
806.167	0.05
806.471	0.06
806.775	0.05
807.08	0.06
807.384	0.05
807.688	0.05
807.992	0.05
808.296	0.05
808.6	0.06
808.904	0.06
809.207	0.06
809.511	0.06
809.815	0.06
810.119	0.06
810.422	0.07
810.726	0.07
811.029	0.07
811.332	0.06
811.636	0.07
811.939	0.06
812.242	0.07
812.546	0.06
812.849	0.06
813.152	0.07
813.455	0.07
813.758	0.07
814.06	0.07
814.363	0.07
814.666	0.06
814.969	0.07
815.271	0.07
815.574	0.06
815.877	0.07
816.179	0.06
816.481	0.06
816.784	0.07
817.086	0.05
817.388	0.05
817.69	0.05
817.993	0.04
818.295	0.06
818.597	0.05
818.899	0.05
819.2	0.04
819.502	0.04
819.804	0.04
820.106	0.05
820.407	0.04
820.709	0.04
821.01	0.04
821.312	0.05
821.613	0.04
821.915	0.05
822.216	0.04
822.517	0.05
822.818	0.04
823.119	0.04
823.42	0.04
823.721	0.04
824.022	0.04
824.323	0.04
824.624	0.04
824.925	0.05
825.226	0.05
825.526	0.04
825.827	0.04
826.127	0.04
826.428	0.05
826.728	0.04
827.028	0.04
827.329	0.04
827.629	0.04
827.929	0.04
828.229	0.04
828.529	0.04
828.829	0.04
829.129	0.04
829.429	0.03
829.729	0.04
830.029	0.03
830.328	0.03
830.628	0.03
830.927	0.03
831.227	0.03
831.526	0.04
831.826	0.04
832.125	0.04
832.424	0.03
832.724	0.03
833.023	0.04
833.322	0.04
833.621	0.03
833.92	0.03
834.219	0.03
834.518	0.03
834.816	0.02
835.115	0.03
835.414	0.02
835.712	0.02
836.011	0.02
836.309	0.02
836.608	0.01
836.906	0.01
837.205	0
837.503	0.01
837.801	0
838.099	0.01
838.397	-0
838.695	-0
838.993	-0
839.291	-0.01
839.589	-0.01
839.887	-0.01
840.184	-0.01
840.482	-0.02
840.78	-0.01
841.077	-0.01
841.375	-0.01
841.672	-0
841.969	-0.01
842.267	-0.01
842.564	-0
842.861	-0.01
843.158	-0.01
843.455	-0.03
843.752	-0.02
844.049	-0.02
844.346	-0.01
844.643	-0.03
844.94	-0.02
845.236	-0.01
845.533	-0.02
845.83	-0.02
846.126	-0.03
846.423	-0.02
846.719	-0.03
847.015	-0.02
847.312	-0.03
847.608	-0.03
847.904	-0.04
848.2	-0.03
848.496	-0.04
848.792	-0.03
849.088	-0.02
849.384	-0.04
849.68	-0.04
849.975	-0.03
850.271	-0.04
850.567	-0.04
850.862	-0.04
851.158	-0.04
851.453	-0.05
851.748	-0.05
852.044	-0.05
852.339	-0.05
852.634	-0.07
852.929	-0.04
853.224	-0.05
853.519	-0.05
853.814	-0.05
854.109	-0.06
854.404	-0.06
854.699	-0.06
854.994	-0.05
855.288	-0.05
855.583	-0.05
855.877	-0.05
856.172	-0.06
856.466	-0.06
856.76	-0.06
857.055	-0.07
857.349	-0.07
857.643	-0.08
857.937	-0.09
858.231	-0.09
858.525	-0.09
858.819	-0.09
859.113	-0.1
859.407	-0.11
859.701	-0.09
859.994	-0.1
860.288	-0.1
860.581	-0.11
860.875	-0.1
861.168	-0.1
861.462	-0.1
861.755	-0.09
862.048	-0.11
862.341	-0.11
862.634	-0.11
862.928	-0.1
863.221	-0.1
863.513	-0.11
863.806	-0.1
864.099	-0.11
864.392	-0.11
864.685	-0.11
864.977	-0.11
865.27	-0.11
865.562	-0.12
865.855	-0.11
866.147	-0.12
866.44	-0.1
866.732	-0.11
867.024	-0.11
867.316	-0.12
867.608	-0.12
867.9	-0.12
868.192	-0.13
868.484	-0.12
868.776	-0.12
869.068	-0.12
869.359	-0.13
869.651	-0.14
869.943	-0.14
870.234	-0.14
870.526	-0.14
870.817	-0.14
871.108	-0.13
871.4	-0.13
871.691	-0.14
871.982	-0.16
872.273	-0.15
872.564	-0.15
872.855	-0.15
873.146	-0.15
873.437	-0.15
873.728	-0.16
874.019	-0.15
874.309	-0.16
874.6	-0.15
874.89	-0.16
875.181	-0.16
875.471	-0.16
875.762	-0.16
876.052	-0.17
876.342	-0.14
876.632	-0.16
876.922	-0.17
877.213	-0.17
877.503	-0.18
877.792	-0.17
878.082	-0.17
878.372	-0.16
878.662	-0.18
878.952	-0.16
879.241	-0.17
879.531	-0.16
879.82	-0.16
880.11	-0.17
880.399	-0.15
880.688	-0.15
880.978	-0.15
881.267	-0.15
