Data from 12-12-AQDScycling_Absorbance__300__00300.txt Node

Date: Tue Dec 12 12:11:44 EST 2023
User: kyuminlee
Spectrometer: FLMS00943
Trigger mode: 0
Integration Time (sec): 1.000000E-1
Scans to average: 1
Electric dark correction enabled: true
Nonlinearity correction enabled: false
Boxcar width: 0
XAxis mode: Wavelengths
Number of Pixels in Spectrum: 2048
>>>>>Begin Spectral Data<<<<<
179.651	-0
180.037	-0
180.424	-0
180.81	-0
181.197	0.4
181.583	0.3
181.97	-0.26
182.356	-1.06
182.743	-0
183.129	1.55
183.515	-0
183.901	-2.25
184.288	0.31
184.674	-0
185.06	-0.29
185.446	-0.3
185.832	-0.62
186.218	0.04
186.604	0.83
186.99	-0.34
187.376	-0
187.762	0.19
188.148	0.05
188.534	-0.53
188.92	0.02
189.305	-0.01
189.691	0.11
190.077	0.24
190.463	0.08
190.848	0.05
191.234	0.14
191.619	-0.01
192.005	0.03
192.391	0.03
192.776	0.05
193.161	0.13
193.547	0.1
193.932	0.03
194.318	0.02
194.703	0.09
195.088	0.24
195.473	0.34
195.859	0.29
196.244	0.18
196.629	0.04
197.014	0.14
197.399	0.1
197.784	0.06
198.169	0.02
198.554	0.2
198.939	0.12
199.324	0.14
199.709	0.22
200.094	0.11
200.478	-0.01
200.863	0.16
201.248	0.12
201.633	0.14
202.017	0.11
202.402	0.16
202.787	0.11
203.171	0.08
203.556	0.09
203.94	0.15
204.325	0.23
204.709	0.1
205.093	0.07
205.478	0.2
205.862	0.09
206.246	0.18
206.631	0.07
207.015	0.08
207.399	0.19
207.783	0.11
208.167	0.2
208.551	0.13
208.935	0.18
209.319	0.15
209.703	0.18
210.087	0.24
210.471	0.13
210.855	0.16
211.239	0.16
211.623	0.28
212.007	0.22
212.39	0.19
212.774	0.13
213.158	0.17
213.541	0.15
213.925	0.3
214.309	0.18
214.692	0.3
215.076	0.17
215.459	0.1
215.842	0.09
216.226	0.23
216.609	0.23
216.993	0.3
217.376	0.44
217.759	0.16
218.142	0.35
218.525	0.37
218.909	0.3
219.292	0.31
219.675	0.52
220.058	0.47
220.441	0.63
220.824	0.44
221.207	0.55
221.59	0.48
221.973	0.46
222.355	0.6
222.738	0.74
223.121	0.66
223.504	0.58
223.886	0.64
224.269	0.73
224.652	0.65
225.034	0.87
225.417	0.75
225.799	0.74
226.182	0.94
226.564	0.82
226.947	0.81
227.329	0.8
227.711	0.93
228.094	0.95
228.476	0.79
228.858	0.78
229.24	0.83
229.623	0.86
230.005	0.9
230.387	0.76
230.769	0.82
231.151	0.9
231.533	0.93
231.915	0.92
232.297	1.02
232.679	1.06
233.061	1.07
233.442	0.92
233.824	0.89
234.206	1.12
234.588	1.01
234.969	0.99
235.351	0.92
235.733	0.94
236.114	1.07
236.496	1.03
236.877	1.17
237.259	1.11
237.64	1.17
238.022	1.06
238.403	1.02
238.784	1
239.165	1.01
239.547	1.11
239.928	1.07
240.309	1.1
240.69	1.1
241.071	0.96
241.452	1.1
241.834	0.99
242.215	1.12
242.595	1.19
242.976	1.12
243.357	1.07
243.738	0.99
244.119	1.19
244.5	1.05
244.881	1.15
245.261	1.23
245.642	1.21
246.023	1.19
246.403	1.2
246.784	1.15
247.164	1.21
247.545	1.29
247.925	1.32
248.306	1.14
248.686	1.32
249.067	1.46
249.447	1.4
249.827	1.62
250.207	1.42
250.588	1.27
250.968	1.43
251.348	1.25
251.728	1.61
252.108	1.41
252.488	1.4
252.868	1.39
253.248	1.35
253.628	1.61
254.008	1.45
254.388	1.3
254.768	1.31
255.147	1.35
255.527	1.28
255.907	1.39
256.287	1.31
256.666	1.25
257.046	1.31
257.425	1.46
257.805	1.33
258.184	1.28
258.564	1.33
258.943	1.44
259.323	1.36
259.702	1.36
260.081	1.59
260.461	1.53
260.84	1.45
261.219	1.77
261.598	1.47
261.977	1.46
262.356	1.42
262.736	1.47
263.115	1.52
263.494	1.38
263.873	1.47
264.251	1.46
264.63	1.49
265.009	1.43
265.388	1.47
265.767	1.47
266.145	1.42
266.524	1.43
266.903	1.33
267.281	1.47
267.66	1.35
268.039	1.39
268.417	1.33
268.796	1.41
269.174	1.43
269.552	1.4
269.931	1.41
270.309	1.37
270.687	1.61
271.066	1.57
271.444	1.31
271.822	1.49
272.2	1.41
272.578	1.44
272.956	1.55
273.334	1.29
273.712	1.45
274.09	1.34
274.468	1.26
274.846	1.31
275.224	1.28
275.602	1.37
275.98	1.58
276.357	1.31
276.735	1.44
277.113	1.31
277.49	1.44
277.868	1.28
278.246	1.31
278.623	1.22
279.001	1.37
279.378	1.44
279.756	1.42
280.133	1.58
280.51	1.35
280.888	1.44
281.265	1.34
281.642	1.44
282.019	1.41
282.396	1.56
282.773	1.47
283.151	1.51
283.528	1.6
283.905	1.46
284.282	1.46
284.659	1.51
285.035	1.23
285.412	1.29
285.789	1.5
286.166	1.38
286.543	1.39
286.919	1.51
287.296	1.36
287.673	1.65
288.049	1.5
288.426	1.64
288.802	1.51
289.179	1.4
289.555	1.62
289.932	1.39
290.308	1.26
290.684	1.29
291.061	1.34
291.437	1.59
291.813	1.37
292.189	1.23
292.565	1.28
292.942	1.36
293.318	1.34
293.694	1.41
294.07	1.31
294.446	1.43
294.822	1.65
295.197	1.46
295.573	1.5
295.949	1.51
296.325	1.41
296.701	1.47
297.076	1.49
297.452	1.52
297.828	1.42
298.203	1.53
298.579	1.46
298.954	1.51
299.33	1.4
299.705	1.42
300.081	1.49
300.456	1.45
300.831	1.37
301.206	1.4
301.582	1.41
301.957	1.35
302.332	1.44
302.707	1.34
303.082	1.35
303.457	1.39
303.832	1.35
304.207	1.22
304.582	1.32
304.957	1.37
305.332	1.35
305.707	1.37
306.082	1.32
306.456	1.34
306.831	1.26
307.206	1.29
307.58	1.3
307.955	1.28
308.33	1.22
308.704	1.37
309.079	1.27
309.453	1.28
309.828	1.25
310.202	1.29
310.576	1.23
310.951	1.35
311.325	1.3
311.699	1.23
312.073	1.15
312.447	1.25
312.821	1.21
313.196	1.26
313.57	1.2
313.944	1.21
314.317	1.15
314.691	1.23
315.065	1.25
315.439	1.23
315.813	1.28
316.187	1.21
316.56	1.3
316.934	1.28
317.308	1.19
317.681	1.27
318.055	1.31
318.428	1.18
318.802	1.23
319.175	1.28
319.549	1.16
319.922	1.19
320.295	1.2
320.669	1.3
321.042	1.31
321.415	1.44
321.788	1.28
322.162	1.26
322.535	1.27
322.908	1.36
323.281	1.26
323.654	1.36
324.027	1.23
324.4	1.32
324.773	1.31
325.145	1.38
325.518	1.2
325.891	1.27
326.264	1.45
326.636	1.3
327.009	1.27
327.382	1.35
327.754	1.36
328.127	1.21
328.499	1.31
328.872	1.24
329.244	1.29
329.616	1.29
329.989	1.27
330.361	1.31
330.733	1.27
331.106	1.17
331.478	1.4
331.85	1.24
332.222	1.27
332.594	1.28
332.966	1.33
333.338	1.36
333.71	1.34
334.082	1.45
334.454	1.29
334.826	1.29
335.197	1.33
335.569	1.34
335.941	1.23
336.312	1.3
336.684	1.26
337.056	1.27
337.427	1.3
337.799	1.36
338.17	1.37
338.542	1.27
338.913	1.45
339.284	1.35
339.656	1.28
340.027	1.29
340.398	1.4
340.769	1.35
341.141	1.5
341.512	1.31
341.883	1.37
342.254	1.32
342.625	1.34
342.996	1.27
343.367	1.31
343.738	1.35
344.108	1.27
344.479	1.49
344.85	1.31
345.221	1.55
345.591	1.29
345.962	1.2
346.333	1.32
346.703	1.22
347.074	1.34
347.444	1.29
347.815	1.41
348.185	1.27
348.556	1.22
348.926	1.31
349.296	1.23
349.666	1.23
350.037	1.14
350.407	1.22
350.777	1.21
351.147	1.25
351.517	1.25
351.887	1.3
352.257	1.35
352.627	1.3
352.997	1.23
353.367	1.33
353.737	1.38
354.106	1.36
354.476	1.27
354.846	1.32
355.216	1.37
355.585	1.32
355.955	1.36
356.324	1.34
356.694	1.32
357.063	1.34
357.433	1.25
357.802	1.37
358.171	1.36
358.541	1.33
358.91	1.41
359.279	1.42
359.648	1.34
360.017	1.43
360.387	1.42
360.756	1.32
361.125	1.47
361.494	1.42
361.863	1.38
362.231	1.38
362.6	1.43
362.969	1.43
363.338	1.38
363.707	1.51
364.075	1.57
364.444	1.31
364.813	1.38
365.181	1.38
365.55	1.41
365.918	1.54
366.287	1.5
366.655	1.55
367.024	1.5
367.392	1.43
367.76	1.42
368.128	1.42
368.497	1.46
368.865	1.41
369.233	1.48
369.601	1.46
369.969	1.46
370.337	1.53
370.705	1.37
371.073	1.44
371.441	1.35
371.809	1.43
372.177	1.39
372.544	1.49
372.912	1.58
373.28	1.43
373.647	1.53
374.015	1.52
374.383	1.62
374.75	1.5
375.118	1.51
375.485	1.63
375.853	1.66
376.22	1.51
376.587	1.57
376.955	1.63
377.322	1.58
377.689	1.72
378.056	1.4
378.423	1.53
378.79	1.55
379.157	1.55
379.524	1.49
379.891	1.43
380.258	1.6
380.625	1.54
380.992	1.53
381.359	1.49
381.726	1.68
382.092	1.45
382.459	1.5
382.826	1.47
383.192	1.5
383.559	1.5
383.925	1.58
384.292	1.48
384.658	1.72
385.025	1.57
385.391	1.67
385.757	1.52
386.123	1.55
386.49	1.43
386.856	1.62
387.222	1.67
387.588	1.56
387.954	1.6
388.32	1.51
388.686	1.7
389.052	1.59
389.418	1.56
389.784	1.54
390.15	1.66
390.515	1.35
390.881	1.66
391.247	1.62
391.613	1.67
391.978	1.53
392.344	1.6
392.709	1.54
393.075	1.46
393.44	1.76
393.806	1.53
394.171	1.51
394.536	1.57
394.902	1.53
395.267	1.48
395.632	1.44
395.997	1.47
396.362	1.45
396.727	1.6
397.092	1.47
397.457	1.47
397.822	1.55
398.187	1.62
398.552	1.44
398.917	1.51
399.282	1.47
399.646	1.51
400.011	1.55
400.376	1.43
400.74	1.46
401.105	1.52
401.47	1.65
401.834	1.54
402.199	1.49
402.563	1.49
402.927	1.48
403.292	1.54
403.656	1.52
404.02	1.57
404.384	1.67
404.749	1.53
405.113	1.63
405.477	1.58
405.841	1.54
406.205	1.53
406.569	1.47
406.933	1.52
407.296	1.48
407.66	1.46
408.024	1.56
408.388	1.46
408.752	1.47
409.115	1.56
409.479	1.61
409.842	1.53
410.206	1.38
410.569	1.48
410.933	1.57
411.296	1.43
411.66	1.52
412.023	1.31
412.386	1.43
412.749	1.33
413.113	1.53
413.476	1.52
413.839	1.35
414.202	1.36
414.565	1.3
414.928	1.31
415.291	1.32
415.654	1.32
416.017	1.4
416.38	1.3
416.742	1.43
417.105	1.31
417.468	1.32
417.83	1.36
418.193	1.53
418.556	1.41
418.918	1.27
419.281	1.38
419.643	1.31
420.005	1.39
420.368	1.39
420.73	1.25
421.092	1.35
421.455	1.43
421.817	1.28
422.179	1.38
422.541	1.39
422.903	1.44
423.265	1.35
423.627	1.36
423.989	1.4
424.351	1.31
424.713	1.32
425.075	1.35
425.436	1.31
425.798	1.39
426.16	1.42
426.521	1.34
426.883	1.36
427.245	1.35
427.606	1.3
427.967	1.26
428.329	1.27
428.69	1.38
429.052	1.3
429.413	1.43
429.774	1.43
430.135	1.37
430.497	1.31
430.858	1.26
431.219	1.37
431.58	1.25
431.941	1.29
432.302	1.3
432.663	1.31
433.024	1.37
433.384	1.37
433.745	1.25
434.106	1.3
434.467	1.29
434.827	1.34
435.188	1.23
435.548	1.29
435.909	1.25
436.269	1.28
436.63	1.25
436.99	1.21
437.351	1.17
437.711	1.23
438.071	1.2
438.431	1.2
438.792	1.24
439.152	1.25
439.512	1.23
439.872	1.23
440.232	1.22
440.592	1.22
440.952	1.24
441.312	1.15
441.671	1.19
442.031	1.19
442.391	1.17
442.751	1.17
443.11	1.17
443.47	1.12
443.83	1.09
444.189	1.13
444.549	1.18
444.908	1.12
445.267	1.09
445.627	1.13
445.986	1.12
446.345	1.1
446.705	1.09
447.064	1.11
447.423	1.08
447.782	1.13
448.141	1.08
448.5	1.03
448.859	1.06
449.218	1.02
449.577	1.07
449.936	1.06
450.295	1.04
450.653	1.04
451.012	1.03
451.371	1.03
451.729	1.02
452.088	0.98
452.447	1.02
452.805	0.98
453.163	0.97
453.522	1.01
453.88	0.97
454.239	0.97
454.597	0.94
454.955	0.95
455.313	0.93
455.671	0.92
456.029	0.94
456.388	0.92
456.746	0.91
457.104	0.88
457.461	0.87
457.819	0.88
458.177	0.87
458.535	0.86
458.893	0.84
459.25	0.83
459.608	0.83
459.966	0.81
460.323	0.81
460.681	0.78
461.038	0.79
461.396	0.76
461.753	0.75
462.111	0.75
462.468	0.73
462.825	0.73
463.182	0.72
463.54	0.71
463.897	0.71
464.254	0.7
464.611	0.69
464.968	0.68
465.325	0.68
465.682	0.66
466.039	0.66
466.395	0.64
466.752	0.64
467.109	0.63
467.466	0.62
467.822	0.63
468.179	0.59
468.535	0.6
468.892	0.59
469.248	0.58
469.605	0.56
469.961	0.57
470.318	0.57
470.674	0.55
471.03	0.55
471.386	0.54
471.743	0.53
472.099	0.52
472.455	0.52
472.811	0.5
473.167	0.51
473.523	0.49
473.879	0.48
474.235	0.47
474.59	0.47
474.946	0.46
475.302	0.45
475.657	0.45
476.013	0.44
476.369	0.43
476.724	0.43
477.08	0.43
477.435	0.41
477.791	0.41
478.146	0.41
478.501	0.4
478.857	0.4
479.212	0.4
479.567	0.39
479.922	0.37
480.277	0.37
480.632	0.37
480.987	0.36
481.342	0.36
481.697	0.35
482.052	0.34
482.407	0.34
482.762	0.34
483.116	0.33
483.471	0.32
483.826	0.32
484.18	0.32
484.535	0.32
484.89	0.3
485.244	0.31
485.598	0.3
485.953	0.3
486.307	0.29
486.661	0.3
487.016	0.28
487.37	0.29
487.724	0.28
488.078	0.28
488.432	0.27
488.786	0.27
489.14	0.27
489.494	0.26
489.848	0.26
490.202	0.25
490.556	0.25
490.91	0.24
491.263	0.24
491.617	0.24
491.971	0.24
492.324	0.23
492.678	0.24
493.031	0.24
493.385	0.23
493.738	0.23
494.091	0.23
494.445	0.23
494.798	0.23
495.151	0.23
495.504	0.22
495.857	0.22
496.21	0.22
496.564	0.21
496.916	0.22
497.269	0.21
497.622	0.21
497.975	0.21
498.328	0.21
498.681	0.21
499.033	0.2
499.386	0.21
499.739	0.2
500.091	0.2
500.444	0.19
500.796	0.2
501.149	0.19
501.501	0.19
501.854	0.19
502.206	0.19
502.558	0.19
502.91	0.19
503.263	0.18
503.615	0.18
503.967	0.18
504.319	0.18
504.671	0.18
505.023	0.18
505.375	0.17
505.726	0.18
506.078	0.18
506.43	0.17
506.782	0.17
507.133	0.17
507.485	0.18
507.837	0.18
508.188	0.18
508.54	0.17
508.891	0.18
509.243	0.17
509.594	0.17
509.945	0.17
510.296	0.16
510.648	0.17
510.999	0.16
511.35	0.17
511.701	0.16
512.052	0.17
512.403	0.17
512.754	0.16
513.105	0.17
513.456	0.16
513.807	0.16
514.157	0.17
514.508	0.17
514.859	0.16
515.209	0.17
515.56	0.16
515.91	0.16
516.261	0.17
516.611	0.15
516.962	0.16
517.312	0.16
517.662	0.16
518.013	0.16
518.363	0.16
518.713	0.16
519.063	0.16
519.413	0.16
519.763	0.16
520.113	0.16
520.463	0.16
520.813	0.16
521.163	0.16
521.512	0.16
521.862	0.16
522.212	0.16
522.562	0.17
522.911	0.16
523.261	0.15
523.61	0.16
523.96	0.16
524.309	0.16
524.658	0.16
525.008	0.15
525.357	0.16
525.706	0.16
526.056	0.16
526.405	0.16
526.754	0.16
527.103	0.16
527.452	0.16
527.801	0.16
528.15	0.16
528.499	0.16
528.847	0.17
529.196	0.17
529.545	0.16
529.893	0.16
530.242	0.16
530.591	0.17
530.939	0.17
531.288	0.16
531.636	0.17
531.985	0.17
532.333	0.17
532.681	0.17
533.029	0.16
533.378	0.17
533.726	0.16
534.074	0.18
534.422	0.16
534.77	0.17
535.118	0.17
535.466	0.17
535.814	0.16
536.162	0.16
536.509	0.17
536.857	0.16
537.205	0.17
537.552	0.17
537.9	0.17
538.248	0.16
538.595	0.17
538.943	0.18
539.29	0.18
539.637	0.17
539.985	0.17
540.332	0.16
540.679	0.17
541.026	0.16
541.373	0.17
541.721	0.16
542.068	0.16
542.415	0.16
542.762	0.16
543.108	0.15
543.455	0.15
543.802	0.15
544.149	0.16
544.496	0.15
544.842	0.16
545.189	0.15
545.535	0.15
545.882	0.16
546.228	0.15
546.575	0.15
546.921	0.15
547.267	0.16
547.614	0.16
547.96	0.15
548.306	0.15
548.652	0.15
548.998	0.16
549.344	0.16
549.69	0.16
550.036	0.16
550.382	0.15
550.728	0.16
551.074	0.16
551.42	0.16
551.765	0.16
552.111	0.16
552.457	0.17
552.802	0.16
553.148	0.16
553.493	0.17
553.839	0.16
554.184	0.17
554.529	0.16
554.875	0.17
555.22	0.16
555.565	0.16
555.91	0.16
556.255	0.17
556.6	0.17
556.945	0.16
557.29	0.16
557.635	0.17
557.98	0.16
558.325	0.17
558.67	0.17
559.014	0.17
559.359	0.16
559.704	0.17
560.048	0.15
560.393	0.17
560.737	0.15
561.082	0.17
561.426	0.16
561.77	0.15
562.115	0.16
562.459	0.16
562.803	0.16
563.147	0.16
563.491	0.17
563.835	0.16
564.179	0.16
564.523	0.15
564.867	0.16
565.211	0.16
565.555	0.16
565.899	0.17
566.242	0.17
566.586	0.16
566.93	0.16
567.273	0.17
567.617	0.17
567.96	0.16
568.304	0.17
568.647	0.16
568.99	0.17
569.334	0.17
569.677	0.16
570.02	0.17
570.363	0.17
570.706	0.16
571.049	0.17
571.392	0.16
571.735	0.16
572.078	0.16
572.421	0.17
572.764	0.16
573.106	0.16
573.449	0.16
573.792	0.16
574.134	0.17
574.477	0.17
574.819	0.16
575.162	0.16
575.504	0.16
575.847	0.16
576.189	0.16
576.531	0.17
576.873	0.16
577.215	0.17
577.558	0.17
577.9	0.16
578.242	0.16
578.584	0.17
578.926	0.16
579.267	0.17
579.609	0.16
579.951	0.17
580.293	0.17
580.634	0.17
580.976	0.16
581.318	0.16
581.659	0.16
582.001	0.16
582.342	0.16
582.683	0.16
583.025	0.15
583.366	0.16
583.707	0.16
584.049	0.17
584.39	0.16
584.731	0.16
585.072	0.16
585.413	0.16
585.754	0.17
586.095	0.16
586.435	0.16
586.776	0.16
587.117	0.16
587.458	0.16
587.798	0.16
588.139	0.17
588.48	0.16
588.82	0.16
589.161	0.16
589.501	0.16
589.841	0.16
590.182	0.16
590.522	0.16
590.862	0.16
591.202	0.16
591.542	0.16
591.882	0.15
592.222	0.16
592.562	0.16
592.902	0.16
593.242	0.16
593.582	0.16
593.922	0.16
594.261	0.15
594.601	0.15
594.941	0.16
595.28	0.16
595.62	0.16
595.959	0.16
596.299	0.15
596.638	0.16
596.977	0.15
597.317	0.17
597.656	0.15
597.995	0.16
598.334	0.17
598.673	0.16
599.012	0.15
599.351	0.16
599.69	0.15
600.029	0.16
600.368	0.16
600.707	0.16
601.046	0.16
601.384	0.16
601.723	0.16
602.061	0.16
602.4	0.16
602.738	0.17
603.077	0.16
603.415	0.16
603.754	0.16
604.092	0.16
604.43	0.16
604.768	0.16
605.107	0.15
605.445	0.16
605.783	0.16
606.121	0.16
606.459	0.15
606.796	0.15
607.134	0.15
607.472	0.15
607.81	0.16
608.148	0.15
608.485	0.16
608.823	0.15
609.16	0.15
609.498	0.15
609.835	0.15
610.173	0.15
610.51	0.16
610.847	0.16
611.185	0.16
611.522	0.16
611.859	0.16
612.196	0.16
612.533	0.16
612.87	0.16
613.207	0.16
613.544	0.17
613.881	0.16
614.217	0.16
614.554	0.16
614.891	0.17
615.228	0.16
615.564	0.17
615.901	0.16
616.237	0.16
616.574	0.16
616.91	0.17
617.246	0.16
617.583	0.16
617.919	0.17
618.255	0.17
618.591	0.16
618.927	0.17
619.263	0.17
619.599	0.17
619.935	0.17
620.271	0.16
620.607	0.16
620.943	0.16
621.279	0.17
621.614	0.16
621.95	0.16
622.286	0.16
622.621	0.15
622.957	0.16
623.292	0.15
623.627	0.15
623.963	0.15
624.298	0.16
624.633	0.14
624.968	0.15
625.304	0.15
625.639	0.15
625.974	0.14
626.309	0.15
626.644	0.15
626.979	0.15
627.313	0.15
627.648	0.14
627.983	0.15
628.318	0.14
628.652	0.14
628.987	0.14
629.321	0.15
629.656	0.14
629.99	0.14
630.325	0.15
630.659	0.14
630.993	0.14
631.327	0.14
631.662	0.13
631.996	0.14
632.33	0.14
632.664	0.15
632.998	0.14
633.332	0.13
633.666	0.14
633.999	0.14
634.333	0.14
634.667	0.13
635.001	0.14
635.334	0.14
635.668	0.14
636.001	0.13
636.335	0.14
636.668	0.14
637.001	0.13
637.335	0.14
637.668	0.13
638.001	0.13
638.334	0.14
638.668	0.13
639.001	0.13
639.334	0.13
639.667	0.13
639.999	0.13
640.332	0.13
640.665	0.13
640.998	0.13
641.331	0.12
641.663	0.12
641.996	0.12
642.328	0.13
642.661	0.12
642.993	0.12
643.326	0.13
643.658	0.12
643.99	0.12
644.323	0.12
644.655	0.12
644.987	0.12
645.319	0.13
645.651	0.13
645.983	0.13
646.315	0.13
646.647	0.13
646.979	0.14
647.31	0.13
647.642	0.13
647.974	0.13
648.305	0.14
648.637	0.14
648.968	0.13
649.3	0.14
649.631	0.13
649.963	0.13
650.294	0.14
650.625	0.13
650.957	0.14
651.288	0.14
651.619	0.14
651.95	0.14
652.281	0.13
652.612	0.13
652.943	0.14
653.274	0.14
653.604	0.13
653.935	0.13
654.266	0.13
654.596	0.13
654.927	0.13
655.258	0.14
655.588	0.13
655.918	0.14
656.249	0.11
656.579	0.13
656.909	0.13
657.24	0.13
657.57	0.14
657.9	0.13
658.23	0.13
658.56	0.13
658.89	0.14
659.22	0.13
659.55	0.14
659.88	0.14
660.209	0.13
660.539	0.14
660.869	0.14
661.198	0.14
661.528	0.14
661.857	0.13
662.187	0.14
662.516	0.14
662.846	0.13
663.175	0.13
663.504	0.13
663.833	0.13
664.163	0.13
664.492	0.13
664.821	0.13
665.15	0.12
665.479	0.13
665.807	0.13
666.136	0.12
666.465	0.12
666.794	0.12
667.122	0.12
667.451	0.12
667.78	0.12
668.108	0.13
668.437	0.12
668.765	0.12
669.093	0.13
669.422	0.12
669.75	0.12
670.078	0.12
670.406	0.12
670.734	0.12
671.062	0.12
671.39	0.12
671.718	0.12
672.046	0.12
672.374	0.12
672.702	0.12
673.029	0.12
673.357	0.12
673.685	0.13
674.012	0.12
674.34	0.12
674.667	0.12
674.995	0.13
675.322	0.12
675.649	0.12
675.977	0.12
676.304	0.12
676.631	0.12
676.958	0.11
677.285	0.11
677.612	0.11
677.939	0.12
678.266	0.12
678.593	0.12
678.92	0.12
679.246	0.12
679.573	0.12
679.9	0.11
680.226	0.12
680.553	0.11
680.879	0.11
681.206	0.12
681.532	0.11
681.858	0.11
682.184	0.11
682.511	0.1
682.837	0.1
683.163	0.11
683.489	0.11
683.815	0.1
684.141	0.11
684.467	0.11
684.793	0.11
685.118	0.1
685.444	0.11
685.77	0.11
686.095	0.11
686.421	0.11
686.746	0.12
687.072	0.11
687.397	0.11
687.723	0.11
688.048	0.11
688.373	0.11
688.698	0.12
689.023	0.11
689.349	0.11
689.674	0.12
689.999	0.1
690.323	0.1
690.648	0.1
690.973	0.1
691.298	0.1
691.623	0.1
691.947	0.1
692.272	0.1
692.596	0.1
692.921	0.1
693.245	0.1
693.57	0.1
693.894	0.1
694.218	0.1
694.543	0.09
694.867	0.1
695.191	0.09
695.515	0.1
695.839	0.1
696.163	0.1
696.487	0.1
696.811	0.1
697.135	0.1
697.458	0.1
697.782	0.1
698.106	0.1
698.429	0.09
698.753	0.1
699.076	0.1
699.4	0.1
699.723	0.1
700.046	0.09
700.37	0.1
700.693	0.1
701.016	0.1
701.339	0.1
701.662	0.1
701.985	0.1
702.308	0.09
702.631	0.1
702.954	0.1
703.277	0.09
703.599	0.1
703.922	0.09
704.245	0.09
704.567	0.09
704.89	0.09
705.212	0.1
705.535	0.09
705.857	0.09
706.179	0.08
706.502	0.08
706.824	0.08
707.146	0.08
707.468	0.08
707.79	0.09
708.112	0.09
708.434	0.08
708.756	0.09
709.078	0.09
709.399	0.08
709.721	0.09
710.043	0.09
710.364	0.09
710.686	0.09
711.007	0.09
711.329	0.1
711.65	0.09
711.972	0.09
712.293	0.09
712.614	0.09
712.935	0.09
713.256	0.09
713.577	0.09
713.898	0.09
714.219	0.09
714.54	0.08
714.861	0.08
715.182	0.08
715.503	0.08
715.823	0.08
716.144	0.08
716.464	0.08
716.785	0.08
717.105	0.07
717.426	0.08
717.746	0.08
718.066	0.07
718.387	0.07
718.707	0.07
719.027	0.07
719.347	0.07
719.667	0.08
719.987	0.06
720.307	0.07
720.627	0.07
720.947	0.07
721.266	0.07
721.586	0.07
721.906	0.06
722.225	0.06
722.545	0.06
722.864	0.06
723.184	0.07
723.503	0.06
723.823	0.07
724.142	0.06
724.461	0.07
724.78	0.07
725.099	0.06
725.418	0.06
725.737	0.07
726.056	0.06
726.375	0.07
726.694	0.07
727.013	0.07
727.331	0.07
727.65	0.06
727.969	0.07
728.287	0.07
728.606	0.08
728.924	0.06
729.242	0.07
729.561	0.07
729.879	0.06
730.197	0.06
730.515	0.06
730.834	0.07
731.152	0.06
731.47	0.07
731.788	0.06
732.105	0.06
732.423	0.07
732.741	0.06
733.059	0.06
733.376	0.07
733.694	0.06
734.012	0.06
734.329	0.07
734.647	0.06
734.964	0.07
735.281	0.06
735.599	0.08
735.916	0.07
736.233	0.06
736.55	0.06
736.867	0.06
737.184	0.07
737.501	0.06
737.818	0.07
738.135	0.07
738.452	0.06
738.768	0.06
739.085	0.07
739.402	0.06
739.718	0.06
740.035	0.07
740.351	0.07
740.668	0.07
740.984	0.07
741.3	0.07
741.617	0.07
741.933	0.07
742.249	0.06
742.565	0.06
742.881	0.07
743.197	0.07
743.513	0.07
743.829	0.06
744.144	0.06
744.46	0.06
744.776	0.07
745.091	0.05
745.407	0.06
745.722	0.06
746.038	0.06
746.353	0.05
746.669	0.07
746.984	0.06
747.299	0.06
747.614	0.07
747.93	0.07
748.245	0.07
748.56	0.06
748.875	0.07
749.189	0.07
749.504	0.06
749.819	0.06
750.134	0.06
750.448	0.07
750.763	0.06
751.078	0.06
751.392	0.07
751.707	0.07
752.021	0.08
752.335	0.07
752.65	0.06
752.964	0.07
753.278	0.06
753.592	0.06
753.906	0.06
754.22	0.06
754.534	0.06
754.848	0.06
755.162	0.06
755.476	0.07
755.789	0.06
756.103	0.06
756.417	0.07
756.73	0.07
757.044	0.06
757.357	0.07
757.671	0.06
757.984	0.07
758.297	0.07
758.61	0.07
758.924	0.07
759.237	0.06
759.55	0.07
759.863	0.07
760.176	0.06
760.488	0.06
760.801	0.06
761.114	0.06
761.427	0.06
761.739	0.07
762.052	0.05
762.365	0.06
762.677	0.06
762.99	0.05
763.302	0.06
763.614	0.06
763.926	0.07
764.239	0.06
764.551	0.05
764.863	0.06
765.175	0.06
765.487	0.06
765.799	0.05
766.111	0.05
766.423	0.05
766.734	0.05
767.046	0.06
767.358	0.06
767.669	0.05
767.981	0.05
768.292	0.05
768.604	0.06
768.915	0.05
769.226	0.06
769.537	0.04
769.849	0.06
770.16	0.05
770.471	0.05
770.782	0.05
771.093	0.05
771.404	0.04
771.715	0.05
772.025	0.05
772.336	0.05
772.647	0.04
772.957	0.04
773.268	0.05
773.578	0.04
773.889	0.05
774.199	0.05
774.51	0.05
774.82	0.05
775.13	0.05
775.44	0.05
775.75	0.05
776.06	0.05
776.37	0.05
776.68	0.05
776.99	0.05
777.3	0.05
777.61	0.06
777.92	0.05
778.229	0.05
778.539	0.05
778.848	0.05
779.158	0.06
779.467	0.06
779.777	0.05
780.086	0.06
780.395	0.04
780.704	0.05
781.013	0.04
781.323	0.04
781.632	0.05
781.941	0.05
782.249	0.05
782.558	0.04
782.867	0.05
783.176	0.04
783.485	0.04
783.793	0.05
784.102	0.04
784.41	0.04
784.719	0.04
785.027	0.05
785.335	0.04
785.644	0.05
785.952	0.04
786.26	0.05
786.568	0.04
786.876	0.04
787.184	0.05
787.492	0.04
787.8	0.05
788.108	0.05
788.416	0.05
788.723	0.05
789.031	0.03
789.338	0.04
789.646	0.03
789.953	0.04
790.261	0.04
790.568	0.04
790.876	0.06
791.183	0.05
791.49	0.04
791.797	0.05
792.104	0.04
792.411	0.05
792.718	0.04
793.025	0.05
793.332	0.05
793.639	0.05
793.945	0.06
794.252	0.05
794.559	0.05
794.865	0.07
795.172	0.05
795.478	0.05
795.784	0.05
796.091	0.05
796.397	0.06
796.703	0.06
797.009	0.06
797.315	0.06
797.622	0.05
797.927	0.05
798.233	0.05
798.539	0.06
798.845	0.06
799.151	0.05
799.456	0.06
799.762	0.05
800.068	0.05
800.373	0.06
800.679	0.05
800.984	0.06
801.289	0.05
801.595	0.05
801.9	0.04
802.205	0.04
802.51	0.05
802.815	0.05
803.12	0.05
803.425	0.05
803.73	0.05
804.035	0.05
804.339	0.05
804.644	0.04
804.949	0.05
805.253	0.05
805.558	0.05
805.862	0.05
806.167	0.04
806.471	0.05
806.775	0.05
807.08	0.05
807.384	0.05
807.688	0.06
807.992	0.05
808.296	0.05
808.6	0.04
808.904	0.06
809.207	0.04
809.511	0.06
809.815	0.06
810.119	0.06
810.422	0.05
810.726	0.06
811.029	0.07
811.332	0.06
811.636	0.07
811.939	0.06
812.242	0.06
812.546	0.06
812.849	0.05
813.152	0.05
813.455	0.06
813.758	0.06
814.06	0.05
814.363	0.05
814.666	0.05
814.969	0.06
815.271	0.05
815.574	0.05
815.877	0.05
816.179	0.05
816.481	0.05
816.784	0.05
817.086	0.05
817.388	0.04
817.69	0.04
817.993	0.03
818.295	0.04
818.597	0.04
818.899	0.04
819.2	0.03
819.502	0.04
819.804	0.04
820.106	0.03
820.407	0.04
820.709	0.04
821.01	0.04
821.312	0.05
821.613	0.03
821.915	0.04
822.216	0.04
822.517	0.04
822.818	0.04
823.119	0.04
823.42	0.04
823.721	0.03
824.022	0.04
824.323	0.04
824.624	0.04
824.925	0.04
825.226	0.04
825.526	0.03
825.827	0.04
826.127	0.04
826.428	0.04
826.728	0.03
827.028	0.03
827.329	0.03
827.629	0.04
827.929	0.04
828.229	0.03
828.529	0.04
828.829	0.04
829.129	0.04
829.429	0.04
829.729	0.03
830.029	0.03
830.328	0.04
830.628	0.04
830.927	0.02
831.227	0.03
831.526	0.03
831.826	0.03
832.125	0.03
832.424	0.03
832.724	0.03
833.023	0.03
833.322	0.03
833.621	0.02
833.92	0.02
834.219	0.03
834.518	0.03
834.816	0.02
835.115	0.03
835.414	0.01
835.712	0.03
836.011	0.02
836.309	0.02
836.608	0.02
836.906	0.02
837.205	0.01
837.503	0.01
837.801	0.01
838.099	0.01
838.397	0
838.695	0
838.993	0
839.291	-0
839.589	-0
839.887	0.01
840.184	-0.01
840.482	-0.01
840.78	-0
841.077	-0.01
841.375	-0.01
841.672	-0.01
841.969	-0.01
842.267	-0.01
842.564	-0.02
842.861	-0
843.158	-0.02
843.455	-0.03
843.752	-0.03
844.049	-0.02
844.346	-0.03
844.643	-0.03
844.94	-0.03
845.236	-0.02
845.533	-0.03
845.83	-0.03
846.126	-0.04
846.423	-0.05
846.719	-0.05
847.015	-0.05
847.312	-0.05
847.608	-0.06
847.904	-0.05
848.2	-0.05
848.496	-0.05
848.792	-0.05
849.088	-0.04
849.384	-0.06
849.68	-0.06
849.975	-0.06
850.271	-0.07
850.567	-0.06
850.862	-0.07
851.158	-0.07
851.453	-0.06
851.748	-0.07
852.044	-0.07
852.339	-0.06
852.634	-0.09
852.929	-0.06
853.224	-0.07
853.519	-0.07
853.814	-0.07
854.109	-0.08
854.404	-0.08
854.699	-0.07
854.994	-0.07
855.288	-0.07
855.583	-0.07
855.877	-0.08
856.172	-0.07
856.466	-0.08
856.76	-0.07
857.055	-0.08
857.349	-0.09
857.643	-0.09
857.937	-0.09
858.231	-0.1
858.525	-0.1
858.819	-0.09
859.113	-0.11
859.407	-0.11
859.701	-0.1
859.994	-0.1
860.288	-0.09
860.581	-0.11
860.875	-0.11
861.168	-0.11
861.462	-0.11
861.755	-0.1
862.048	-0.11
862.341	-0.11
862.634	-0.11
862.928	-0.1
863.221	-0.11
863.513	-0.12
863.806	-0.12
864.099	-0.13
864.392	-0.12
864.685	-0.11
864.977	-0.11
865.27	-0.12
865.562	-0.12
865.855	-0.12
866.147	-0.13
866.44	-0.11
866.732	-0.13
867.024	-0.13
867.316	-0.13
867.608	-0.13
867.9	-0.13
868.192	-0.13
868.484	-0.14
868.776	-0.15
869.068	-0.14
869.359	-0.13
869.651	-0.15
869.943	-0.16
870.234	-0.16
870.526	-0.16
870.817	-0.16
871.108	-0.15
871.4	-0.17
871.691	-0.16
871.982	-0.16
872.273	-0.18
872.564	-0.16
872.855	-0.16
873.146	-0.17
873.437	-0.17
873.728	-0.18
874.019	-0.17
874.309	-0.17
874.6	-0.16
874.89	-0.18
875.181	-0.17
875.471	-0.16
875.762	-0.17
876.052	-0.16
876.342	-0.17
876.632	-0.16
876.922	-0.16
877.213	-0.18
877.503	-0.19
877.792	-0.17
878.082	-0.17
878.372	-0.17
878.662	-0.19
878.952	-0.19
879.241	-0.17
879.531	-0.18
879.82	-0.19
880.11	-0.17
880.399	-0.18
880.688	-0.17
880.978	-0.17
881.267	-0.17
