Data from 12-12-AQDScycling_Absorbance__629__00629.txt Node

Date: Tue Dec 12 13:33:59 EST 2023
User: kyuminlee
Spectrometer: FLMS00943
Trigger mode: 0
Integration Time (sec): 1.000000E-1
Scans to average: 1
Electric dark correction enabled: true
Nonlinearity correction enabled: false
Boxcar width: 0
XAxis mode: Wavelengths
Number of Pixels in Spectrum: 2048
>>>>>Begin Spectral Data<<<<<
179.651	-0
180.037	-0
180.424	-0
180.81	-0
181.197	0.27
181.583	-0.01
181.97	-0.34
182.356	-0
182.743	-0.29
183.129	0.62
183.515	0.61
183.901	-2.25
184.288	0.35
184.674	0.06
185.06	-0.77
185.446	0.26
185.832	-1.23
186.218	0.17
186.604	-0
186.99	-0
187.376	-0
187.762	-0.05
188.148	0.47
188.534	-0.2
188.92	-0.01
189.305	0.12
189.691	0.13
190.077	0.21
190.463	0.18
190.848	0.14
191.234	0.1
191.619	0.06
192.005	0.08
192.391	0.04
192.776	0.15
193.161	0.15
193.547	0.28
193.932	0.06
194.318	-0.02
194.703	0.11
195.088	0.14
195.473	0.18
195.859	0.09
196.244	0.16
196.629	-0.03
197.014	0.02
197.399	0.17
197.784	0.17
198.169	0.21
198.554	0.41
198.939	0.14
199.324	0.14
199.709	0.15
200.094	0.18
200.478	0.07
200.863	0.19
201.248	0.21
201.633	0.18
202.017	0.16
202.402	0.36
202.787	0.2
203.171	0.03
203.556	0.38
203.94	0.13
204.325	0.2
204.709	0.13
205.093	0.16
205.478	0.17
205.862	0.09
206.246	0.19
206.631	0.1
207.015	0.08
207.399	0.11
207.783	0.13
208.167	0.24
208.551	0.17
208.935	0.19
209.319	0.2
209.703	0.2
210.087	0.32
210.471	0.13
210.855	0.12
211.239	0.15
211.623	0.3
212.007	0.14
212.39	0.24
212.774	0.15
213.158	0.08
213.541	0.31
213.925	0.19
214.309	0.25
214.692	0.17
215.076	0.17
215.459	0.18
215.842	0.18
216.226	0.19
216.609	0.2
216.993	0.28
217.376	0.46
217.759	0.2
218.142	0.34
218.525	0.49
218.909	0.45
219.292	0.26
219.675	0.42
220.058	0.35
220.441	0.56
220.824	0.41
221.207	0.68
221.59	0.49
221.973	0.56
222.355	0.64
222.738	0.73
223.121	0.54
223.504	0.48
223.886	0.68
224.269	0.75
224.652	0.65
225.034	0.76
225.417	0.79
225.799	0.87
226.182	0.93
226.564	0.78
226.947	0.71
227.329	0.74
227.711	0.84
228.094	0.93
228.476	0.94
228.858	0.74
229.24	0.82
229.623	0.87
230.005	0.8
230.387	0.75
230.769	0.85
231.151	0.87
231.533	1
231.915	0.97
232.297	1
232.679	0.98
233.061	0.94
233.442	1.02
233.824	1.08
234.206	1.1
234.588	1.22
234.969	1.01
235.351	1.03
235.733	1
236.114	1.28
236.496	1.07
236.877	1.06
237.259	1.08
237.64	1
238.022	1.04
238.403	1.06
238.784	1.08
239.165	1.05
239.547	1.07
239.928	0.93
240.309	1.02
240.69	1.05
241.071	1.01
241.452	1.09
241.834	1.16
242.215	1.04
242.595	1.08
242.976	1.12
243.357	1.19
243.738	1.01
244.119	1.45
244.5	1.27
244.881	1.29
245.261	1.16
245.642	1.19
246.023	1.13
246.403	1.12
246.784	1.16
247.164	1.26
247.545	1.37
247.925	1.38
248.306	1.3
248.686	1.39
249.067	1.26
249.447	1.22
249.827	1.39
250.207	1.3
250.588	1.31
250.968	1.35
251.348	1.26
251.728	1.36
252.108	1.27
252.488	1.34
252.868	1.42
253.248	1.34
253.628	1.39
254.008	1.56
254.388	1.34
254.768	1.28
255.147	1.3
255.527	1.6
255.907	1.41
256.287	1.4
256.666	1.39
257.046	1.31
257.425	1.51
257.805	1.31
258.184	1.3
258.564	1.42
258.943	1.33
259.323	1.49
259.702	1.59
260.081	1.4
260.461	1.49
260.84	1.5
261.219	1.72
261.598	1.46
261.977	1.51
262.356	1.51
262.736	1.45
263.115	1.69
263.494	1.48
263.873	1.35
264.251	1.62
264.63	1.59
265.009	1.41
265.388	1.53
265.767	1.49
266.145	1.34
266.524	1.39
266.903	1.46
267.281	1.23
267.66	1.52
268.039	1.49
268.417	1.49
268.796	1.4
269.174	1.42
269.552	1.39
269.931	1.48
270.309	1.41
270.687	1.71
271.066	1.56
271.444	1.5
271.822	1.58
272.2	1.42
272.578	1.32
272.956	1.49
273.334	1.31
273.712	1.36
274.09	1.47
274.468	1.39
274.846	1.37
275.224	1.34
275.602	1.38
275.98	1.61
276.357	1.52
276.735	1.48
277.113	1.57
277.49	1.31
277.868	1.42
278.246	1.32
278.623	1.26
279.001	1.31
279.378	1.39
279.756	1.56
280.133	1.58
280.51	1.41
280.888	1.35
281.265	1.39
281.642	1.55
282.019	1.52
282.396	1.62
282.773	1.36
283.151	1.44
283.528	1.6
283.905	1.42
284.282	1.57
284.659	1.53
285.035	1.3
285.412	1.36
285.789	1.53
286.166	1.37
286.543	1.48
286.919	1.64
287.296	1.46
287.673	1.84
288.049	1.5
288.426	1.52
288.802	1.42
289.179	1.44
289.555	1.64
289.932	1.4
290.308	1.45
290.684	1.47
291.061	1.39
291.437	1.62
291.813	1.46
292.189	1.3
292.565	1.45
292.942	1.27
293.318	1.36
293.694	1.4
294.07	1.35
294.446	1.39
294.822	1.56
295.197	1.38
295.573	1.5
295.949	1.41
296.325	1.5
296.701	1.51
297.076	1.62
297.452	1.46
297.828	1.35
298.203	1.58
298.579	1.37
298.954	1.39
299.33	1.3
299.705	1.36
300.081	1.4
300.456	1.43
300.831	1.43
301.206	1.39
301.582	1.49
301.957	1.35
302.332	1.42
302.707	1.27
303.082	1.24
303.457	1.26
303.832	1.26
304.207	1.24
304.582	1.33
304.957	1.25
305.332	1.26
305.707	1.24
306.082	1.2
306.456	1.17
306.831	1.12
307.206	1.24
307.58	1.17
307.955	1.16
308.33	1.18
308.704	1.13
309.079	1.12
309.453	1.24
309.828	1.11
310.202	1.13
310.576	1.09
310.951	1.1
311.325	1.08
311.699	1.04
312.073	1.03
312.447	1.09
312.821	1.04
313.196	1.03
313.57	1.02
313.944	1.01
314.317	1
314.691	1.06
315.065	1.11
315.439	1.04
315.813	0.97
316.187	0.99
316.56	1.1
316.934	1.03
317.308	0.97
317.681	1.02
318.055	1.04
318.428	1
318.802	1.02
319.175	0.98
319.549	0.97
319.922	0.98
320.295	0.96
320.669	1.04
321.042	0.99
321.415	1.03
321.788	1.01
322.162	0.97
322.535	0.98
322.908	1.02
323.281	0.95
323.654	1.08
324.027	0.99
324.4	1.03
324.773	1.05
325.145	0.99
325.518	0.96
325.891	0.99
326.264	0.96
326.636	1.03
327.009	1.03
327.382	0.99
327.754	1.05
328.127	1.04
328.499	1.07
328.872	1.1
329.244	1.02
329.616	0.99
329.989	1.03
330.361	1.04
330.733	1.05
331.106	1.03
331.478	1.14
331.85	1.07
332.222	1.05
332.594	1.12
332.966	1.12
333.338	1.1
333.71	1.12
334.082	1.13
334.454	1.08
334.826	1.13
335.197	1.09
335.569	1.1
335.941	1.04
336.312	1.08
336.684	1.07
337.056	1.1
337.427	1.19
337.799	1.2
338.17	1.15
338.542	1.1
338.913	1.14
339.284	1.14
339.656	1.12
340.027	1.16
340.398	1.15
340.769	1.19
341.141	1.16
341.512	1.1
341.883	1.21
342.254	1.18
342.625	1.24
342.996	1.11
343.367	1.2
343.738	1.26
344.108	1.16
344.479	1.3
344.85	1.15
345.221	1.28
345.591	1.17
345.962	1.25
346.333	1.22
346.703	1.18
347.074	1.17
347.444	1.2
347.815	1.18
348.185	1.19
348.556	1.2
348.926	1.2
349.296	1.18
349.666	1.25
350.037	1.18
350.407	1.19
350.777	1.23
351.147	1.33
351.517	1.33
351.887	1.39
352.257	1.32
352.627	1.17
352.997	1.28
353.367	1.35
353.737	1.3
354.106	1.39
354.476	1.36
354.846	1.33
355.216	1.39
355.585	1.43
355.955	1.35
356.324	1.39
356.694	1.36
357.063	1.36
357.433	1.4
357.802	1.41
358.171	1.45
358.541	1.49
358.91	1.56
359.279	1.57
359.648	1.45
360.017	1.47
360.387	1.47
360.756	1.49
361.125	1.48
361.494	1.58
361.863	1.52
362.231	1.39
362.6	1.41
362.969	1.63
363.338	1.46
363.707	1.68
364.075	1.72
364.444	1.49
364.813	1.47
365.181	1.45
365.55	1.48
365.918	1.81
366.287	1.59
366.655	1.51
367.024	1.5
367.392	1.61
367.76	1.48
368.128	1.49
368.497	1.54
368.865	1.54
369.233	1.47
369.601	1.46
369.969	1.47
370.337	1.54
370.705	1.46
371.073	1.53
371.441	1.61
371.809	1.51
372.177	1.46
372.544	1.63
372.912	1.47
373.28	1.53
373.647	1.6
374.015	1.53
374.383	1.88
374.75	1.64
375.118	1.59
375.485	1.62
375.853	1.64
376.22	1.64
376.587	1.47
376.955	1.51
377.322	1.56
377.689	1.47
378.056	1.54
378.423	1.66
378.79	1.42
379.157	1.44
379.524	1.48
379.891	1.5
380.258	1.61
380.625	1.61
380.992	1.52
381.359	1.59
381.726	1.79
382.092	1.58
382.459	1.59
382.826	1.6
383.192	1.63
383.559	1.61
383.925	1.67
384.292	1.42
384.658	1.65
385.025	1.48
385.391	1.79
385.757	1.73
386.123	1.55
386.49	1.52
386.856	1.59
387.222	1.74
387.588	1.6
387.954	1.83
388.32	1.71
388.686	1.56
389.052	1.55
389.418	1.54
389.784	1.51
390.15	1.58
390.515	1.44
390.881	1.82
391.247	1.48
391.613	1.73
391.978	1.49
392.344	1.63
392.709	1.5
393.075	1.54
393.44	1.7
393.806	1.59
394.171	1.47
394.536	1.55
394.902	1.59
395.267	1.55
395.632	1.47
395.997	1.59
396.362	1.49
396.727	1.7
397.092	1.62
397.457	1.57
397.822	1.56
398.187	1.55
398.552	1.45
398.917	1.52
399.282	1.43
399.646	1.47
400.011	1.64
400.376	1.45
400.74	1.67
401.105	1.47
401.47	1.63
401.834	1.53
402.199	1.55
402.563	1.54
402.927	1.52
403.292	1.81
403.656	1.58
404.02	1.44
404.384	1.79
404.749	1.71
405.113	1.75
405.477	1.69
405.841	1.53
406.205	1.74
406.569	1.5
406.933	1.57
407.296	1.56
407.66	1.53
408.024	1.62
408.388	1.64
408.752	1.73
409.115	1.69
409.479	1.56
409.842	1.61
410.206	1.55
410.569	1.46
410.933	1.54
411.296	1.44
411.66	1.56
412.023	1.6
412.386	1.69
412.749	1.46
413.113	1.63
413.476	1.48
413.839	1.46
414.202	1.44
414.565	1.53
414.928	1.45
415.291	1.51
415.654	1.43
416.017	1.57
416.38	1.59
416.742	1.46
417.105	1.46
417.468	1.29
417.83	1.46
418.193	1.53
418.556	1.41
418.918	1.37
419.281	1.49
419.643	1.55
420.005	1.46
420.368	1.62
420.73	1.59
421.092	1.54
421.455	1.58
421.817	1.39
422.179	1.51
422.541	1.53
422.903	1.59
423.265	1.5
423.627	1.64
423.989	1.44
424.351	1.42
424.713	1.42
425.075	1.51
425.436	1.43
425.798	1.36
426.16	1.72
426.521	1.55
426.883	1.53
427.245	1.48
427.606	1.48
427.967	1.36
428.329	1.43
428.69	1.51
429.052	1.47
429.413	1.64
429.774	1.57
430.135	1.56
430.497	1.41
430.858	1.4
431.219	1.51
431.58	1.42
431.941	1.46
432.302	1.4
432.663	1.47
433.024	1.46
433.384	1.51
433.745	1.37
434.106	1.5
434.467	1.5
434.827	1.46
435.188	1.47
435.548	1.55
435.909	1.47
436.269	1.53
436.63	1.43
436.99	1.5
437.351	1.35
437.711	1.45
438.071	1.45
438.431	1.46
438.792	1.4
439.152	1.34
439.512	1.37
439.872	1.39
440.232	1.4
440.592	1.37
440.952	1.42
441.312	1.35
441.671	1.38
442.031	1.34
442.391	1.39
442.751	1.38
443.11	1.35
443.47	1.31
443.83	1.32
444.189	1.29
444.549	1.33
444.908	1.27
445.267	1.28
445.627	1.32
445.986	1.3
446.345	1.27
446.705	1.24
447.064	1.31
447.423	1.26
447.782	1.3
448.141	1.25
448.5	1.23
448.859	1.23
449.218	1.22
449.577	1.22
449.936	1.26
450.295	1.24
450.653	1.21
451.012	1.21
451.371	1.23
451.729	1.21
452.088	1.19
452.447	1.22
452.805	1.17
453.163	1.17
453.522	1.14
453.88	1.13
454.239	1.12
454.597	1.09
454.955	1.07
455.313	1.11
455.671	1.11
456.029	1.08
456.388	1.05
456.746	1.07
457.104	1.04
457.461	1.02
457.819	1.02
458.177	1.01
458.535	0.98
458.893	0.97
459.25	0.97
459.608	0.96
459.966	0.95
460.323	0.93
460.681	0.92
461.038	0.92
461.396	0.91
461.753	0.88
462.111	0.87
462.468	0.84
462.825	0.84
463.182	0.83
463.54	0.81
463.897	0.82
464.254	0.8
464.611	0.8
464.968	0.78
465.325	0.78
465.682	0.76
466.039	0.76
466.395	0.74
466.752	0.73
467.109	0.72
467.466	0.7
467.822	0.71
468.179	0.68
468.535	0.68
468.892	0.67
469.248	0.66
469.605	0.64
469.961	0.64
470.318	0.65
470.674	0.63
471.03	0.63
471.386	0.6
471.743	0.59
472.099	0.58
472.455	0.58
472.811	0.57
473.167	0.56
473.523	0.56
473.879	0.54
474.235	0.53
474.59	0.51
474.946	0.51
475.302	0.51
475.657	0.5
476.013	0.49
476.369	0.47
476.724	0.47
477.08	0.47
477.435	0.45
477.791	0.45
478.146	0.44
478.501	0.43
478.857	0.44
479.212	0.42
479.567	0.41
479.922	0.4
480.277	0.4
480.632	0.38
480.987	0.38
481.342	0.38
481.697	0.37
482.052	0.36
482.407	0.35
482.762	0.36
483.116	0.34
483.471	0.34
483.826	0.33
484.18	0.33
484.535	0.33
484.89	0.31
485.244	0.31
485.598	0.31
485.953	0.31
486.307	0.29
486.661	0.3
487.016	0.28
487.37	0.28
487.724	0.28
488.078	0.28
488.432	0.27
488.786	0.27
489.14	0.26
489.494	0.25
489.848	0.25
490.202	0.24
490.556	0.24
490.91	0.24
491.263	0.23
491.617	0.24
491.971	0.23
492.324	0.23
492.678	0.23
493.031	0.22
493.385	0.22
493.738	0.22
494.091	0.22
494.445	0.21
494.798	0.21
495.151	0.21
495.504	0.21
495.857	0.2
496.21	0.2
496.564	0.19
496.916	0.19
497.269	0.18
497.622	0.18
497.975	0.18
498.328	0.18
498.681	0.18
499.033	0.17
499.386	0.17
499.739	0.17
500.091	0.17
500.444	0.17
500.796	0.17
501.149	0.16
501.501	0.16
501.854	0.16
502.206	0.15
502.558	0.16
502.91	0.16
503.263	0.16
503.615	0.16
503.967	0.15
504.319	0.16
504.671	0.15
505.023	0.14
505.375	0.15
505.726	0.15
506.078	0.15
506.43	0.14
506.782	0.14
507.133	0.15
507.485	0.15
507.837	0.15
508.188	0.15
508.54	0.15
508.891	0.15
509.243	0.14
509.594	0.14
509.945	0.14
510.296	0.14
510.648	0.14
510.999	0.13
511.35	0.13
511.701	0.14
512.052	0.14
512.403	0.14
512.754	0.13
513.105	0.14
513.456	0.14
513.807	0.12
514.157	0.13
514.508	0.13
514.859	0.12
515.209	0.13
515.56	0.13
515.91	0.13
516.261	0.13
516.611	0.13
516.962	0.13
517.312	0.13
517.662	0.13
518.013	0.13
518.363	0.13
518.713	0.13
519.063	0.13
519.413	0.13
519.763	0.13
520.113	0.13
520.463	0.14
520.813	0.13
521.163	0.13
521.512	0.13
521.862	0.13
522.212	0.13
522.562	0.14
522.911	0.12
523.261	0.13
523.61	0.13
523.96	0.13
524.309	0.13
524.658	0.13
525.008	0.13
525.357	0.12
525.706	0.13
526.056	0.12
526.405	0.12
526.754	0.12
527.103	0.12
527.452	0.12
527.801	0.13
528.15	0.13
528.499	0.12
528.847	0.13
529.196	0.13
529.545	0.14
529.893	0.13
530.242	0.13
530.591	0.14
530.939	0.14
531.288	0.13
531.636	0.14
531.985	0.13
532.333	0.13
532.681	0.13
533.029	0.13
533.378	0.14
533.726	0.13
534.074	0.14
534.422	0.13
534.77	0.13
535.118	0.13
535.466	0.13
535.814	0.13
536.162	0.14
536.509	0.14
536.857	0.13
537.205	0.14
537.552	0.14
537.9	0.14
538.248	0.13
538.595	0.13
538.943	0.13
539.29	0.14
539.637	0.13
539.985	0.14
540.332	0.13
540.679	0.13
541.026	0.13
541.373	0.14
541.721	0.13
542.068	0.13
542.415	0.13
542.762	0.12
543.108	0.12
543.455	0.12
543.802	0.12
544.149	0.13
544.496	0.13
544.842	0.12
545.189	0.12
545.535	0.12
545.882	0.12
546.228	0.12
546.575	0.11
546.921	0.12
547.267	0.12
547.614	0.13
547.96	0.12
548.306	0.12
548.652	0.12
548.998	0.13
549.344	0.11
549.69	0.12
550.036	0.13
550.382	0.12
550.728	0.12
551.074	0.12
551.42	0.13
551.765	0.13
552.111	0.13
552.457	0.13
552.802	0.12
553.148	0.13
553.493	0.13
553.839	0.12
554.184	0.13
554.529	0.12
554.875	0.13
555.22	0.14
555.565	0.13
555.91	0.13
556.255	0.14
556.6	0.14
556.945	0.13
557.29	0.13
557.635	0.13
557.98	0.13
558.325	0.13
558.67	0.14
559.014	0.13
559.359	0.13
559.704	0.13
560.048	0.12
560.393	0.13
560.737	0.12
561.082	0.13
561.426	0.12
561.77	0.13
562.115	0.12
562.459	0.13
562.803	0.12
563.147	0.12
563.491	0.13
563.835	0.13
564.179	0.13
564.523	0.13
564.867	0.13
565.211	0.13
565.555	0.13
565.899	0.14
566.242	0.12
566.586	0.12
566.93	0.13
567.273	0.13
567.617	0.13
567.96	0.13
568.304	0.13
568.647	0.13
568.99	0.13
569.334	0.14
569.677	0.12
570.02	0.13
570.363	0.13
570.706	0.13
571.049	0.13
571.392	0.13
571.735	0.12
572.078	0.13
572.421	0.14
572.764	0.13
573.106	0.14
573.449	0.13
573.792	0.12
574.134	0.13
574.477	0.13
574.819	0.13
575.162	0.13
575.504	0.13
575.847	0.14
576.189	0.13
576.531	0.13
576.873	0.12
577.215	0.13
577.558	0.13
577.9	0.12
578.242	0.13
578.584	0.12
578.926	0.13
579.267	0.13
579.609	0.13
579.951	0.13
580.293	0.13
580.634	0.13
580.976	0.13
581.318	0.13
581.659	0.12
582.001	0.13
582.342	0.12
582.683	0.14
583.025	0.12
583.366	0.12
583.707	0.13
584.049	0.12
584.39	0.12
584.731	0.12
585.072	0.11
585.413	0.13
585.754	0.12
586.095	0.12
586.435	0.12
586.776	0.13
587.117	0.13
587.458	0.12
587.798	0.12
588.139	0.13
588.48	0.13
588.82	0.12
589.161	0.11
589.501	0.12
589.841	0.13
590.182	0.12
590.522	0.12
590.862	0.12
591.202	0.13
591.542	0.12
591.882	0.12
592.222	0.13
592.562	0.13
592.902	0.12
593.242	0.13
593.582	0.13
593.922	0.12
594.261	0.12
594.601	0.13
594.941	0.12
595.28	0.12
595.62	0.13
595.959	0.12
596.299	0.12
596.638	0.12
596.977	0.12
597.317	0.13
597.656	0.13
597.995	0.13
598.334	0.13
598.673	0.13
599.012	0.13
599.351	0.14
599.69	0.13
600.029	0.13
600.368	0.13
600.707	0.13
601.046	0.13
601.384	0.13
601.723	0.13
602.061	0.12
602.4	0.13
602.738	0.13
603.077	0.13
603.415	0.12
603.754	0.13
604.092	0.13
604.43	0.12
604.768	0.12
605.107	0.13
605.445	0.12
605.783	0.13
606.121	0.12
606.459	0.13
606.796	0.13
607.134	0.12
607.472	0.12
607.81	0.13
608.148	0.12
608.485	0.13
608.823	0.13
609.16	0.12
609.498	0.12
609.835	0.12
610.173	0.12
610.51	0.12
610.847	0.12
611.185	0.12
611.522	0.13
611.859	0.12
612.196	0.13
612.533	0.12
612.87	0.13
613.207	0.13
613.544	0.13
613.881	0.14
614.217	0.13
614.554	0.12
614.891	0.13
615.228	0.13
615.564	0.13
615.901	0.12
616.237	0.13
616.574	0.13
616.91	0.13
617.246	0.13
617.583	0.13
617.919	0.13
618.255	0.13
618.591	0.13
618.927	0.13
619.263	0.13
619.599	0.13
619.935	0.13
620.271	0.13
620.607	0.13
620.943	0.13
621.279	0.13
621.614	0.12
621.95	0.13
622.286	0.13
622.621	0.13
622.957	0.13
623.292	0.13
623.627	0.12
623.963	0.12
624.298	0.13
624.633	0.12
624.968	0.13
625.304	0.13
625.639	0.12
625.974	0.12
626.309	0.12
626.644	0.12
626.979	0.12
627.313	0.12
627.648	0.12
627.983	0.12
628.318	0.11
628.652	0.11
628.987	0.12
629.321	0.13
629.656	0.11
629.99	0.11
630.325	0.12
630.659	0.11
630.993	0.11
631.327	0.11
631.662	0.1
631.996	0.1
632.33	0.11
632.664	0.11
632.998	0.1
633.332	0.11
633.666	0.11
633.999	0.11
634.333	0.11
634.667	0.11
635.001	0.11
635.334	0.11
635.668	0.1
636.001	0.11
636.335	0.1
636.668	0.11
637.001	0.1
637.335	0.1
637.668	0.11
638.001	0.11
638.334	0.1
638.668	0.1
639.001	0.1
639.334	0.11
639.667	0.11
639.999	0.1
640.332	0.1
640.665	0.11
640.998	0.1
641.331	0.11
641.663	0.1
641.996	0.11
642.328	0.11
642.661	0.11
642.993	0.1
643.326	0.11
643.658	0.11
643.99	0.1
644.323	0.1
644.655	0.1
644.987	0.1
645.319	0.1
645.651	0.11
645.983	0.1
646.315	0.1
646.647	0.1
646.979	0.11
647.31	0.1
647.642	0.11
647.974	0.11
648.305	0.11
648.637	0.11
648.968	0.11
649.3	0.1
649.631	0.11
649.963	0.1
650.294	0.11
650.625	0.1
650.957	0.11
651.288	0.11
651.619	0.11
651.95	0.1
652.281	0.1
652.612	0.11
652.943	0.11
653.274	0.11
653.604	0.11
653.935	0.11
654.266	0.11
654.596	0.1
654.927	0.1
655.258	0.11
655.588	0.11
655.918	0.11
656.249	0.09
656.579	0.1
656.909	0.1
657.24	0.1
657.57	0.11
657.9	0.1
658.23	0.1
658.56	0.11
658.89	0.11
659.22	0.1
659.55	0.11
659.88	0.11
660.209	0.11
660.539	0.12
660.869	0.1
661.198	0.1
661.528	0.1
661.857	0.1
662.187	0.1
662.516	0.1
662.846	0.1
663.175	0.1
663.504	0.1
663.833	0.1
664.163	0.1
664.492	0.1
664.821	0.1
665.15	0.1
665.479	0.1
665.807	0.1
666.136	0.1
666.465	0.11
666.794	0.11
667.122	0.1
667.451	0.1
667.78	0.11
668.108	0.11
668.437	0.1
668.765	0.1
669.093	0.11
669.422	0.1
669.75	0.1
670.078	0.1
670.406	0.1
670.734	0.11
671.062	0.11
671.39	0.1
671.718	0.1
672.046	0.1
672.374	0.09
672.702	0.1
673.029	0.09
673.357	0.09
673.685	0.1
674.012	0.1
674.34	0.1
674.667	0.1
674.995	0.1
675.322	0.1
675.649	0.1
675.977	0.1
676.304	0.09
676.631	0.1
676.958	0.1
677.285	0.09
677.612	0.09
677.939	0.09
678.266	0.1
678.593	0.09
678.92	0.09
679.246	0.09
679.573	0.09
679.9	0.08
680.226	0.1
680.553	0.09
680.879	0.09
681.206	0.1
681.532	0.09
681.858	0.1
682.184	0.1
682.511	0.1
682.837	0.1
683.163	0.1
683.489	0.1
683.815	0.09
684.141	0.1
684.467	0.09
684.793	0.09
685.118	0.09
685.444	0.1
685.77	0.09
686.095	0.09
686.421	0.09
686.746	0.08
687.072	0.09
687.397	0.09
687.723	0.09
688.048	0.1
688.373	0.09
688.698	0.09
689.023	0.09
689.349	0.1
689.674	0.09
689.999	0.09
690.323	0.08
690.648	0.08
690.973	0.08
691.298	0.09
691.623	0.08
691.947	0.09
692.272	0.08
692.596	0.1
692.921	0.09
693.245	0.09
693.57	0.09
693.894	0.09
694.218	0.09
694.543	0.09
694.867	0.1
695.191	0.09
695.515	0.09
695.839	0.09
696.163	0.09
696.487	0.09
696.811	0.09
697.135	0.1
697.458	0.09
697.782	0.09
698.106	0.08
698.429	0.1
698.753	0.08
699.076	0.09
699.4	0.09
699.723	0.08
700.046	0.09
700.37	0.09
700.693	0.09
701.016	0.08
701.339	0.09
701.662	0.09
701.985	0.09
702.308	0.08
702.631	0.08
702.954	0.09
703.277	0.09
703.599	0.09
703.922	0.08
704.245	0.09
704.567	0.08
704.89	0.08
705.212	0.08
705.535	0.07
705.857	0.07
706.179	0.08
706.502	0.07
706.824	0.08
707.146	0.07
707.468	0.09
707.79	0.08
708.112	0.08
708.434	0.08
708.756	0.08
709.078	0.08
709.399	0.08
709.721	0.08
710.043	0.08
710.364	0.09
710.686	0.08
711.007	0.08
711.329	0.09
711.65	0.09
711.972	0.09
712.293	0.09
712.614	0.09
712.935	0.08
713.256	0.08
713.577	0.1
713.898	0.08
714.219	0.08
714.54	0.08
714.861	0.07
715.182	0.08
715.503	0.08
715.823	0.08
716.144	0.07
716.464	0.06
716.785	0.07
717.105	0.07
717.426	0.07
717.746	0.07
718.066	0.06
718.387	0.07
718.707	0.07
719.027	0.07
719.347	0.06
719.667	0.07
719.987	0.06
720.307	0.07
720.627	0.07
720.947	0.08
721.266	0.07
721.586	0.07
721.906	0.06
722.225	0.06
722.545	0.07
722.864	0.07
723.184	0.07
723.503	0.07
723.823	0.07
724.142	0.07
724.461	0.07
724.78	0.07
725.099	0.07
725.418	0.07
725.737	0.06
726.056	0.07
726.375	0.07
726.694	0.07
727.013	0.07
727.331	0.06
727.65	0.06
727.969	0.07
728.287	0.07
728.606	0.06
728.924	0.06
729.242	0.07
729.561	0.07
729.879	0.07
730.197	0.07
730.515	0.07
730.834	0.07
731.152	0.06
731.47	0.07
731.788	0.07
732.105	0.06
732.423	0.07
732.741	0.07
733.059	0.07
733.376	0.08
733.694	0.07
734.012	0.07
734.329	0.07
734.647	0.08
734.964	0.07
735.281	0.07
735.599	0.07
735.916	0.08
736.233	0.07
736.55	0.07
736.867	0.07
737.184	0.08
737.501	0.07
737.818	0.08
738.135	0.07
738.452	0.07
738.768	0.07
739.085	0.06
739.402	0.06
739.718	0.06
740.035	0.07
740.351	0.07
740.668	0.07
740.984	0.06
741.3	0.06
741.617	0.07
741.933	0.07
742.249	0.07
742.565	0.07
742.881	0.07
743.197	0.07
743.513	0.07
743.829	0.07
744.144	0.06
744.46	0.06
744.776	0.07
745.091	0.06
745.407	0.06
745.722	0.06
746.038	0.06
746.353	0.05
746.669	0.06
746.984	0.05
747.299	0.06
747.614	0.06
747.93	0.06
748.245	0.05
748.56	0.06
748.875	0.06
749.189	0.06
749.504	0.05
749.819	0.06
750.134	0.05
750.448	0.06
750.763	0.06
751.078	0.05
751.392	0.05
751.707	0.07
752.021	0.07
752.335	0.06
752.65	0.07
752.964	0.06
753.278	0.06
753.592	0.06
753.906	0.06
754.22	0.06
754.534	0.07
754.848	0.07
755.162	0.06
755.476	0.06
755.789	0.06
756.103	0.06
756.417	0.07
756.73	0.07
757.044	0.07
757.357	0.06
757.671	0.07
757.984	0.06
758.297	0.07
758.61	0.07
758.924	0.07
759.237	0.06
759.55	0.07
759.863	0.06
760.176	0.07
760.488	0.06
760.801	0.06
761.114	0.06
761.427	0.06
761.739	0.07
762.052	0.06
762.365	0.06
762.677	0.06
762.99	0.05
763.302	0.06
763.614	0.06
763.926	0.05
764.239	0.06
764.551	0.05
764.863	0.06
765.175	0.07
765.487	0.06
765.799	0.05
766.111	0.05
766.423	0.06
766.734	0.05
767.046	0.06
767.358	0.05
767.669	0.05
767.981	0.05
768.292	0.05
768.604	0.05
768.915	0.06
769.226	0.05
769.537	0.04
769.849	0.06
770.16	0.06
770.471	0.05
770.782	0.05
771.093	0.05
771.404	0.05
771.715	0.05
772.025	0.05
772.336	0.05
772.647	0.04
772.957	0.05
773.268	0.06
773.578	0.05
773.889	0.06
774.199	0.07
774.51	0.06
774.82	0.05
775.13	0.06
775.44	0.06
775.75	0.07
776.06	0.06
776.37	0.05
776.68	0.06
776.99	0.06
777.3	0.05
777.61	0.06
777.92	0.06
778.229	0.06
778.539	0.05
778.848	0.06
779.158	0.05
779.467	0.06
779.777	0.06
780.086	0.06
780.395	0.05
780.704	0.04
781.013	0.05
781.323	0.04
781.632	0.05
781.941	0.05
782.249	0.05
782.558	0.04
782.867	0.05
783.176	0.04
783.485	0.04
783.793	0.05
784.102	0.04
784.41	0.04
784.719	0.05
785.027	0.04
785.335	0.05
785.644	0.05
785.952	0.04
786.26	0.05
786.568	0.05
786.876	0.04
787.184	0.05
787.492	0.05
787.8	0.05
788.108	0.05
788.416	0.04
788.723	0.05
789.031	0.05
789.338	0.04
789.646	0.04
789.953	0.06
790.261	0.06
790.568	0.05
790.876	0.05
791.183	0.05
791.49	0.04
791.797	0.05
792.104	0.05
792.411	0.05
792.718	0.05
793.025	0.06
793.332	0.05
793.639	0.06
793.945	0.05
794.252	0.05
794.559	0.06
794.865	0.06
795.172	0.05
795.478	0.06
795.784	0.05
796.091	0.06
796.397	0.06
796.703	0.06
797.009	0.07
797.315	0.06
797.622	0.07
797.927	0.06
798.233	0.05
798.539	0.07
798.845	0.07
799.151	0.06
799.456	0.06
799.762	0.06
800.068	0.06
800.373	0.07
800.679	0.06
800.984	0.06
801.289	0.06
801.595	0.07
801.9	0.06
802.205	0.06
802.51	0.06
802.815	0.06
803.12	0.06
803.425	0.06
803.73	0.06
804.035	0.06
804.339	0.05
804.644	0.05
804.949	0.06
805.253	0.06
805.558	0.06
805.862	0.05
806.167	0.05
806.471	0.05
806.775	0.05
807.08	0.05
807.384	0.05
807.688	0.06
807.992	0.05
808.296	0.05
808.6	0.06
808.904	0.06
809.207	0.05
809.511	0.06
809.815	0.07
810.119	0.05
810.422	0.07
810.726	0.07
811.029	0.07
811.332	0.06
811.636	0.07
811.939	0.06
812.242	0.06
812.546	0.07
812.849	0.06
813.152	0.07
813.455	0.07
813.758	0.07
814.06	0.07
814.363	0.07
814.666	0.07
814.969	0.07
815.271	0.07
815.574	0.07
815.877	0.07
816.179	0.06
816.481	0.06
816.784	0.07
817.086	0.06
817.388	0.05
817.69	0.05
817.993	0.05
818.295	0.06
818.597	0.05
818.899	0.05
819.2	0.04
819.502	0.05
819.804	0.05
820.106	0.04
820.407	0.04
820.709	0.05
821.01	0.04
821.312	0.05
821.613	0.04
821.915	0.04
822.216	0.04
822.517	0.03
822.818	0.04
823.119	0.05
823.42	0.04
823.721	0.04
824.022	0.04
824.323	0.04
824.624	0.04
824.925	0.04
825.226	0.04
825.526	0.03
825.827	0.04
826.127	0.04
826.428	0.04
826.728	0.04
827.028	0.03
827.329	0.03
827.629	0.03
827.929	0.04
828.229	0.03
828.529	0.04
828.829	0.04
829.129	0.03
829.429	0.04
829.729	0.04
830.029	0.04
830.328	0.04
830.628	0.03
830.927	0.03
831.227	0.03
831.526	0.04
831.826	0.04
832.125	0.04
832.424	0.03
832.724	0.04
833.023	0.03
833.322	0.04
833.621	0.03
833.92	0.03
834.219	0.03
834.518	0.03
834.816	0.02
835.115	0.02
835.414	0.02
835.712	0.01
836.011	0.01
836.309	0.02
836.608	0.01
836.906	0.01
837.205	0.01
837.503	0
837.801	0
838.099	0
838.397	-0.01
838.695	-0
838.993	-0
839.291	-0.01
839.589	-0
839.887	-0
840.184	-0.01
840.482	-0.01
840.78	-0.01
841.077	-0.01
841.375	-0.01
841.672	-0.01
841.969	-0.01
842.267	-0.01
842.564	-0.01
842.861	-0.01
843.158	-0.01
843.455	-0.03
843.752	-0.02
844.049	-0.02
844.346	-0.02
844.643	-0.03
844.94	-0.02
845.236	-0.02
845.533	-0.02
845.83	-0.02
846.126	-0.02
846.423	-0.02
846.719	-0.03
847.015	-0.02
847.312	-0.02
847.608	-0.04
847.904	-0.04
848.2	-0.03
848.496	-0.04
848.792	-0.03
849.088	-0.02
849.384	-0.03
849.68	-0.04
849.975	-0.04
850.271	-0.03
850.567	-0.04
850.862	-0.04
851.158	-0.04
851.453	-0.03
851.748	-0.05
852.044	-0.05
852.339	-0.04
852.634	-0.06
852.929	-0.04
853.224	-0.05
853.519	-0.05
853.814	-0.05
854.109	-0.05
854.404	-0.06
854.699	-0.05
854.994	-0.05
855.288	-0.05
855.583	-0.05
855.877	-0.07
856.172	-0.06
856.466	-0.06
856.76	-0.07
857.055	-0.06
857.349	-0.07
857.643	-0.07
857.937	-0.09
858.231	-0.08
858.525	-0.09
858.819	-0.1
859.113	-0.11
859.407	-0.1
859.701	-0.1
859.994	-0.11
860.288	-0.09
860.581	-0.1
860.875	-0.1
861.168	-0.1
861.462	-0.11
861.755	-0.1
862.048	-0.1
862.341	-0.1
862.634	-0.09
862.928	-0.1
863.221	-0.1
863.513	-0.11
863.806	-0.12
864.099	-0.11
864.392	-0.11
864.685	-0.1
864.977	-0.11
865.27	-0.11
865.562	-0.11
865.855	-0.1
866.147	-0.12
866.44	-0.11
866.732	-0.12
867.024	-0.13
867.316	-0.12
867.608	-0.12
867.9	-0.11
868.192	-0.13
868.484	-0.13
868.776	-0.13
869.068	-0.12
869.359	-0.12
869.651	-0.13
869.943	-0.14
870.234	-0.13
870.526	-0.14
870.817	-0.15
871.108	-0.13
871.4	-0.14
871.691	-0.15
871.982	-0.14
872.273	-0.16
872.564	-0.15
872.855	-0.15
873.146	-0.15
873.437	-0.15
873.728	-0.16
874.019	-0.16
874.309	-0.17
874.6	-0.16
874.89	-0.17
875.181	-0.16
875.471	-0.16
875.762	-0.16
876.052	-0.17
876.342	-0.15
876.632	-0.16
876.922	-0.18
877.213	-0.16
877.503	-0.18
877.792	-0.17
878.082	-0.17
878.372	-0.16
878.662	-0.18
878.952	-0.17
879.241	-0.15
879.531	-0.15
879.82	-0.16
880.11	-0.15
880.399	-0.17
880.688	-0.14
880.978	-0.14
881.267	-0.14
