Data from 12-12-AQDScycling_Absorbance__477__00477.txt Node

Date: Tue Dec 12 12:55:59 EST 2023
User: kyuminlee
Spectrometer: FLMS00943
Trigger mode: 0
Integration Time (sec): 1.000000E-1
Scans to average: 1
Electric dark correction enabled: true
Nonlinearity correction enabled: false
Boxcar width: 0
XAxis mode: Wavelengths
Number of Pixels in Spectrum: 2048
>>>>>Begin Spectral Data<<<<<
179.651	0.66
180.037	0.66
180.424	0.66
180.81	-0.2
181.197	0.43
181.583	-0.43
181.97	-0
182.356	-0.09
182.743	-0.59
183.129	-0
183.515	-0
183.901	-2.26
184.288	0.51
184.674	-0
185.06	-0.21
185.446	-0
185.832	-0
186.218	0.22
186.604	-0
186.99	0.55
187.376	0.92
187.762	-0.17
188.148	0.76
188.534	0.03
188.92	0.04
189.305	0.05
189.691	0.14
190.077	0.11
190.463	0.14
190.848	0.02
191.234	0.06
191.619	0.04
192.005	0.21
192.391	0.12
192.776	0.24
193.161	0.38
193.547	0.05
193.932	0.06
194.318	0.14
194.703	0.16
195.088	0
195.473	0.13
195.859	0.18
196.244	0.23
196.629	0.15
197.014	0.08
197.399	0.2
197.784	0.33
198.169	0.25
198.554	0.3
198.939	0.12
199.324	0.12
199.709	0.1
200.094	0.13
200.478	0.26
200.863	0.11
201.248	0.18
201.633	0.13
202.017	0.17
202.402	0.15
202.787	0.04
203.171	0.14
203.556	0.03
203.94	0.26
204.325	0.2
204.709	0.19
205.093	0.18
205.478	0.23
205.862	0.34
206.246	0.16
206.631	0.09
207.015	0.1
207.399	0.16
207.783	0.14
208.167	0.17
208.551	0.19
208.935	0.27
209.319	0.11
209.703	0.11
210.087	0.15
210.471	-0.01
210.855	0.14
211.239	0.25
211.623	0.15
212.007	0.16
212.39	0.24
212.774	0.1
213.158	0.19
213.541	0.22
213.925	0.2
214.309	0.21
214.692	0.29
215.076	0.2
215.459	0.08
215.842	0.26
216.226	0.41
216.609	0.29
216.993	0.27
217.376	0.42
217.759	0.24
218.142	0.37
218.525	0.49
218.909	0.35
219.292	0.45
219.675	0.39
220.058	0.37
220.441	0.46
220.824	0.41
221.207	0.43
221.59	0.51
221.973	0.53
222.355	0.49
222.738	0.77
223.121	0.65
223.504	0.45
223.886	0.55
224.269	0.69
224.652	0.68
225.034	0.75
225.417	0.79
225.799	0.74
226.182	0.9
226.564	0.78
226.947	0.75
227.329	0.91
227.711	0.95
228.094	0.94
228.476	0.96
228.858	0.83
229.24	0.75
229.623	1.05
230.005	0.84
230.387	0.9
230.769	0.86
231.151	0.87
231.533	0.97
231.915	1.04
232.297	0.97
232.679	1.01
233.061	0.99
233.442	0.98
233.824	0.97
234.206	1.12
234.588	1.15
234.969	1.11
235.351	0.96
235.733	1.02
236.114	1.21
236.496	1.04
236.877	1.09
237.259	1
237.64	0.97
238.022	0.99
238.403	1.01
238.784	1.09
239.165	0.88
239.547	1.13
239.928	1.29
240.309	1.11
240.69	1.04
241.071	1.13
241.452	1.09
241.834	1.02
242.215	1.06
242.595	1.1
242.976	1.26
243.357	1.08
243.738	1.02
244.119	1.19
244.5	1.12
244.881	1.25
245.261	1.15
245.642	1.21
246.023	1.16
246.403	1.24
246.784	1.18
247.164	1.26
247.545	1.37
247.925	1.31
248.306	1.16
248.686	1.25
249.067	1.26
249.447	1.4
249.827	1.39
250.207	1.32
250.588	1.35
250.968	1.33
251.348	1.32
251.728	1.36
252.108	1.4
252.488	1.34
252.868	1.4
253.248	1.33
253.628	1.41
254.008	1.51
254.388	1.24
254.768	1.46
255.147	1.45
255.527	1.36
255.907	1.24
256.287	1.28
256.666	1.42
257.046	1.49
257.425	1.47
257.805	1.34
258.184	1.33
258.564	1.25
258.943	1.45
259.323	1.49
259.702	1.49
260.081	1.4
260.461	1.4
260.84	1.35
261.219	1.63
261.598	1.57
261.977	1.47
262.356	1.52
262.736	1.46
263.115	1.53
263.494	1.4
263.873	1.46
264.251	1.5
264.63	1.48
265.009	1.4
265.388	1.41
265.767	1.35
266.145	1.28
266.524	1.36
266.903	1.5
267.281	1.31
267.66	1.52
268.039	1.49
268.417	1.53
268.796	1.49
269.174	1.36
269.552	1.29
269.931	1.36
270.309	1.38
270.687	1.68
271.066	1.56
271.444	1.34
271.822	1.57
272.2	1.47
272.578	1.28
272.956	1.44
273.334	1.28
273.712	1.37
274.09	1.55
274.468	1.45
274.846	1.34
275.224	1.36
275.602	1.38
275.98	1.54
276.357	1.55
276.735	1.41
277.113	1.44
277.49	1.39
277.868	1.27
278.246	1.37
278.623	1.48
279.001	1.51
279.378	1.37
279.756	1.35
280.133	1.79
280.51	1.37
280.888	1.5
281.265	1.35
281.642	1.53
282.019	1.57
282.396	1.53
282.773	1.43
283.151	1.47
283.528	1.43
283.905	1.38
284.282	1.52
284.659	1.53
285.035	1.39
285.412	1.39
285.789	1.46
286.166	1.57
286.543	1.61
286.919	1.37
287.296	1.35
287.673	1.67
288.049	1.52
288.426	1.58
288.802	1.72
289.179	1.49
289.555	1.54
289.932	1.46
290.308	1.33
290.684	1.33
291.061	1.42
291.437	1.55
291.813	1.43
292.189	1.2
292.565	1.3
292.942	1.31
293.318	1.44
293.694	1.49
294.07	1.39
294.446	1.44
294.822	1.91
295.197	1.42
295.573	1.45
295.949	1.39
296.325	1.42
296.701	1.56
297.076	1.54
297.452	1.48
297.828	1.43
298.203	1.67
298.579	1.5
298.954	1.53
299.33	1.34
299.705	1.67
300.081	1.68
300.456	1.49
300.831	1.45
301.206	1.44
301.582	1.52
301.957	1.45
302.332	1.62
302.707	1.42
303.082	1.49
303.457	1.44
303.832	1.48
304.207	1.5
304.582	1.48
304.957	1.48
305.332	1.61
305.707	1.51
306.082	1.5
306.456	1.65
306.831	1.5
307.206	1.58
307.58	1.58
307.955	1.47
308.33	1.43
308.704	1.65
309.079	1.66
309.453	1.76
309.828	1.51
310.202	1.49
310.576	1.48
310.951	1.59
311.325	1.76
311.699	1.51
312.073	1.39
312.447	1.4
312.821	1.61
313.196	1.5
313.57	1.4
313.944	1.5
314.317	1.5
314.691	1.58
315.065	1.53
315.439	1.85
315.813	1.53
316.187	1.61
316.56	1.64
316.934	1.64
317.308	1.47
317.681	1.71
318.055	1.45
318.428	1.59
318.802	1.51
319.175	1.47
319.549	1.52
319.922	1.42
320.295	1.41
320.669	1.6
321.042	1.61
321.415	1.76
321.788	1.48
322.162	1.59
322.535	1.6
322.908	1.45
323.281	1.48
323.654	1.7
324.027	1.56
324.4	1.68
324.773	1.55
325.145	1.47
325.518	1.47
325.891	1.39
326.264	1.67
326.636	1.45
327.009	1.47
327.382	1.41
327.754	1.4
328.127	1.44
328.499	1.54
328.872	1.5
329.244	1.48
329.616	1.47
329.989	1.47
330.361	1.48
330.733	1.47
331.106	1.34
331.478	1.58
331.85	1.41
332.222	1.49
332.594	1.52
332.966	1.45
333.338	1.53
333.71	1.61
334.082	1.98
334.454	1.42
334.826	1.55
335.197	1.59
335.569	1.52
335.941	1.5
336.312	1.5
336.684	1.46
337.056	1.48
337.427	1.59
337.799	1.48
338.17	1.68
338.542	1.42
338.913	1.54
339.284	1.64
339.656	1.56
340.027	1.63
340.398	1.51
340.769	1.53
341.141	1.89
341.512	1.57
341.883	1.5
342.254	1.57
342.625	1.59
342.996	1.48
343.367	1.69
343.738	1.67
344.108	1.44
344.479	1.54
344.85	1.39
345.221	1.56
345.591	1.46
345.962	1.57
346.333	1.54
346.703	1.4
347.074	1.38
347.444	1.27
347.815	1.4
348.185	1.35
348.556	1.33
348.926	1.4
349.296	1.33
349.666	1.38
350.037	1.33
350.407	1.28
350.777	1.31
351.147	1.37
351.517	1.36
351.887	1.32
352.257	1.39
352.627	1.3
352.997	1.32
353.367	1.37
353.737	1.49
354.106	1.35
354.476	1.27
354.846	1.4
355.216	1.32
355.585	1.35
355.955	1.31
356.324	1.35
356.694	1.31
357.063	1.26
357.433	1.27
357.802	1.25
358.171	1.24
358.541	1.21
358.91	1.22
359.279	1.15
359.648	1.12
360.017	1.22
360.387	1.11
360.756	1.02
361.125	1.08
361.494	1.03
361.863	1.08
362.231	0.94
362.6	1
362.969	0.99
363.338	0.96
363.707	0.96
364.075	0.96
364.444	0.85
364.813	0.85
365.181	0.85
365.55	0.86
365.918	0.84
366.287	0.83
366.655	0.82
367.024	0.79
367.392	0.79
367.76	0.75
368.128	0.73
368.497	0.74
368.865	0.71
369.233	0.72
369.601	0.69
369.969	0.68
370.337	0.68
370.705	0.65
371.073	0.66
371.441	0.65
371.809	0.62
372.177	0.64
372.544	0.6
372.912	0.64
373.28	0.6
373.647	0.61
374.015	0.61
374.383	0.59
374.75	0.58
375.118	0.57
375.485	0.57
375.853	0.56
376.22	0.53
376.587	0.54
376.955	0.54
377.322	0.55
377.689	0.52
378.056	0.52
378.423	0.51
378.79	0.54
379.157	0.51
379.524	0.51
379.891	0.5
380.258	0.51
380.625	0.5
380.992	0.51
381.359	0.5
381.726	0.49
382.092	0.46
382.459	0.48
382.826	0.5
383.192	0.49
383.559	0.48
383.925	0.48
384.292	0.48
384.658	0.46
385.025	0.48
385.391	0.48
385.757	0.5
386.123	0.48
386.49	0.48
386.856	0.47
387.222	0.49
387.588	0.48
387.954	0.46
388.32	0.49
388.686	0.48
389.052	0.46
389.418	0.46
389.784	0.46
390.15	0.49
390.515	0.47
390.881	0.49
391.247	0.47
391.613	0.47
391.978	0.47
392.344	0.47
392.709	0.47
393.075	0.46
393.44	0.45
393.806	0.44
394.171	0.46
394.536	0.47
394.902	0.46
395.267	0.44
395.632	0.44
395.997	0.44
396.362	0.45
396.727	0.46
397.092	0.46
397.457	0.43
397.822	0.44
398.187	0.44
398.552	0.44
398.917	0.42
399.282	0.42
399.646	0.41
400.011	0.43
400.376	0.39
400.74	0.41
401.105	0.41
401.47	0.43
401.834	0.42
402.199	0.41
402.563	0.37
402.927	0.38
403.292	0.4
403.656	0.39
404.02	0.4
404.384	0.4
404.749	0.39
405.113	0.39
405.477	0.4
405.841	0.37
406.205	0.36
406.569	0.36
406.933	0.38
407.296	0.36
407.66	0.36
408.024	0.37
408.388	0.37
408.752	0.35
409.115	0.36
409.479	0.35
409.842	0.35
410.206	0.34
410.569	0.36
410.933	0.36
411.296	0.34
411.66	0.35
412.023	0.34
412.386	0.33
412.749	0.32
413.113	0.32
413.476	0.3
413.839	0.33
414.202	0.31
414.565	0.3
414.928	0.33
415.291	0.28
415.654	0.32
416.017	0.31
416.38	0.31
416.742	0.3
417.105	0.3
417.468	0.31
417.83	0.3
418.193	0.31
418.556	0.29
418.918	0.29
419.281	0.29
419.643	0.29
420.005	0.28
420.368	0.29
420.73	0.28
421.092	0.3
421.455	0.29
421.817	0.27
422.179	0.28
422.541	0.28
422.903	0.27
423.265	0.27
423.627	0.28
423.989	0.27
424.351	0.26
424.713	0.26
425.075	0.25
425.436	0.26
425.798	0.25
426.16	0.28
426.521	0.28
426.883	0.26
427.245	0.25
427.606	0.26
427.967	0.26
428.329	0.25
428.69	0.27
429.052	0.27
429.413	0.26
429.774	0.26
430.135	0.25
430.497	0.25
430.858	0.24
431.219	0.23
431.58	0.24
431.941	0.24
432.302	0.26
432.663	0.24
433.024	0.26
433.384	0.26
433.745	0.23
434.106	0.24
434.467	0.25
434.827	0.24
435.188	0.24
435.548	0.25
435.909	0.22
436.269	0.24
436.63	0.24
436.99	0.25
437.351	0.24
437.711	0.24
438.071	0.24
438.431	0.24
438.792	0.23
439.152	0.23
439.512	0.23
439.872	0.23
440.232	0.25
440.592	0.24
440.952	0.24
441.312	0.23
441.671	0.22
442.031	0.22
442.391	0.22
442.751	0.23
443.11	0.21
443.47	0.2
443.83	0.21
444.189	0.22
444.549	0.22
444.908	0.22
445.267	0.21
445.627	0.19
445.986	0.19
446.345	0.19
446.705	0.2
447.064	0.22
447.423	0.2
447.782	0.2
448.141	0.21
448.5	0.2
448.859	0.21
449.218	0.2
449.577	0.2
449.936	0.22
450.295	0.21
450.653	0.2
451.012	0.21
451.371	0.21
451.729	0.2
452.088	0.2
452.447	0.2
452.805	0.2
453.163	0.2
453.522	0.21
453.88	0.19
454.239	0.19
454.597	0.19
454.955	0.19
455.313	0.18
455.671	0.19
456.029	0.18
456.388	0.17
456.746	0.18
457.104	0.17
457.461	0.17
457.819	0.17
458.177	0.17
458.535	0.16
458.893	0.17
459.25	0.16
459.608	0.16
459.966	0.16
460.323	0.16
460.681	0.15
461.038	0.16
461.396	0.16
461.753	0.16
462.111	0.15
462.468	0.15
462.825	0.15
463.182	0.15
463.54	0.14
463.897	0.15
464.254	0.14
464.611	0.15
464.968	0.14
465.325	0.15
465.682	0.14
466.039	0.14
466.395	0.14
466.752	0.15
467.109	0.14
467.466	0.14
467.822	0.14
468.179	0.13
468.535	0.13
468.892	0.13
469.248	0.13
469.605	0.13
469.961	0.13
470.318	0.14
470.674	0.13
471.03	0.12
471.386	0.13
471.743	0.13
472.099	0.13
472.455	0.13
472.811	0.12
473.167	0.12
473.523	0.11
473.879	0.12
474.235	0.12
474.59	0.11
474.946	0.11
475.302	0.11
475.657	0.11
476.013	0.1
476.369	0.1
476.724	0.11
477.08	0.11
477.435	0.11
477.791	0.1
478.146	0.11
478.501	0.1
478.857	0.1
479.212	0.11
479.567	0.1
479.922	0.1
480.277	0.1
480.632	0.09
480.987	0.1
481.342	0.1
481.697	0.09
482.052	0.1
482.407	0.09
482.762	0.09
483.116	0.09
483.471	0.09
483.826	0.09
484.18	0.08
484.535	0.09
484.89	0.09
485.244	0.09
485.598	0.09
485.953	0.09
486.307	0.09
486.661	0.09
487.016	0.08
487.37	0.08
487.724	0.09
488.078	0.08
488.432	0.09
488.786	0.08
489.14	0.08
489.494	0.08
489.848	0.08
490.202	0.08
490.556	0.08
490.91	0.08
491.263	0.08
491.617	0.08
491.971	0.08
492.324	0.07
492.678	0.08
493.031	0.08
493.385	0.08
493.738	0.08
494.091	0.08
494.445	0.07
494.798	0.08
495.151	0.07
495.504	0.07
495.857	0.07
496.21	0.07
496.564	0.07
496.916	0.08
497.269	0.06
497.622	0.07
497.975	0.07
498.328	0.07
498.681	0.07
499.033	0.07
499.386	0.07
499.739	0.07
500.091	0.07
500.444	0.07
500.796	0.06
501.149	0.07
501.501	0.07
501.854	0.07
502.206	0.07
502.558	0.06
502.91	0.07
503.263	0.07
503.615	0.06
503.967	0.06
504.319	0.07
504.671	0.07
505.023	0.06
505.375	0.06
505.726	0.06
506.078	0.06
506.43	0.06
506.782	0.06
507.133	0.06
507.485	0.06
507.837	0.07
508.188	0.07
508.54	0.07
508.891	0.07
509.243	0.06
509.594	0.06
509.945	0.06
510.296	0.05
510.648	0.07
510.999	0.05
511.35	0.06
511.701	0.07
512.052	0.06
512.403	0.06
512.754	0.06
513.105	0.06
513.456	0.06
513.807	0.06
514.157	0.06
514.508	0.06
514.859	0.06
515.209	0.06
515.56	0.06
515.91	0.06
516.261	0.07
516.611	0.06
516.962	0.06
517.312	0.06
517.662	0.07
518.013	0.06
518.363	0.06
518.713	0.06
519.063	0.07
519.413	0.07
519.763	0.06
520.113	0.06
520.463	0.07
520.813	0.06
521.163	0.07
521.512	0.07
521.862	0.06
522.212	0.07
522.562	0.07
522.911	0.06
523.261	0.06
523.61	0.07
523.96	0.07
524.309	0.07
524.658	0.06
525.008	0.06
525.357	0.06
525.706	0.07
526.056	0.06
526.405	0.06
526.754	0.06
527.103	0.06
527.452	0.06
527.801	0.06
528.15	0.07
528.499	0.06
528.847	0.06
529.196	0.07
529.545	0.07
529.893	0.07
530.242	0.07
530.591	0.07
530.939	0.08
531.288	0.07
531.636	0.07
531.985	0.06
532.333	0.07
532.681	0.07
533.029	0.07
533.378	0.07
533.726	0.07
534.074	0.07
534.422	0.06
534.77	0.07
535.118	0.07
535.466	0.07
535.814	0.06
536.162	0.07
536.509	0.07
536.857	0.07
537.205	0.07
537.552	0.07
537.9	0.07
538.248	0.06
538.595	0.07
538.943	0.07
539.29	0.07
539.637	0.06
539.985	0.06
540.332	0.07
540.679	0.06
541.026	0.06
541.373	0.07
541.721	0.06
542.068	0.06
542.415	0.06
542.762	0.06
543.108	0.05
543.455	0.05
543.802	0.05
544.149	0.06
544.496	0.05
544.842	0.05
545.189	0.05
545.535	0.05
545.882	0.06
546.228	0.05
546.575	0.05
546.921	0.05
547.267	0.06
547.614	0.05
547.96	0.05
548.306	0.05
548.652	0.05
548.998	0.06
549.344	0.06
549.69	0.06
550.036	0.05
550.382	0.05
550.728	0.06
551.074	0.06
551.42	0.05
551.765	0.06
552.111	0.06
552.457	0.07
552.802	0.05
553.148	0.06
553.493	0.05
553.839	0.06
554.184	0.06
554.529	0.05
554.875	0.05
555.22	0.06
555.565	0.06
555.91	0.06
556.255	0.07
556.6	0.06
556.945	0.05
557.29	0.06
557.635	0.06
557.98	0.06
558.325	0.06
558.67	0.06
559.014	0.06
559.359	0.06
559.704	0.06
560.048	0.05
560.393	0.05
560.737	0.05
561.082	0.06
561.426	0.05
561.77	0.06
562.115	0.05
562.459	0.05
562.803	0.06
563.147	0.06
563.491	0.06
563.835	0.06
564.179	0.06
564.523	0.06
564.867	0.06
565.211	0.06
565.555	0.06
565.899	0.06
566.242	0.06
566.586	0.05
566.93	0.06
567.273	0.06
567.617	0.06
567.96	0.07
568.304	0.06
568.647	0.06
568.99	0.06
569.334	0.07
569.677	0.06
570.02	0.07
570.363	0.06
570.706	0.07
571.049	0.06
571.392	0.06
571.735	0.05
572.078	0.06
572.421	0.07
572.764	0.07
573.106	0.06
573.449	0.06
573.792	0.06
574.134	0.06
574.477	0.06
574.819	0.06
575.162	0.06
575.504	0.05
575.847	0.06
576.189	0.06
576.531	0.06
576.873	0.06
577.215	0.05
577.558	0.06
577.9	0.05
578.242	0.06
578.584	0.06
578.926	0.06
579.267	0.06
579.609	0.06
579.951	0.05
580.293	0.05
580.634	0.06
580.976	0.06
581.318	0.05
581.659	0.05
582.001	0.06
582.342	0.05
582.683	0.05
583.025	0.05
583.366	0.05
583.707	0.06
584.049	0.05
584.39	0.06
584.731	0.05
585.072	0.05
585.413	0.06
585.754	0.06
586.095	0.05
586.435	0.06
586.776	0.06
587.117	0.05
587.458	0.05
587.798	0.05
588.139	0.05
588.48	0.05
588.82	0.05
589.161	0.06
589.501	0.05
589.841	0.05
590.182	0.05
590.522	0.05
590.862	0.06
591.202	0.06
591.542	0.05
591.882	0.05
592.222	0.05
592.562	0.05
592.902	0.05
593.242	0.05
593.582	0.06
593.922	0.05
594.261	0.05
594.601	0.06
594.941	0.06
595.28	0.05
595.62	0.06
595.959	0.05
596.299	0.05
596.638	0.06
596.977	0.05
597.317	0.06
597.656	0.06
597.995	0.06
598.334	0.06
598.673	0.06
599.012	0.06
599.351	0.06
599.69	0.06
600.029	0.06
600.368	0.06
600.707	0.06
601.046	0.06
601.384	0.06
601.723	0.07
602.061	0.06
602.4	0.06
602.738	0.06
603.077	0.06
603.415	0.06
603.754	0.05
604.092	0.06
604.43	0.06
604.768	0.06
605.107	0.07
605.445	0.05
605.783	0.05
606.121	0.05
606.459	0.06
606.796	0.06
607.134	0.05
607.472	0.05
607.81	0.06
608.148	0.05
608.485	0.06
608.823	0.05
609.16	0.05
609.498	0.05
609.835	0.05
610.173	0.06
610.51	0.06
610.847	0.06
611.185	0.06
611.522	0.06
611.859	0.06
612.196	0.06
612.533	0.07
612.87	0.07
613.207	0.07
613.544	0.07
613.881	0.08
614.217	0.07
614.554	0.06
614.891	0.06
615.228	0.07
615.564	0.07
615.901	0.07
616.237	0.07
616.574	0.07
616.91	0.08
617.246	0.07
617.583	0.07
617.919	0.07
618.255	0.08
618.591	0.07
618.927	0.07
619.263	0.07
619.599	0.07
619.935	0.07
620.271	0.07
620.607	0.07
620.943	0.06
621.279	0.07
621.614	0.07
621.95	0.07
622.286	0.07
622.621	0.07
622.957	0.06
623.292	0.06
623.627	0.06
623.963	0.06
624.298	0.07
624.633	0.06
624.968	0.06
625.304	0.06
625.639	0.06
625.974	0.06
626.309	0.06
626.644	0.07
626.979	0.06
627.313	0.06
627.648	0.06
627.983	0.06
628.318	0.05
628.652	0.06
628.987	0.05
629.321	0.06
629.656	0.05
629.99	0.05
630.325	0.05
630.659	0.05
630.993	0.05
631.327	0.06
631.662	0.05
631.996	0.05
632.33	0.06
632.664	0.05
632.998	0.05
633.332	0.05
633.666	0.05
633.999	0.05
634.333	0.05
634.667	0.05
635.001	0.05
635.334	0.05
635.668	0.05
636.001	0.05
636.335	0.06
636.668	0.06
637.001	0.05
637.335	0.06
637.668	0.05
638.001	0.05
638.334	0.05
638.668	0.06
639.001	0.05
639.334	0.05
639.667	0.05
639.999	0.05
640.332	0.05
640.665	0.05
640.998	0.05
641.331	0.05
641.663	0.05
641.996	0.05
642.328	0.06
642.661	0.05
642.993	0.05
643.326	0.05
643.658	0.05
643.99	0.04
644.323	0.05
644.655	0.05
644.987	0.05
645.319	0.05
645.651	0.05
645.983	0.05
646.315	0.05
646.647	0.05
646.979	0.06
647.31	0.06
647.642	0.05
647.974	0.05
648.305	0.06
648.637	0.05
648.968	0.06
649.3	0.06
649.631	0.06
649.963	0.06
650.294	0.06
650.625	0.06
650.957	0.06
651.288	0.06
651.619	0.06
651.95	0.06
652.281	0.06
652.612	0.06
652.943	0.06
653.274	0.06
653.604	0.05
653.935	0.06
654.266	0.06
654.596	0.05
654.927	0.05
655.258	0.05
655.588	0.06
655.918	0.06
656.249	0.04
656.579	0.05
656.909	0.06
657.24	0.05
657.57	0.06
657.9	0.06
658.23	0.06
658.56	0.06
658.89	0.06
659.22	0.05
659.55	0.06
659.88	0.06
660.209	0.06
660.539	0.07
660.869	0.07
661.198	0.07
661.528	0.06
661.857	0.06
662.187	0.06
662.516	0.06
662.846	0.06
663.175	0.06
663.504	0.06
663.833	0.06
664.163	0.06
664.492	0.05
664.821	0.06
665.15	0.06
665.479	0.05
665.807	0.06
666.136	0.07
666.465	0.06
666.794	0.06
667.122	0.05
667.451	0.06
667.78	0.06
668.108	0.06
668.437	0.05
668.765	0.06
669.093	0.06
669.422	0.06
669.75	0.06
670.078	0.05
670.406	0.06
670.734	0.06
671.062	0.05
671.39	0.05
671.718	0.06
672.046	0.05
672.374	0.05
672.702	0.06
673.029	0.06
673.357	0.06
673.685	0.07
674.012	0.05
674.34	0.06
674.667	0.07
674.995	0.06
675.322	0.06
675.649	0.05
675.977	0.06
676.304	0.06
676.631	0.06
676.958	0.06
677.285	0.05
677.612	0.05
677.939	0.05
678.266	0.06
678.593	0.06
678.92	0.06
679.246	0.06
679.573	0.06
679.9	0.05
680.226	0.06
680.553	0.05
680.879	0.06
681.206	0.06
681.532	0.05
681.858	0.06
682.184	0.05
682.511	0.05
682.837	0.05
683.163	0.06
683.489	0.05
683.815	0.05
684.141	0.05
684.467	0.05
684.793	0.05
685.118	0.05
685.444	0.05
685.77	0.05
686.095	0.06
686.421	0.05
686.746	0.05
687.072	0.06
687.397	0.05
687.723	0.05
688.048	0.07
688.373	0.05
688.698	0.06
689.023	0.06
689.349	0.06
689.674	0.07
689.999	0.06
690.323	0.06
690.648	0.05
690.973	0.05
691.298	0.05
691.623	0.05
691.947	0.06
692.272	0.06
692.596	0.06
692.921	0.06
693.245	0.06
693.57	0.06
693.894	0.06
694.218	0.06
694.543	0.06
694.867	0.05
695.191	0.05
695.515	0.06
695.839	0.05
696.163	0.05
696.487	0.05
696.811	0.05
697.135	0.06
697.458	0.06
697.782	0.05
698.106	0.05
698.429	0.05
698.753	0.05
699.076	0.05
699.4	0.05
699.723	0.05
700.046	0.05
700.37	0.06
700.693	0.06
701.016	0.06
701.339	0.06
701.662	0.06
701.985	0.06
702.308	0.05
702.631	0.06
702.954	0.06
703.277	0.05
703.599	0.06
703.922	0.05
704.245	0.05
704.567	0.05
704.89	0.05
705.212	0.06
705.535	0.04
705.857	0.05
706.179	0.04
706.502	0.05
706.824	0.04
707.146	0.04
707.468	0.06
707.79	0.05
708.112	0.05
708.434	0.04
708.756	0.05
709.078	0.05
709.399	0.05
709.721	0.05
710.043	0.05
710.364	0.05
710.686	0.05
711.007	0.05
711.329	0.05
711.65	0.06
711.972	0.05
712.293	0.05
712.614	0.05
712.935	0.06
713.256	0.05
713.577	0.06
713.898	0.05
714.219	0.05
714.54	0.05
714.861	0.05
715.182	0.05
715.503	0.05
715.823	0.05
716.144	0.04
716.464	0.04
716.785	0.05
717.105	0.04
717.426	0.05
717.746	0.05
718.066	0.04
718.387	0.04
718.707	0.03
719.027	0.05
719.347	0.04
719.667	0.04
719.987	0.04
720.307	0.04
720.627	0.04
720.947	0.04
721.266	0.05
721.586	0.04
721.906	0.04
722.225	0.04
722.545	0.04
722.864	0.04
723.184	0.04
723.503	0.04
723.823	0.05
724.142	0.04
724.461	0.05
724.78	0.04
725.099	0.04
725.418	0.04
725.737	0.03
726.056	0.04
726.375	0.04
726.694	0.04
727.013	0.04
727.331	0.04
727.65	0.04
727.969	0.04
728.287	0.05
728.606	0.04
728.924	0.04
729.242	0.04
729.561	0.04
729.879	0.05
730.197	0.05
730.515	0.05
730.834	0.05
731.152	0.04
731.47	0.04
731.788	0.05
732.105	0.04
732.423	0.05
732.741	0.04
733.059	0.04
733.376	0.05
733.694	0.04
734.012	0.04
734.329	0.05
734.647	0.04
734.964	0.05
735.281	0.05
735.599	0.05
735.916	0.05
736.233	0.05
736.55	0.04
736.867	0.04
737.184	0.06
737.501	0.04
737.818	0.05
738.135	0.04
738.452	0.04
738.768	0.05
739.085	0.05
739.402	0.03
739.718	0.04
740.035	0.04
740.351	0.05
740.668	0.05
740.984	0.04
741.3	0.04
741.617	0.05
741.933	0.05
742.249	0.05
742.565	0.05
742.881	0.04
743.197	0.05
743.513	0.04
743.829	0.05
744.144	0.04
744.46	0.05
744.776	0.04
745.091	0.05
745.407	0.04
745.722	0.04
746.038	0.03
746.353	0.03
746.669	0.04
746.984	0.03
747.299	0.04
747.614	0.04
747.93	0.04
748.245	0.03
748.56	0.04
748.875	0.03
749.189	0.04
749.504	0.04
749.819	0.04
750.134	0.04
750.448	0.04
750.763	0.03
751.078	0.03
751.392	0.04
751.707	0.05
752.021	0.05
752.335	0.05
752.65	0.05
752.964	0.04
753.278	0.05
753.592	0.04
753.906	0.04
754.22	0.05
754.534	0.05
754.848	0.04
755.162	0.05
755.476	0.05
755.789	0.05
756.103	0.04
756.417	0.05
756.73	0.05
757.044	0.05
757.357	0.05
757.671	0.05
757.984	0.05
758.297	0.05
758.61	0.05
758.924	0.05
759.237	0.05
759.55	0.05
759.863	0.04
760.176	0.05
760.488	0.05
760.801	0.04
761.114	0.04
761.427	0.04
761.739	0.05
762.052	0.04
762.365	0.04
762.677	0.05
762.99	0.04
763.302	0.05
763.614	0.04
763.926	0.05
764.239	0.04
764.551	0.04
764.863	0.04
765.175	0.04
765.487	0.04
765.799	0.04
766.111	0.04
766.423	0.04
766.734	0.04
767.046	0.04
767.358	0.04
767.669	0.05
767.981	0.04
768.292	0.04
768.604	0.04
768.915	0.04
769.226	0.04
769.537	0.03
769.849	0.04
770.16	0.04
770.471	0.04
770.782	0.03
771.093	0.04
771.404	0.02
771.715	0.03
772.025	0.04
772.336	0.03
772.647	0.03
772.957	0.03
773.268	0.04
773.578	0.03
773.889	0.04
774.199	0.04
774.51	0.04
774.82	0.04
775.13	0.04
775.44	0.04
775.75	0.05
776.06	0.05
776.37	0.04
776.68	0.05
776.99	0.05
777.3	0.04
777.61	0.05
777.92	0.05
778.229	0.04
778.539	0.04
778.848	0.04
779.158	0.04
779.467	0.04
779.777	0.03
780.086	0.05
780.395	0.04
780.704	0.03
781.013	0.03
781.323	0.03
781.632	0.04
781.941	0.04
782.249	0.05
782.558	0.03
782.867	0.05
783.176	0.03
783.485	0.03
783.793	0.04
784.102	0.03
784.41	0.04
784.719	0.04
785.027	0.03
785.335	0.03
785.644	0.04
785.952	0.04
786.26	0.04
786.568	0.04
786.876	0.03
787.184	0.03
787.492	0.04
787.8	0.04
788.108	0.04
788.416	0.03
788.723	0.04
789.031	0.03
789.338	0.03
789.646	0.04
789.953	0.03
790.261	0.05
790.568	0.04
790.876	0.04
791.183	0.04
791.49	0.04
791.797	0.04
792.104	0.03
792.411	0.05
792.718	0.04
793.025	0.04
793.332	0.04
793.639	0.05
793.945	0.05
794.252	0.05
794.559	0.04
794.865	0.05
795.172	0.04
795.478	0.04
795.784	0.05
796.091	0.06
796.397	0.05
796.703	0.05
797.009	0.06
797.315	0.05
797.622	0.05
797.927	0.05
798.233	0.05
798.539	0.06
798.845	0.05
799.151	0.06
799.456	0.06
799.762	0.05
800.068	0.05
800.373	0.06
800.679	0.04
800.984	0.05
801.289	0.05
801.595	0.05
801.9	0.05
802.205	0.04
802.51	0.05
802.815	0.05
803.12	0.04
803.425	0.05
803.73	0.04
804.035	0.05
804.339	0.04
804.644	0.04
804.949	0.05
805.253	0.04
805.558	0.04
805.862	0.04
806.167	0.04
806.471	0.04
806.775	0.04
807.08	0.04
807.384	0.04
807.688	0.04
807.992	0.04
808.296	0.04
808.6	0.05
808.904	0.05
809.207	0.04
809.511	0.05
809.815	0.06
810.119	0.05
810.422	0.05
810.726	0.06
811.029	0.06
811.332	0.06
811.636	0.06
811.939	0.05
812.242	0.06
812.546	0.06
812.849	0.06
813.152	0.07
813.455	0.06
813.758	0.06
814.06	0.06
814.363	0.06
814.666	0.07
814.969	0.06
815.271	0.06
815.574	0.05
815.877	0.06
816.179	0.06
816.481	0.05
816.784	0.06
817.086	0.05
817.388	0.04
817.69	0.04
817.993	0.03
818.295	0.04
818.597	0.04
818.899	0.03
819.2	0.04
819.502	0.04
819.804	0.04
820.106	0.03
820.407	0.04
820.709	0.04
821.01	0.04
821.312	0.04
821.613	0.03
821.915	0.03
822.216	0.03
822.517	0.03
822.818	0.03
823.119	0.04
823.42	0.03
823.721	0.02
824.022	0.03
824.323	0.03
824.624	0.03
824.925	0.03
825.226	0.04
825.526	0.03
825.827	0.03
826.127	0.03
826.428	0.03
826.728	0.03
827.028	0.03
827.329	0.03
827.629	0.03
827.929	0.03
828.229	0.03
828.529	0.03
828.829	0.04
829.129	0.03
829.429	0.03
829.729	0.03
830.029	0.02
830.328	0.03
830.628	0.02
830.927	0.02
831.227	0.02
831.526	0.03
831.826	0.02
832.125	0.03
832.424	0.01
832.724	0.03
833.023	0.03
833.322	0.03
833.621	0.03
833.92	0.01
834.219	0.02
834.518	0.02
834.816	0.02
835.115	0.02
835.414	0.01
835.712	0.01
836.011	0.01
836.309	0.01
836.608	0
836.906	0.01
837.205	0
837.503	0.01
837.801	0.01
838.099	-0
838.397	-0.01
838.695	-0.01
838.993	-0.01
839.291	-0.01
839.589	-0
839.887	-0.01
840.184	-0.01
840.482	-0.02
840.78	-0
841.077	-0.02
841.375	-0.01
841.672	-0.01
841.969	-0.01
842.267	-0.02
842.564	-0.01
842.861	-0.01
843.158	-0.02
843.455	-0.03
843.752	-0.02
844.049	-0.02
844.346	-0.02
844.643	-0.03
844.94	-0.03
845.236	-0.02
845.533	-0.02
845.83	-0.04
846.126	-0.03
846.423	-0.03
846.719	-0.05
847.015	-0.03
847.312	-0.04
847.608	-0.04
847.904	-0.05
848.2	-0.05
848.496	-0.05
848.792	-0.04
849.088	-0.03
849.384	-0.04
849.68	-0.05
849.975	-0.05
850.271	-0.05
850.567	-0.06
850.862	-0.06
851.158	-0.05
851.453	-0.05
851.748	-0.06
852.044	-0.06
852.339	-0.05
852.634	-0.07
852.929	-0.06
853.224	-0.06
853.519	-0.07
853.814	-0.06
854.109	-0.07
854.404	-0.06
854.699	-0.07
854.994	-0.07
855.288	-0.06
855.583	-0.06
855.877	-0.08
856.172	-0.07
856.466	-0.07
856.76	-0.07
857.055	-0.08
857.349	-0.09
857.643	-0.1
857.937	-0.1
858.231	-0.1
858.525	-0.1
858.819	-0.1
859.113	-0.11
859.407	-0.11
859.701	-0.12
859.994	-0.11
860.288	-0.1
860.581	-0.11
860.875	-0.11
861.168	-0.11
861.462	-0.12
861.755	-0.1
862.048	-0.12
862.341	-0.11
862.634	-0.1
862.928	-0.1
863.221	-0.11
863.513	-0.12
863.806	-0.11
864.099	-0.11
864.392	-0.12
864.685	-0.11
864.977	-0.11
865.27	-0.12
865.562	-0.12
865.855	-0.12
866.147	-0.12
866.44	-0.12
866.732	-0.13
867.024	-0.12
867.316	-0.12
867.608	-0.13
867.9	-0.13
868.192	-0.13
868.484	-0.13
868.776	-0.14
869.068	-0.14
869.359	-0.13
869.651	-0.13
869.943	-0.15
870.234	-0.15
870.526	-0.14
870.817	-0.15
871.108	-0.14
871.4	-0.14
871.691	-0.16
871.982	-0.15
872.273	-0.17
872.564	-0.15
872.855	-0.15
873.146	-0.17
873.437	-0.16
873.728	-0.17
874.019	-0.17
874.309	-0.17
874.6	-0.16
874.89	-0.17
875.181	-0.17
875.471	-0.16
875.762	-0.17
876.052	-0.17
876.342	-0.15
876.632	-0.17
876.922	-0.17
877.213	-0.17
877.503	-0.17
877.792	-0.17
878.082	-0.17
878.372	-0.16
878.662	-0.19
878.952	-0.17
879.241	-0.17
879.531	-0.17
879.82	-0.17
880.11	-0.16
880.399	-0.17
880.688	-0.16
880.978	-0.16
881.267	-0.16
