Data from 12-12-AQDScycling_Absorbance__15__00015.txt Node

Date: Tue Dec 12 11:00:29 EST 2023
User: kyuminlee
Spectrometer: FLMS00943
Trigger mode: 0
Integration Time (sec): 1.000000E-1
Scans to average: 1
Electric dark correction enabled: true
Nonlinearity correction enabled: false
Boxcar width: 0
XAxis mode: Wavelengths
Number of Pixels in Spectrum: 2048
>>>>>Begin Spectral Data<<<<<
179.651	-0.37
180.037	-0.37
180.424	-0.37
180.81	-0.4
181.197	0.21
181.583	-0
181.97	-0
182.356	-0
182.743	-0
183.129	-0
183.515	-0
183.901	-1.86
184.288	0.82
184.674	0.73
185.06	-0.78
185.446	0.19
185.832	-0
186.218	0.21
186.604	-0
186.99	-0
187.376	0.18
187.762	-0
188.148	0.35
188.534	-0.44
188.92	0.11
189.305	0.12
189.691	0.15
190.077	0.11
190.463	0.06
190.848	0.04
191.234	0.12
191.619	0.15
192.005	0.27
192.391	0.06
192.776	0.12
193.161	-0.01
193.547	0.14
193.932	-0.06
194.318	0.06
194.703	0.14
195.088	0.18
195.473	0.17
195.859	0.16
196.244	0.19
196.629	0.2
197.014	0.09
197.399	0.25
197.784	0.28
198.169	0.29
198.554	0.22
198.939	0.21
199.324	0.17
199.709	0.08
200.094	0.07
200.478	0.07
200.863	0.05
201.248	0.19
201.633	0.1
202.017	0.15
202.402	0.14
202.787	0.17
203.171	0.19
203.556	0.23
203.94	0.02
204.325	0.3
204.709	0.2
205.093	0.13
205.478	0.16
205.862	0.25
206.246	0.08
206.631	0.17
207.015	0.12
207.399	0.27
207.783	0.13
208.167	0.13
208.551	0.21
208.935	0.22
209.319	0.18
209.703	0.11
210.087	0.21
210.471	-0.01
210.855	0.24
211.239	0.13
211.623	0.36
212.007	0.29
212.39	0.32
212.774	0.02
213.158	0.07
213.541	0.12
213.925	0.17
214.309	0.3
214.692	0.34
215.076	0.2
215.459	0.14
215.842	0.17
216.226	0.31
216.609	0.26
216.993	0.24
217.376	0.35
217.759	0.21
218.142	0.36
218.525	0.51
218.909	0.32
219.292	0.29
219.675	0.48
220.058	0.37
220.441	0.52
220.824	0.45
221.207	0.5
221.59	0.41
221.973	0.54
222.355	0.6
222.738	0.75
223.121	0.64
223.504	0.6
223.886	0.65
224.269	0.75
224.652	0.68
225.034	0.65
225.417	0.68
225.799	0.73
226.182	0.82
226.564	0.89
226.947	0.73
227.329	0.8
227.711	0.87
228.094	0.74
228.476	0.87
228.858	0.83
229.24	0.85
229.623	0.97
230.005	0.77
230.387	0.85
230.769	0.89
231.151	1.02
231.533	1.04
231.915	0.92
232.297	0.96
232.679	0.84
233.061	1.11
233.442	1.05
233.824	0.98
234.206	1.16
234.588	1.01
234.969	1.12
235.351	0.95
235.733	1.07
236.114	0.98
236.496	1.01
236.877	1.05
237.259	0.96
237.64	1.1
238.022	1.05
238.403	1.02
238.784	1
239.165	0.96
239.547	1.06
239.928	1.04
240.309	1.12
240.69	1.14
241.071	1.03
241.452	1.07
241.834	1
242.215	1.13
242.595	1.02
242.976	1.13
243.357	1.24
243.738	0.99
244.119	1.18
244.5	1.07
244.881	1.19
245.261	1.21
245.642	1.17
246.023	1.12
246.403	1.12
246.784	1.18
247.164	1.2
247.545	1.26
247.925	1.22
248.306	1.18
248.686	1.26
249.067	1.21
249.447	1.32
249.827	1.44
250.207	1.35
250.588	1.52
250.968	1.31
251.348	1.32
251.728	1.28
252.108	1.28
252.488	1.39
252.868	1.31
253.248	1.32
253.628	1.33
254.008	1.46
254.388	1.33
254.768	1.23
255.147	1.37
255.527	1.42
255.907	1.35
256.287	1.44
256.666	1.47
257.046	1.6
257.425	1.62
257.805	1.38
258.184	1.27
258.564	1.33
258.943	1.33
259.323	1.46
259.702	1.41
260.081	1.41
260.461	1.38
260.84	1.37
261.219	1.53
261.598	1.59
261.977	1.4
262.356	1.59
262.736	1.38
263.115	1.46
263.494	1.44
263.873	1.42
264.251	1.52
264.63	1.54
265.009	1.36
265.388	1.54
265.767	1.32
266.145	1.51
266.524	1.55
266.903	1.41
267.281	1.34
267.66	1.4
268.039	1.55
268.417	1.37
268.796	1.41
269.174	1.46
269.552	1.39
269.931	1.44
270.309	1.41
270.687	1.52
271.066	1.55
271.444	1.31
271.822	1.51
272.2	1.36
272.578	1.37
272.956	1.38
273.334	1.33
273.712	1.37
274.09	1.41
274.468	1.26
274.846	1.25
275.224	1.3
275.602	1.33
275.98	1.5
276.357	1.33
276.735	1.5
277.113	1.37
277.49	1.33
277.868	1.31
278.246	1.53
278.623	1.39
279.001	1.22
279.378	1.39
279.756	1.5
280.133	1.38
280.51	1.28
280.888	1.3
281.265	1.39
281.642	1.45
282.019	1.59
282.396	1.51
282.773	1.39
283.151	1.44
283.528	1.47
283.905	1.38
284.282	1.47
284.659	1.64
285.035	1.33
285.412	1.32
285.789	1.36
286.166	1.39
286.543	1.41
286.919	1.58
287.296	1.41
287.673	1.56
288.049	1.51
288.426	1.54
288.802	1.44
289.179	1.41
289.555	1.63
289.932	1.47
290.308	1.31
290.684	1.42
291.061	1.35
291.437	1.42
291.813	1.38
292.189	1.29
292.565	1.3
292.942	1.39
293.318	1.41
293.694	1.43
294.07	1.26
294.446	1.5
294.822	1.51
295.197	1.43
295.573	1.44
295.949	1.33
296.325	1.45
296.701	1.48
297.076	1.58
297.452	1.43
297.828	1.33
298.203	1.51
298.579	1.56
298.954	1.49
299.33	1.34
299.705	1.4
300.081	1.53
300.456	1.48
300.831	1.43
301.206	1.42
301.582	1.6
301.957	1.53
302.332	1.67
302.707	1.36
303.082	1.4
303.457	1.53
303.832	1.5
304.207	1.42
304.582	1.42
304.957	1.37
305.332	1.61
305.707	1.51
306.082	1.48
306.456	1.57
306.831	1.39
307.206	1.42
307.58	1.49
307.955	1.48
308.33	1.52
308.704	1.53
309.079	1.37
309.453	1.63
309.828	1.51
310.202	1.51
310.576	1.55
310.951	1.49
311.325	1.68
311.699	1.38
312.073	1.46
312.447	1.43
312.821	1.43
313.196	1.41
313.57	1.4
313.944	1.43
314.317	1.36
314.691	1.59
315.065	1.44
315.439	1.42
315.813	1.57
316.187	1.43
316.56	1.65
316.934	1.66
317.308	1.38
317.681	1.54
318.055	1.54
318.428	1.54
318.802	1.55
319.175	1.48
319.549	1.46
319.922	1.39
320.295	1.63
320.669	1.5
321.042	1.47
321.415	1.78
321.788	1.51
322.162	1.49
322.535	1.43
322.908	1.68
323.281	1.49
323.654	1.6
324.027	1.42
324.4	1.51
324.773	1.49
325.145	1.53
325.518	1.36
325.891	1.42
326.264	1.63
326.636	1.36
327.009	1.47
327.382	1.46
327.754	1.51
328.127	1.46
328.499	1.5
328.872	1.42
329.244	1.71
329.616	1.55
329.989	1.37
330.361	1.53
330.733	1.56
331.106	1.45
331.478	1.54
331.85	1.38
332.222	1.44
332.594	1.5
332.966	1.37
333.338	1.63
333.71	1.64
334.082	1.62
334.454	1.37
334.826	1.46
335.197	1.56
335.569	1.37
335.941	1.35
336.312	1.41
336.684	1.53
337.056	1.55
337.427	1.51
337.799	1.48
338.17	1.51
338.542	1.43
338.913	1.46
339.284	1.58
339.656	1.39
340.027	1.62
340.398	1.58
340.769	1.52
341.141	1.65
341.512	1.53
341.883	1.54
342.254	1.54
342.625	1.68
342.996	1.55
343.367	1.54
343.738	1.51
344.108	1.34
344.479	1.63
344.85	1.39
345.221	1.57
345.591	1.33
345.962	1.51
346.333	1.43
346.703	1.28
347.074	1.4
347.444	1.37
347.815	1.48
348.185	1.5
348.556	1.25
348.926	1.34
349.296	1.41
349.666	1.3
350.037	1.3
350.407	1.31
350.777	1.37
351.147	1.44
351.517	1.35
351.887	1.25
352.257	1.38
352.627	1.32
352.997	1.34
353.367	1.4
353.737	1.48
354.106	1.35
354.476	1.24
354.846	1.33
355.216	1.34
355.585	1.33
355.955	1.25
356.324	1.26
356.694	1.26
357.063	1.24
357.433	1.17
357.802	1.17
358.171	1.19
358.541	1.18
358.91	1.21
359.279	1.16
359.648	1.16
360.017	1.17
360.387	1.07
360.756	1.07
361.125	0.99
361.494	1.06
361.863	1.05
362.231	1
362.6	0.97
362.969	0.96
363.338	0.91
363.707	0.96
364.075	0.99
364.444	0.85
364.813	0.87
365.181	0.85
365.55	0.84
365.918	0.87
366.287	0.8
366.655	0.8
367.024	0.79
367.392	0.8
367.76	0.76
368.128	0.75
368.497	0.77
368.865	0.72
369.233	0.72
369.601	0.71
369.969	0.68
370.337	0.68
370.705	0.67
371.073	0.66
371.441	0.64
371.809	0.66
372.177	0.66
372.544	0.62
372.912	0.61
373.28	0.62
373.647	0.6
374.015	0.61
374.383	0.58
374.75	0.6
375.118	0.57
375.485	0.57
375.853	0.56
376.22	0.56
376.587	0.54
376.955	0.54
377.322	0.53
377.689	0.52
378.056	0.52
378.423	0.5
378.79	0.54
379.157	0.52
379.524	0.52
379.891	0.53
380.258	0.49
380.625	0.51
380.992	0.51
381.359	0.5
381.726	0.51
382.092	0.51
382.459	0.5
382.826	0.49
383.192	0.49
383.559	0.5
383.925	0.49
384.292	0.47
384.658	0.5
385.025	0.49
385.391	0.49
385.757	0.48
386.123	0.49
386.49	0.49
386.856	0.49
387.222	0.47
387.588	0.48
387.954	0.51
388.32	0.48
388.686	0.5
389.052	0.49
389.418	0.48
389.784	0.49
390.15	0.48
390.515	0.48
390.881	0.5
391.247	0.48
391.613	0.49
391.978	0.46
392.344	0.48
392.709	0.47
393.075	0.46
393.44	0.49
393.806	0.47
394.171	0.47
394.536	0.47
394.902	0.45
395.267	0.45
395.632	0.45
395.997	0.45
396.362	0.45
396.727	0.46
397.092	0.46
397.457	0.47
397.822	0.43
398.187	0.45
398.552	0.44
398.917	0.43
399.282	0.42
399.646	0.45
400.011	0.44
400.376	0.43
400.74	0.44
401.105	0.42
401.47	0.43
401.834	0.41
402.199	0.41
402.563	0.39
402.927	0.39
403.292	0.41
403.656	0.42
404.02	0.4
404.384	0.39
404.749	0.4
405.113	0.38
405.477	0.38
405.841	0.37
406.205	0.37
406.569	0.38
406.933	0.37
407.296	0.34
407.66	0.37
408.024	0.36
408.388	0.37
408.752	0.36
409.115	0.35
409.479	0.35
409.842	0.35
410.206	0.33
410.569	0.35
410.933	0.34
411.296	0.35
411.66	0.34
412.023	0.32
412.386	0.32
412.749	0.32
413.113	0.33
413.476	0.3
413.839	0.32
414.202	0.3
414.565	0.3
414.928	0.31
415.291	0.29
415.654	0.31
416.017	0.29
416.38	0.28
416.742	0.29
417.105	0.27
417.468	0.29
417.83	0.29
418.193	0.3
418.556	0.29
418.918	0.29
419.281	0.28
419.643	0.28
420.005	0.27
420.368	0.27
420.73	0.28
421.092	0.27
421.455	0.26
421.817	0.26
422.179	0.25
422.541	0.28
422.903	0.26
423.265	0.27
423.627	0.26
423.989	0.26
424.351	0.27
424.713	0.25
425.075	0.24
425.436	0.25
425.798	0.24
426.16	0.26
426.521	0.26
426.883	0.25
427.245	0.25
427.606	0.24
427.967	0.25
428.329	0.25
428.69	0.25
429.052	0.24
429.413	0.24
429.774	0.24
430.135	0.23
430.497	0.23
430.858	0.23
431.219	0.24
431.58	0.23
431.941	0.22
432.302	0.23
432.663	0.22
433.024	0.23
433.384	0.23
433.745	0.23
434.106	0.24
434.467	0.23
434.827	0.23
435.188	0.25
435.548	0.24
435.909	0.23
436.269	0.24
436.63	0.22
436.99	0.23
437.351	0.23
437.711	0.23
438.071	0.22
438.431	0.22
438.792	0.21
439.152	0.21
439.512	0.21
439.872	0.21
440.232	0.22
440.592	0.23
440.952	0.21
441.312	0.2
441.671	0.21
442.031	0.2
442.391	0.21
442.751	0.22
443.11	0.19
443.47	0.19
443.83	0.21
444.189	0.2
444.549	0.2
444.908	0.21
445.267	0.21
445.627	0.19
445.986	0.18
446.345	0.18
446.705	0.18
447.064	0.19
447.423	0.19
447.782	0.19
448.141	0.19
448.5	0.18
448.859	0.19
449.218	0.18
449.577	0.19
449.936	0.19
450.295	0.18
450.653	0.18
451.012	0.18
451.371	0.19
451.729	0.19
452.088	0.19
452.447	0.19
452.805	0.19
453.163	0.18
453.522	0.19
453.88	0.17
454.239	0.17
454.597	0.17
454.955	0.18
455.313	0.17
455.671	0.17
456.029	0.17
456.388	0.16
456.746	0.17
457.104	0.16
457.461	0.15
457.819	0.15
458.177	0.15
458.535	0.15
458.893	0.15
459.25	0.15
459.608	0.16
459.966	0.14
460.323	0.15
460.681	0.14
461.038	0.14
461.396	0.15
461.753	0.14
462.111	0.14
462.468	0.13
462.825	0.14
463.182	0.14
463.54	0.13
463.897	0.13
464.254	0.14
464.611	0.13
464.968	0.13
465.325	0.13
465.682	0.12
466.039	0.13
466.395	0.13
466.752	0.12
467.109	0.12
467.466	0.13
467.822	0.13
468.179	0.12
468.535	0.12
468.892	0.11
469.248	0.11
469.605	0.11
469.961	0.11
470.318	0.12
470.674	0.11
471.03	0.11
471.386	0.11
471.743	0.11
472.099	0.1
472.455	0.1
472.811	0.09
473.167	0.11
473.523	0.1
473.879	0.11
474.235	0.1
474.59	0.1
474.946	0.09
475.302	0.1
475.657	0.1
476.013	0.1
476.369	0.09
476.724	0.1
477.08	0.1
477.435	0.1
477.791	0.09
478.146	0.1
478.501	0.1
478.857	0.1
479.212	0.09
479.567	0.09
479.922	0.08
480.277	0.08
480.632	0.08
480.987	0.08
481.342	0.08
481.697	0.08
482.052	0.07
482.407	0.08
482.762	0.08
483.116	0.08
483.471	0.07
483.826	0.07
484.18	0.07
484.535	0.07
484.89	0.07
485.244	0.08
485.598	0.08
485.953	0.08
486.307	0.07
486.661	0.08
487.016	0.07
487.37	0.07
487.724	0.08
488.078	0.07
488.432	0.07
488.786	0.07
489.14	0.07
489.494	0.07
489.848	0.07
490.202	0.06
490.556	0.07
490.91	0.07
491.263	0.07
491.617	0.07
491.971	0.07
492.324	0.06
492.678	0.06
493.031	0.07
493.385	0.07
493.738	0.06
494.091	0.07
494.445	0.07
494.798	0.07
495.151	0.06
495.504	0.07
495.857	0.06
496.21	0.07
496.564	0.06
496.916	0.07
497.269	0.06
497.622	0.06
497.975	0.06
498.328	0.07
498.681	0.07
499.033	0.06
499.386	0.06
499.739	0.06
500.091	0.06
500.444	0.06
500.796	0.06
501.149	0.06
501.501	0.06
501.854	0.06
502.206	0.06
502.558	0.06
502.91	0.06
503.263	0.06
503.615	0.06
503.967	0.05
504.319	0.06
504.671	0.06
505.023	0.05
505.375	0.06
505.726	0.05
506.078	0.06
506.43	0.05
506.782	0.05
507.133	0.05
507.485	0.06
507.837	0.06
508.188	0.06
508.54	0.05
508.891	0.06
509.243	0.05
509.594	0.06
509.945	0.05
510.296	0.05
510.648	0.06
510.999	0.05
511.35	0.05
511.701	0.05
512.052	0.05
512.403	0.05
512.754	0.05
513.105	0.05
513.456	0.04
513.807	0.04
514.157	0.04
514.508	0.05
514.859	0.03
515.209	0.04
515.56	0.04
515.91	0.04
516.261	0.05
516.611	0.05
516.962	0.04
517.312	0.04
517.662	0.04
518.013	0.04
518.363	0.05
518.713	0.04
519.063	0.05
519.413	0.05
519.763	0.04
520.113	0.05
520.463	0.05
520.813	0.05
521.163	0.05
521.512	0.04
521.862	0.04
522.212	0.05
522.562	0.05
522.911	0.04
523.261	0.05
523.61	0.05
523.96	0.04
524.309	0.05
524.658	0.05
525.008	0.05
525.357	0.05
525.706	0.06
526.056	0.05
526.405	0.05
526.754	0.05
527.103	0.05
527.452	0.05
527.801	0.05
528.15	0.05
528.499	0.04
528.847	0.05
529.196	0.05
529.545	0.04
529.893	0.05
530.242	0.04
530.591	0.05
530.939	0.06
531.288	0.05
531.636	0.05
531.985	0.05
532.333	0.05
532.681	0.05
533.029	0.05
533.378	0.05
533.726	0.05
534.074	0.05
534.422	0.04
534.77	0.06
535.118	0.05
535.466	0.05
535.814	0.05
536.162	0.05
536.509	0.06
536.857	0.04
537.205	0.05
537.552	0.04
537.9	0.04
538.248	0.03
538.595	0.04
538.943	0.05
539.29	0.05
539.637	0.04
539.985	0.04
540.332	0.04
540.679	0.04
541.026	0.04
541.373	0.05
541.721	0.04
542.068	0.05
542.415	0.04
542.762	0.04
543.108	0.04
543.455	0.03
543.802	0.03
544.149	0.04
544.496	0.05
544.842	0.04
545.189	0.04
545.535	0.03
545.882	0.05
546.228	0.04
546.575	0.04
546.921	0.04
547.267	0.04
547.614	0.04
547.96	0.04
548.306	0.04
548.652	0.04
548.998	0.05
549.344	0.04
549.69	0.04
550.036	0.04
550.382	0.04
550.728	0.03
551.074	0.05
551.42	0.05
551.765	0.04
552.111	0.04
552.457	0.05
552.802	0.04
553.148	0.04
553.493	0.04
553.839	0.04
554.184	0.04
554.529	0.04
554.875	0.04
555.22	0.04
555.565	0.05
555.91	0.04
556.255	0.05
556.6	0.04
556.945	0.04
557.29	0.03
557.635	0.04
557.98	0.04
558.325	0.04
558.67	0.04
559.014	0.04
559.359	0.04
559.704	0.03
560.048	0.03
560.393	0.03
560.737	0.03
561.082	0.04
561.426	0.03
561.77	0.03
562.115	0.03
562.459	0.03
562.803	0.03
563.147	0.03
563.491	0.04
563.835	0.04
564.179	0.03
564.523	0.03
564.867	0.03
565.211	0.04
565.555	0.04
565.899	0.04
566.242	0.04
566.586	0.03
566.93	0.04
567.273	0.04
567.617	0.04
567.96	0.04
568.304	0.04
568.647	0.04
568.99	0.04
569.334	0.05
569.677	0.04
570.02	0.05
570.363	0.04
570.706	0.04
571.049	0.04
571.392	0.05
571.735	0.05
572.078	0.04
572.421	0.05
572.764	0.05
573.106	0.05
573.449	0.04
573.792	0.04
574.134	0.04
574.477	0.04
574.819	0.04
575.162	0.04
575.504	0.04
575.847	0.04
576.189	0.04
576.531	0.04
576.873	0.04
577.215	0.04
577.558	0.04
577.9	0.03
578.242	0.04
578.584	0.04
578.926	0.03
579.267	0.03
579.609	0.04
579.951	0.03
580.293	0.03
580.634	0.04
580.976	0.04
581.318	0.03
581.659	0.03
582.001	0.03
582.342	0.04
582.683	0.05
583.025	0.03
583.366	0.04
583.707	0.04
584.049	0.03
584.39	0.04
584.731	0.03
585.072	0.03
585.413	0.04
585.754	0.03
586.095	0.03
586.435	0.03
586.776	0.04
587.117	0.03
587.458	0.03
587.798	0.04
588.139	0.03
588.48	0.03
588.82	0.03
589.161	0.03
589.501	0.02
589.841	0.03
590.182	0.03
590.522	0.02
590.862	0.03
591.202	0.03
591.542	0.03
591.882	0.03
592.222	0.04
592.562	0.04
592.902	0.03
593.242	0.03
593.582	0.04
593.922	0.03
594.261	0.03
594.601	0.03
594.941	0.03
595.28	0.04
595.62	0.03
595.959	0.03
596.299	0.03
596.638	0.03
596.977	0.03
597.317	0.04
597.656	0.04
597.995	0.03
598.334	0.04
598.673	0.03
599.012	0.03
599.351	0.04
599.69	0.04
600.029	0.04
600.368	0.04
600.707	0.03
601.046	0.03
601.384	0.04
601.723	0.04
602.061	0.03
602.4	0.03
602.738	0.03
603.077	0.03
603.415	0.03
603.754	0.04
604.092	0.04
604.43	0.04
604.768	0.04
605.107	0.04
605.445	0.03
605.783	0.04
606.121	0.03
606.459	0.03
606.796	0.04
607.134	0.03
607.472	0.03
607.81	0.04
608.148	0.03
608.485	0.04
608.823	0.04
609.16	0.03
609.498	0.04
609.835	0.04
610.173	0.04
610.51	0.04
610.847	0.05
611.185	0.04
611.522	0.05
611.859	0.05
612.196	0.05
612.533	0.05
612.87	0.05
613.207	0.05
613.544	0.05
613.881	0.06
614.217	0.05
614.554	0.04
614.891	0.05
615.228	0.05
615.564	0.05
615.901	0.05
616.237	0.05
616.574	0.05
616.91	0.05
617.246	0.05
617.583	0.05
617.919	0.05
618.255	0.05
618.591	0.05
618.927	0.05
619.263	0.06
619.599	0.05
619.935	0.05
620.271	0.05
620.607	0.05
620.943	0.04
621.279	0.05
621.614	0.04
621.95	0.05
622.286	0.04
622.621	0.04
622.957	0.05
623.292	0.04
623.627	0.04
623.963	0.04
624.298	0.04
624.633	0.04
624.968	0.04
625.304	0.04
625.639	0.04
625.974	0.04
626.309	0.03
626.644	0.04
626.979	0.05
627.313	0.04
627.648	0.04
627.983	0.05
628.318	0.04
628.652	0.04
628.987	0.05
629.321	0.05
629.656	0.04
629.99	0.04
630.325	0.04
630.659	0.04
630.993	0.03
631.327	0.04
631.662	0.03
631.996	0.04
632.33	0.04
632.664	0.03
632.998	0.03
633.332	0.03
633.666	0.03
633.999	0.03
634.333	0.02
634.667	0.03
635.001	0.02
635.334	0.03
635.668	0.03
636.001	0.03
636.335	0.03
636.668	0.04
637.001	0.02
637.335	0.03
637.668	0.03
638.001	0.03
638.334	0.03
638.668	0.03
639.001	0.03
639.334	0.03
639.667	0.03
639.999	0.03
640.332	0.03
640.665	0.03
640.998	0.03
641.331	0.03
641.663	0.03
641.996	0.03
642.328	0.04
642.661	0.03
642.993	0.03
643.326	0.04
643.658	0.03
643.99	0.03
644.323	0.03
644.655	0.03
644.987	0.03
645.319	0.04
645.651	0.04
645.983	0.04
646.315	0.03
646.647	0.04
646.979	0.05
647.31	0.05
647.642	0.04
647.974	0.04
648.305	0.05
648.637	0.04
648.968	0.04
649.3	0.05
649.631	0.04
649.963	0.04
650.294	0.04
650.625	0.04
650.957	0.05
651.288	0.04
651.619	0.04
651.95	0.04
652.281	0.03
652.612	0.04
652.943	0.04
653.274	0.05
653.604	0.04
653.935	0.04
654.266	0.04
654.596	0.04
654.927	0.03
655.258	0.04
655.588	0.04
655.918	0.04
656.249	0.03
656.579	0.04
656.909	0.04
657.24	0.04
657.57	0.05
657.9	0.04
658.23	0.05
658.56	0.05
658.89	0.05
659.22	0.04
659.55	0.04
659.88	0.05
660.209	0.05
660.539	0.06
660.869	0.05
661.198	0.05
661.528	0.05
661.857	0.04
662.187	0.05
662.516	0.04
662.846	0.05
663.175	0.04
663.504	0.05
663.833	0.04
664.163	0.05
664.492	0.04
664.821	0.05
665.15	0.04
665.479	0.04
665.807	0.04
666.136	0.05
666.465	0.04
666.794	0.04
667.122	0.04
667.451	0.04
667.78	0.05
668.108	0.05
668.437	0.03
668.765	0.04
669.093	0.04
669.422	0.04
669.75	0.04
670.078	0.04
670.406	0.05
670.734	0.04
671.062	0.04
671.39	0.04
671.718	0.04
672.046	0.04
672.374	0.04
672.702	0.04
673.029	0.04
673.357	0.04
673.685	0.05
674.012	0.04
674.34	0.05
674.667	0.05
674.995	0.04
675.322	0.04
675.649	0.04
675.977	0.04
676.304	0.04
676.631	0.04
676.958	0.04
677.285	0.03
677.612	0.03
677.939	0.03
678.266	0.03
678.593	0.03
678.92	0.04
679.246	0.03
679.573	0.03
679.9	0.02
680.226	0.03
680.553	0.02
680.879	0.03
681.206	0.03
681.532	0.03
681.858	0.03
682.184	0.03
682.511	0.03
682.837	0.03
683.163	0.03
683.489	0.03
683.815	0.02
684.141	0.04
684.467	0.03
684.793	0.03
685.118	0.03
685.444	0.03
685.77	0.03
686.095	0.04
686.421	0.03
686.746	0.03
687.072	0.04
687.397	0.03
687.723	0.04
688.048	0.03
688.373	0.03
688.698	0.03
689.023	0.03
689.349	0.03
689.674	0.03
689.999	0.03
690.323	0.02
690.648	0.02
690.973	0.02
691.298	0.03
691.623	0.03
691.947	0.02
692.272	0.02
692.596	0.03
692.921	0.03
693.245	0.02
693.57	0.03
693.894	0.03
694.218	0.03
694.543	0.03
694.867	0.03
695.191	0.02
695.515	0.02
695.839	0.02
696.163	0.03
696.487	0.02
696.811	0.02
697.135	0.03
697.458	0.03
697.782	0.03
698.106	0.02
698.429	0.03
698.753	0.03
699.076	0.03
699.4	0.03
699.723	0.03
700.046	0.03
700.37	0.03
700.693	0.04
701.016	0.03
701.339	0.03
701.662	0.04
701.985	0.03
702.308	0.03
702.631	0.03
702.954	0.03
703.277	0.03
703.599	0.03
703.922	0.02
704.245	0.02
704.567	0.02
704.89	0.02
705.212	0.02
705.535	0.02
705.857	0.01
706.179	0.01
706.502	0.02
706.824	0.01
707.146	0.01
707.468	0.02
707.79	0.02
708.112	0.01
708.434	0.01
708.756	0.01
709.078	0.02
709.399	0.01
709.721	0.01
710.043	0.02
710.364	0.02
710.686	0.02
711.007	0.02
711.329	0.02
711.65	0.02
711.972	0.02
712.293	0.03
712.614	0.02
712.935	0.02
713.256	0.03
713.577	0.03
713.898	0.03
714.219	0.02
714.54	0.03
714.861	0.02
715.182	0.03
715.503	0.02
715.823	0.03
716.144	0.03
716.464	0.02
716.785	0.02
717.105	0.03
717.426	0.02
717.746	0.02
718.066	0.01
718.387	0.02
718.707	0.01
719.027	0.02
719.347	0.01
719.667	0.02
719.987	0.01
720.307	0.02
720.627	0.02
720.947	0.02
721.266	0.02
721.586	0.01
721.906	0.01
722.225	0.02
722.545	0.02
722.864	0.01
723.184	0.02
723.503	0.02
723.823	0.02
724.142	0.01
724.461	0.02
724.78	0.02
725.099	0.02
725.418	0.02
725.737	0.02
726.056	0.03
726.375	0.02
726.694	0.02
727.013	0.02
727.331	0.01
727.65	0.02
727.969	0.02
728.287	0.02
728.606	0.02
728.924	0.02
729.242	0.02
729.561	0.01
729.879	0.02
730.197	0.02
730.515	0.01
730.834	0.01
731.152	0.02
731.47	0.02
731.788	0.02
732.105	0.02
732.423	0.02
732.741	0.01
733.059	0.02
733.376	0.02
733.694	0.02
734.012	0.01
734.329	0.02
734.647	0.01
734.964	0.02
735.281	0.02
735.599	0.02
735.916	0.03
736.233	0.02
736.55	0.02
736.867	0.02
737.184	0.02
737.501	0.01
737.818	0.02
738.135	0.03
738.452	0.02
738.768	0.02
739.085	0.01
739.402	0.01
739.718	0.01
740.035	0.01
740.351	0.03
740.668	0.02
740.984	0.02
741.3	0.02
741.617	0.02
741.933	0.02
742.249	0.03
742.565	0.03
742.881	0.03
743.197	0.02
743.513	0.01
743.829	0.01
744.144	0.02
744.46	0.02
744.776	0.02
745.091	0.01
745.407	0.02
745.722	0.01
746.038	0.02
746.353	0
746.669	0.02
746.984	0.01
747.299	0.02
747.614	0.02
747.93	0.02
748.245	0.01
748.56	0.01
748.875	0.01
749.189	0.01
749.504	0.01
749.819	0.02
750.134	0.01
750.448	0.01
750.763	0.02
751.078	0.01
751.392	0.02
751.707	0.03
752.021	0.03
752.335	0.03
752.65	0.02
752.964	0.02
753.278	0.02
753.592	0.02
753.906	0.02
754.22	0.02
754.534	0.02
754.848	0.03
755.162	0.02
755.476	0.03
755.789	0.02
756.103	0.01
756.417	0.03
756.73	0.02
757.044	0.02
757.357	0.02
757.671	0.03
757.984	0.02
758.297	0.02
758.61	0.02
758.924	0.03
759.237	0.02
759.55	0.03
759.863	0.02
760.176	0.03
760.488	0.02
760.801	0.02
761.114	0.03
761.427	0.02
761.739	0.03
762.052	0.01
762.365	0.02
762.677	0.02
762.99	0.01
763.302	0.02
763.614	0.03
763.926	0.02
764.239	0.02
764.551	0.02
764.863	0.02
765.175	0.02
765.487	0.03
765.799	0.02
766.111	0.01
766.423	0.02
766.734	0.02
767.046	0.02
767.358	0.02
767.669	0.02
767.981	0.01
768.292	0.02
768.604	0.02
768.915	0.03
769.226	0.02
769.537	0.01
769.849	0.03
770.16	0.02
770.471	0.01
770.782	0.01
771.093	0.02
771.404	0.01
771.715	0.01
772.025	0.01
772.336	0.01
772.647	0.01
772.957	0.01
773.268	0.01
773.578	0
773.889	0.01
774.199	0.03
774.51	0.02
774.82	0
775.13	0.02
775.44	0.01
775.75	0.02
776.06	0.02
776.37	0.01
776.68	0.02
776.99	0.01
777.3	0.01
777.61	0.02
777.92	0.02
778.229	0.01
778.539	0.02
778.848	0.02
779.158	0.02
779.467	0.02
779.777	0.02
780.086	0.02
780.395	0.01
780.704	0.02
781.013	0.01
781.323	0.02
781.632	0.02
781.941	0.02
782.249	0.02
782.558	0.02
782.867	0.03
783.176	0.01
783.485	0.02
783.793	0.02
784.102	0.01
784.41	0.01
784.719	0.01
785.027	0.02
785.335	0.02
785.644	0.03
785.952	0.02
786.26	0.03
786.568	0.01
786.876	0.01
787.184	0.02
787.492	0.02
787.8	0.02
788.108	0.03
788.416	0.02
788.723	0.02
789.031	0.02
789.338	0.02
789.646	0.02
789.953	0.03
790.261	0.02
790.568	0.03
790.876	0.02
791.183	0.03
791.49	0.02
791.797	0.02
792.104	0.02
792.411	0.03
792.718	0.02
793.025	0.03
793.332	0.02
793.639	0.04
793.945	0.04
794.252	0.03
794.559	0.02
794.865	0.03
795.172	0.02
795.478	0.03
795.784	0.03
796.091	0.03
796.397	0.03
796.703	0.02
797.009	0.03
797.315	0.02
797.622	0.02
797.927	0.03
798.233	0.02
798.539	0.03
798.845	0.01
799.151	0.02
799.456	0.02
799.762	0.02
800.068	0.02
800.373	0.03
800.679	0.01
800.984	0.02
801.289	0.01
801.595	0.01
801.9	0.02
802.205	0.01
802.51	0.01
802.815	0.02
803.12	0.02
803.425	0.02
803.73	0.02
804.035	0.02
804.339	0.02
804.644	0.02
804.949	0.02
805.253	0.02
805.558	0.01
805.862	0.02
806.167	0.02
806.471	0.01
806.775	0.02
807.08	0.02
807.384	0.02
807.688	0.02
807.992	0.02
808.296	0.02
808.6	0.02
808.904	0.02
809.207	0.01
809.511	0.02
809.815	0.02
810.119	0.02
810.422	0.02
810.726	0.03
811.029	0.03
811.332	0.03
811.636	0.03
811.939	0.03
812.242	0.03
812.546	0.03
812.849	0.02
813.152	0.03
813.455	0.03
813.758	0.03
814.06	0.03
814.363	0.03
814.666	0.03
814.969	0.03
815.271	0.03
815.574	0.03
815.877	0.03
816.179	0.03
816.481	0.03
816.784	0.03
817.086	0.02
817.388	0.02
817.69	0.02
817.993	0.02
818.295	0.03
818.597	0.02
818.899	0.02
819.2	0.02
819.502	0.02
819.804	0.02
820.106	0.01
820.407	0.01
820.709	0.02
821.01	0.02
821.312	0.02
821.613	0
821.915	0.01
822.216	0.01
822.517	0.01
822.818	0.01
823.119	0.01
823.42	0.01
823.721	-0.01
824.022	-0
824.323	0.01
824.624	0
824.925	0.01
825.226	0.01
825.526	-0
825.827	0.01
826.127	0
826.428	0.01
826.728	0
827.028	0
827.329	0.01
827.629	0
827.929	0.01
828.229	0.01
828.529	0.01
828.829	0.01
829.129	0.01
829.429	0.01
829.729	0.01
830.029	0.01
830.328	0.01
830.628	-0
830.927	-0
831.227	-0
831.526	0.01
831.826	0
832.125	-0
832.424	-0.01
832.724	-0
833.023	0
833.322	0
833.621	-0.01
833.92	-0.01
834.219	-0
834.518	-0
834.816	-0.01
835.115	-0.01
835.414	-0.01
835.712	-0.01
836.011	-0.02
836.309	-0.01
836.608	-0.01
836.906	-0.02
837.205	-0.02
837.503	-0.03
837.801	-0.02
838.099	-0.03
838.397	-0.03
838.695	-0.03
838.993	-0.03
839.291	-0.03
839.589	-0.03
839.887	-0.03
840.184	-0.04
840.482	-0.04
840.78	-0.03
841.077	-0.04
841.375	-0.04
841.672	-0.04
841.969	-0.04
842.267	-0.04
842.564	-0.04
842.861	-0.04
843.158	-0.04
843.455	-0.06
843.752	-0.05
844.049	-0.06
844.346	-0.05
844.643	-0.05
844.94	-0.06
845.236	-0.04
845.533	-0.04
845.83	-0.05
846.126	-0.05
846.423	-0.05
846.719	-0.06
847.015	-0.06
847.312	-0.05
847.608	-0.07
847.904	-0.08
848.2	-0.07
848.496	-0.06
848.792	-0.07
849.088	-0.06
849.384	-0.08
849.68	-0.08
849.975	-0.08
850.271	-0.08
850.567	-0.09
850.862	-0.09
851.158	-0.09
851.453	-0.09
851.748	-0.11
852.044	-0.1
852.339	-0.1
852.634	-0.11
852.929	-0.09
853.224	-0.1
853.519	-0.1
853.814	-0.1
854.109	-0.11
854.404	-0.11
854.699	-0.11
854.994	-0.1
855.288	-0.11
855.583	-0.1
855.877	-0.12
856.172	-0.11
856.466	-0.12
856.76	-0.11
857.055	-0.11
857.349	-0.13
857.643	-0.13
857.937	-0.13
858.231	-0.12
858.525	-0.13
858.819	-0.13
859.113	-0.14
859.407	-0.13
859.701	-0.15
859.994	-0.13
860.288	-0.13
860.581	-0.14
860.875	-0.14
861.168	-0.14
861.462	-0.13
861.755	-0.13
862.048	-0.13
862.341	-0.13
862.634	-0.13
862.928	-0.12
863.221	-0.13
863.513	-0.14
863.806	-0.13
864.099	-0.13
864.392	-0.14
864.685	-0.12
864.977	-0.13
865.27	-0.13
865.562	-0.13
865.855	-0.12
866.147	-0.14
866.44	-0.13
866.732	-0.14
867.024	-0.14
867.316	-0.15
867.608	-0.15
867.9	-0.15
868.192	-0.15
868.484	-0.14
868.776	-0.15
869.068	-0.14
869.359	-0.14
869.651	-0.15
869.943	-0.17
870.234	-0.16
870.526	-0.16
870.817	-0.16
871.108	-0.15
871.4	-0.15
871.691	-0.15
871.982	-0.16
872.273	-0.17
872.564	-0.17
872.855	-0.17
873.146	-0.17
873.437	-0.18
873.728	-0.17
874.019	-0.16
874.309	-0.17
874.6	-0.17
874.89	-0.17
875.181	-0.17
875.471	-0.17
875.762	-0.16
876.052	-0.16
876.342	-0.15
876.632	-0.16
876.922	-0.18
877.213	-0.17
877.503	-0.18
877.792	-0.18
878.082	-0.18
878.372	-0.18
878.662	-0.2
878.952	-0.19
879.241	-0.18
879.531	-0.18
879.82	-0.18
880.11	-0.18
880.399	-0.18
880.688	-0.17
880.978	-0.17
881.267	-0.17
