Data from 12-12-AQDScycling_Absorbance__800__00800.txt Node

Date: Tue Dec 12 14:16:44 EST 2023
User: kyuminlee
Spectrometer: FLMS00943
Trigger mode: 0
Integration Time (sec): 1.000000E-1
Scans to average: 1
Electric dark correction enabled: true
Nonlinearity correction enabled: false
Boxcar width: 0
XAxis mode: Wavelengths
Number of Pixels in Spectrum: 2048
>>>>>Begin Spectral Data<<<<<
179.651	-0.08
180.037	-0.08
180.424	-0.08
180.81	-0.03
181.197	0.09
181.583	-0
181.97	-0.32
182.356	-0
182.743	-1.14
183.129	0.16
183.515	0.01
183.901	-2.2
184.288	0.27
184.674	0.27
185.06	-0
185.446	0.36
185.832	-0
186.218	1.28
186.604	-0
186.99	-0
187.376	0.13
187.762	0.67
188.148	0.13
188.534	-0.11
188.92	-0.03
189.305	0.04
189.691	0.35
190.077	0.2
190.463	0.12
190.848	0.04
191.234	0.14
191.619	0.2
192.005	0.06
192.391	0.21
192.776	0.17
193.161	0.2
193.547	0.07
193.932	0.07
194.318	0.08
194.703	0.18
195.088	0.18
195.473	0.2
195.859	0.14
196.244	0.11
196.629	0.08
197.014	0.03
197.399	0.19
197.784	0.12
198.169	0.2
198.554	0.21
198.939	0.15
199.324	0.16
199.709	0.02
200.094	0.1
200.478	0.04
200.863	0.22
201.248	0.24
201.633	0.01
202.017	0.07
202.402	0.15
202.787	0.1
203.171	0.07
203.556	0.2
203.94	0.05
204.325	0.16
204.709	0.2
205.093	0.02
205.478	0.1
205.862	0.12
206.246	0.17
206.631	0.23
207.015	0.11
207.399	0.12
207.783	0.04
208.167	0.12
208.551	0.15
208.935	0.15
209.319	0.09
209.703	0.12
210.087	0.24
210.471	0.07
210.855	0.15
211.239	0.24
211.623	0.25
212.007	0.14
212.39	0.27
212.774	0.13
213.158	0.19
213.541	0.13
213.925	0.19
214.309	0.22
214.692	0.36
215.076	0.32
215.459	0.22
215.842	0.07
216.226	0.28
216.609	0.27
216.993	0.16
217.376	0.24
217.759	0.3
218.142	0.45
218.525	0.58
218.909	0.34
219.292	0.4
219.675	0.52
220.058	0.33
220.441	0.47
220.824	0.38
221.207	0.52
221.59	0.41
221.973	0.47
222.355	0.57
222.738	0.72
223.121	0.59
223.504	0.49
223.886	0.6
224.269	0.64
224.652	0.58
225.034	0.8
225.417	0.64
225.799	0.65
226.182	0.8
226.564	0.87
226.947	0.85
227.329	0.8
227.711	0.84
228.094	0.98
228.476	0.92
228.858	0.78
229.24	0.83
229.623	0.9
230.005	0.82
230.387	0.87
230.769	0.82
231.151	0.92
231.533	0.94
231.915	0.98
232.297	1.18
232.679	0.98
233.061	0.9
233.442	1
233.824	0.97
234.206	1.2
234.588	1.04
234.969	0.99
235.351	0.9
235.733	0.99
236.114	1.24
236.496	1.11
236.877	1.02
237.259	1.09
237.64	1.06
238.022	1.09
238.403	1.03
238.784	1.07
239.165	0.9
239.547	1.19
239.928	1.1
240.309	1.15
240.69	1.2
241.071	1.27
241.452	1.21
241.834	1.04
242.215	1.08
242.595	0.97
242.976	1.31
243.357	1.03
243.738	1.04
244.119	1.29
244.5	1.09
244.881	1.2
245.261	1.25
245.642	1.06
246.023	1.07
246.403	1.19
246.784	1.22
247.164	1.32
247.545	1.26
247.925	1.3
248.306	1.21
248.686	1.44
249.067	1.2
249.447	1.49
249.827	1.51
250.207	1.43
250.588	1.27
250.968	1.39
251.348	1.31
251.728	1.41
252.108	1.45
252.488	1.46
252.868	1.25
253.248	1.22
253.628	1.31
254.008	1.56
254.388	1.4
254.768	1.24
255.147	1.6
255.527	1.49
255.907	1.29
256.287	1.36
256.666	1.43
257.046	1.49
257.425	1.54
257.805	1.34
258.184	1.22
258.564	1.35
258.943	1.41
259.323	1.4
259.702	1.47
260.081	1.45
260.461	1.42
260.84	1.48
261.219	1.9
261.598	1.44
261.977	1.51
262.356	1.55
262.736	1.39
263.115	1.54
263.494	1.45
263.873	1.38
264.251	1.47
264.63	1.49
265.009	1.47
265.388	1.49
265.767	1.34
266.145	1.4
266.524	1.43
266.903	1.49
267.281	1.4
267.66	1.63
268.039	1.49
268.417	1.39
268.796	1.28
269.174	1.32
269.552	1.36
269.931	1.41
270.309	1.59
270.687	1.55
271.066	1.55
271.444	1.4
271.822	1.54
272.2	1.43
272.578	1.45
272.956	1.4
273.334	1.4
273.712	1.59
274.09	1.43
274.468	1.28
274.846	1.29
275.224	1.49
275.602	1.44
275.98	1.44
276.357	1.48
276.735	1.46
277.113	1.46
277.49	1.29
277.868	1.33
278.246	1.46
278.623	1.26
279.001	1.4
279.378	1.39
279.756	1.47
280.133	1.6
280.51	1.42
280.888	1.51
281.265	1.44
281.642	1.55
282.019	1.65
282.396	1.58
282.773	1.58
283.151	1.4
283.528	1.4
283.905	1.34
284.282	1.52
284.659	1.59
285.035	1.3
285.412	1.32
285.789	1.54
286.166	1.44
286.543	1.37
286.919	1.54
287.296	1.38
287.673	1.53
288.049	1.35
288.426	1.44
288.802	1.55
289.179	1.42
289.555	1.57
289.932	1.5
290.308	1.32
290.684	1.33
291.061	1.39
291.437	1.48
291.813	1.38
292.189	1.26
292.565	1.29
292.942	1.31
293.318	1.42
293.694	1.45
294.07	1.38
294.446	1.44
294.822	1.48
295.197	1.35
295.573	1.43
295.949	1.37
296.325	1.3
296.701	1.41
297.076	1.45
297.452	1.49
297.828	1.43
298.203	1.49
298.579	1.36
298.954	1.37
299.33	1.37
299.705	1.36
300.081	1.35
300.456	1.35
300.831	1.22
301.206	1.25
301.582	1.37
301.957	1.3
302.332	1.25
302.707	1.24
303.082	1.28
303.457	1.23
303.832	1.2
304.207	1.17
304.582	1.17
304.957	1.19
305.332	1.19
305.707	1.13
306.082	1.14
306.456	1.09
306.831	1.02
307.206	1.06
307.58	1.06
307.955	1.01
308.33	1.04
308.704	1.04
309.079	1.01
309.453	0.95
309.828	0.96
310.202	0.99
310.576	0.93
310.951	0.96
311.325	0.96
311.699	0.89
312.073	0.89
312.447	0.92
312.821	0.9
313.196	0.89
313.57	0.89
313.944	0.87
314.317	0.83
314.691	0.85
315.065	0.86
315.439	0.86
315.813	0.83
316.187	0.8
316.56	0.88
316.934	0.84
317.308	0.83
317.681	0.79
318.055	0.81
318.428	0.81
318.802	0.86
319.175	0.79
319.549	0.81
319.922	0.79
320.295	0.78
320.669	0.82
321.042	0.81
321.415	0.83
321.788	0.8
322.162	0.77
322.535	0.78
322.908	0.79
323.281	0.79
323.654	0.79
324.027	0.79
324.4	0.81
324.773	0.82
325.145	0.79
325.518	0.77
325.891	0.78
326.264	0.8
326.636	0.8
327.009	0.8
327.382	0.79
327.754	0.84
328.127	0.76
328.499	0.82
328.872	0.84
329.244	0.76
329.616	0.81
329.989	0.83
330.361	0.79
330.733	0.8
331.106	0.79
331.478	0.85
331.85	0.81
332.222	0.83
332.594	0.88
332.966	0.88
333.338	0.9
333.71	0.89
334.082	0.94
334.454	0.86
334.826	0.92
335.197	0.92
335.569	0.9
335.941	0.88
336.312	0.89
336.684	0.89
337.056	0.9
337.427	0.95
337.799	0.98
338.17	0.98
338.542	0.96
338.913	0.98
339.284	0.97
339.656	0.98
340.027	1
340.398	1
340.769	1
341.141	1.03
341.512	1
341.883	1.04
342.254	1.05
342.625	0.99
342.996	1.01
343.367	1.1
343.738	1.08
344.108	1.04
344.479	1.13
344.85	1.06
345.221	1.17
345.591	1.06
345.962	1.12
346.333	1.16
346.703	1.08
347.074	1.17
347.444	1.12
347.815	1.08
348.185	1.16
348.556	1.12
348.926	1.17
349.296	1.14
349.666	1.13
350.037	1.17
350.407	1.17
350.777	1.22
351.147	1.24
351.517	1.18
351.887	1.25
352.257	1.31
352.627	1.28
352.997	1.25
353.367	1.24
353.737	1.31
354.106	1.27
354.476	1.27
354.846	1.32
355.216	1.34
355.585	1.5
355.955	1.41
356.324	1.34
356.694	1.49
357.063	1.38
357.433	1.38
357.802	1.5
358.171	1.49
358.541	1.41
358.91	1.58
359.279	1.48
359.648	1.43
360.017	1.53
360.387	1.63
360.756	1.46
361.125	1.47
361.494	1.7
361.863	1.49
362.231	1.52
362.6	1.88
362.969	1.61
363.338	1.48
363.707	1.83
364.075	1.65
364.444	1.5
364.813	1.45
365.181	1.44
365.55	1.58
365.918	1.78
366.287	1.56
366.655	1.58
367.024	1.61
367.392	1.55
367.76	1.54
368.128	1.5
368.497	1.52
368.865	1.55
369.233	1.53
369.601	1.52
369.969	1.7
370.337	1.49
370.705	1.61
371.073	1.58
371.441	1.52
371.809	1.54
372.177	1.51
372.544	1.6
372.912	1.56
373.28	1.54
373.647	1.76
374.015	1.78
374.383	1.71
374.75	1.65
375.118	1.46
375.485	1.59
375.853	1.69
376.22	1.55
376.587	1.51
376.955	1.54
377.322	1.62
377.689	1.57
378.056	1.51
378.423	1.44
378.79	1.5
379.157	1.64
379.524	1.76
379.891	1.5
380.258	1.68
380.625	1.38
380.992	1.55
381.359	1.65
381.726	1.71
382.092	1.46
382.459	1.45
382.826	1.58
383.192	1.54
383.559	1.53
383.925	1.62
384.292	1.51
384.658	1.9
385.025	1.64
385.391	1.61
385.757	1.51
386.123	1.62
386.49	1.42
386.856	1.62
387.222	1.63
387.588	1.58
387.954	1.76
388.32	1.69
388.686	1.61
389.052	1.59
389.418	1.54
389.784	1.48
390.15	1.67
390.515	1.38
390.881	1.71
391.247	1.44
391.613	1.61
391.978	1.48
392.344	1.66
392.709	1.58
393.075	1.64
393.44	1.58
393.806	1.68
394.171	1.43
394.536	1.53
394.902	1.67
395.267	1.58
395.632	1.42
395.997	1.42
396.362	1.49
396.727	1.53
397.092	1.5
397.457	1.72
397.822	1.5
398.187	1.55
398.552	1.5
398.917	1.8
399.282	1.43
399.646	1.53
400.011	1.53
400.376	1.44
400.74	1.52
401.105	1.59
401.47	1.59
401.834	1.55
402.199	1.61
402.563	1.56
402.927	1.55
403.292	1.72
403.656	1.55
404.02	1.59
404.384	1.65
404.749	1.53
405.113	1.71
405.477	1.65
405.841	1.49
406.205	1.57
406.569	1.44
406.933	1.58
407.296	1.41
407.66	1.5
408.024	1.53
408.388	1.67
408.752	1.59
409.115	1.56
409.479	1.51
409.842	1.55
410.206	1.59
410.569	1.47
410.933	1.53
411.296	1.38
411.66	1.59
412.023	1.41
412.386	1.66
412.749	1.36
413.113	1.65
413.476	1.51
413.839	1.45
414.202	1.42
414.565	1.46
414.928	1.43
415.291	1.51
415.654	1.4
416.017	1.67
416.38	1.52
416.742	1.46
417.105	1.42
417.468	1.49
417.83	1.47
418.193	1.61
418.556	1.41
418.918	1.42
419.281	1.44
419.643	1.53
420.005	1.54
420.368	1.55
420.73	1.61
421.092	1.62
421.455	1.62
421.817	1.37
422.179	1.47
422.541	1.75
422.903	1.67
423.265	1.64
423.627	1.53
423.989	1.5
424.351	1.48
424.713	1.5
425.075	1.53
425.436	1.51
425.798	1.53
426.16	1.7
426.521	1.43
426.883	1.57
427.245	1.59
427.606	1.47
427.967	1.48
428.329	1.54
428.69	1.56
429.052	1.44
429.413	1.55
429.774	1.55
430.135	1.55
430.497	1.6
430.858	1.55
431.219	1.57
431.58	1.42
431.941	1.56
432.302	1.45
432.663	1.51
433.024	1.77
433.384	1.74
433.745	1.52
434.106	1.55
434.467	1.51
434.827	1.4
435.188	1.45
435.548	1.61
435.909	1.53
436.269	1.57
436.63	1.51
436.99	1.5
437.351	1.4
437.711	1.54
438.071	1.42
438.431	1.47
438.792	1.49
439.152	1.47
439.512	1.41
439.872	1.44
440.232	1.48
440.592	1.53
440.952	1.53
441.312	1.37
441.671	1.41
442.031	1.5
442.391	1.52
442.751	1.4
443.11	1.45
443.47	1.36
443.83	1.35
444.189	1.42
444.549	1.41
444.908	1.38
445.267	1.33
445.627	1.39
445.986	1.31
446.345	1.35
446.705	1.44
447.064	1.42
447.423	1.38
447.782	1.36
448.141	1.32
448.5	1.29
448.859	1.31
449.218	1.34
449.577	1.32
449.936	1.31
450.295	1.32
450.653	1.29
451.012	1.27
451.371	1.29
451.729	1.27
452.088	1.26
452.447	1.3
452.805	1.27
453.163	1.26
453.522	1.25
453.88	1.23
454.239	1.24
454.597	1.17
454.955	1.17
455.313	1.17
455.671	1.17
456.029	1.17
456.388	1.15
456.746	1.15
457.104	1.13
457.461	1.11
457.819	1.11
458.177	1.07
458.535	1.06
458.893	1.05
459.25	1.07
459.608	1.04
459.966	1
460.323	1.01
460.681	0.99
461.038	0.99
461.396	0.96
461.753	0.96
462.111	0.95
462.468	0.92
462.825	0.93
463.182	0.91
463.54	0.88
463.897	0.89
464.254	0.87
464.611	0.85
464.968	0.83
465.325	0.84
465.682	0.83
466.039	0.82
466.395	0.81
466.752	0.79
467.109	0.78
467.466	0.77
467.822	0.75
468.179	0.73
468.535	0.73
468.892	0.73
469.248	0.7
469.605	0.7
469.961	0.69
470.318	0.68
470.674	0.65
471.03	0.64
471.386	0.65
471.743	0.63
472.099	0.62
472.455	0.61
472.811	0.6
473.167	0.59
473.523	0.58
473.879	0.57
474.235	0.56
474.59	0.55
474.946	0.53
475.302	0.54
475.657	0.51
476.013	0.53
476.369	0.5
476.724	0.51
477.08	0.49
477.435	0.48
477.791	0.48
478.146	0.46
478.501	0.46
478.857	0.44
479.212	0.44
479.567	0.43
479.922	0.41
480.277	0.41
480.632	0.4
480.987	0.39
481.342	0.39
481.697	0.38
482.052	0.38
482.407	0.37
482.762	0.36
483.116	0.36
483.471	0.33
483.826	0.33
484.18	0.33
484.535	0.32
484.89	0.32
485.244	0.32
485.598	0.31
485.953	0.3
486.307	0.3
486.661	0.3
487.016	0.28
487.37	0.28
487.724	0.28
488.078	0.27
488.432	0.27
488.786	0.26
489.14	0.25
489.494	0.25
489.848	0.24
490.202	0.24
490.556	0.24
490.91	0.23
491.263	0.23
491.617	0.22
491.971	0.22
492.324	0.21
492.678	0.22
493.031	0.21
493.385	0.2
493.738	0.21
494.091	0.2
494.445	0.19
494.798	0.19
495.151	0.19
495.504	0.18
495.857	0.18
496.21	0.18
496.564	0.18
496.916	0.19
497.269	0.17
497.622	0.17
497.975	0.16
498.328	0.16
498.681	0.16
499.033	0.15
499.386	0.15
499.739	0.15
500.091	0.15
500.444	0.14
500.796	0.14
501.149	0.13
501.501	0.14
501.854	0.15
502.206	0.14
502.558	0.14
502.91	0.14
503.263	0.13
503.615	0.13
503.967	0.13
504.319	0.12
504.671	0.13
505.023	0.12
505.375	0.12
505.726	0.12
506.078	0.12
506.43	0.11
506.782	0.12
507.133	0.12
507.485	0.13
507.837	0.12
508.188	0.12
508.54	0.12
508.891	0.12
509.243	0.12
509.594	0.11
509.945	0.11
510.296	0.11
510.648	0.11
510.999	0.1
511.35	0.1
511.701	0.1
512.052	0.11
512.403	0.12
512.754	0.11
513.105	0.09
513.456	0.1
513.807	0.09
514.157	0.11
514.508	0.1
514.859	0.09
515.209	0.1
515.56	0.1
515.91	0.1
516.261	0.1
516.611	0.09
516.962	0.09
517.312	0.09
517.662	0.1
518.013	0.09
518.363	0.1
518.713	0.1
519.063	0.1
519.413	0.1
519.763	0.09
520.113	0.1
520.463	0.09
520.813	0.1
521.163	0.1
521.512	0.1
521.862	0.1
522.212	0.1
522.562	0.1
522.911	0.09
523.261	0.1
523.61	0.09
523.96	0.09
524.309	0.1
524.658	0.1
525.008	0.1
525.357	0.09
525.706	0.1
526.056	0.09
526.405	0.09
526.754	0.09
527.103	0.08
527.452	0.09
527.801	0.1
528.15	0.09
528.499	0.1
528.847	0.09
529.196	0.1
529.545	0.1
529.893	0.1
530.242	0.1
530.591	0.1
530.939	0.1
531.288	0.1
531.636	0.1
531.985	0.1
532.333	0.1
532.681	0.09
533.029	0.09
533.378	0.1
533.726	0.1
534.074	0.1
534.422	0.08
534.77	0.1
535.118	0.09
535.466	0.09
535.814	0.09
536.162	0.1
536.509	0.1
536.857	0.1
537.205	0.1
537.552	0.1
537.9	0.1
538.248	0.09
538.595	0.1
538.943	0.09
539.29	0.1
539.637	0.09
539.985	0.09
540.332	0.09
540.679	0.09
541.026	0.09
541.373	0.1
541.721	0.08
542.068	0.09
542.415	0.09
542.762	0.09
543.108	0.08
543.455	0.09
543.802	0.09
544.149	0.09
544.496	0.09
544.842	0.09
545.189	0.08
545.535	0.07
545.882	0.08
546.228	0.08
546.575	0.08
546.921	0.07
547.267	0.08
547.614	0.08
547.96	0.08
548.306	0.08
548.652	0.08
548.998	0.08
549.344	0.08
549.69	0.09
550.036	0.08
550.382	0.08
550.728	0.08
551.074	0.09
551.42	0.08
551.765	0.08
552.111	0.09
552.457	0.09
552.802	0.08
553.148	0.09
553.493	0.08
553.839	0.08
554.184	0.08
554.529	0.09
554.875	0.09
555.22	0.09
555.565	0.1
555.91	0.08
556.255	0.1
556.6	0.09
556.945	0.08
557.29	0.09
557.635	0.09
557.98	0.09
558.325	0.08
558.67	0.09
559.014	0.09
559.359	0.09
559.704	0.1
560.048	0.08
560.393	0.08
560.737	0.07
561.082	0.09
561.426	0.07
561.77	0.08
562.115	0.08
562.459	0.08
562.803	0.08
563.147	0.09
563.491	0.08
563.835	0.09
564.179	0.08
564.523	0.08
564.867	0.08
565.211	0.08
565.555	0.08
565.899	0.09
566.242	0.08
566.586	0.08
566.93	0.08
567.273	0.09
567.617	0.08
567.96	0.09
568.304	0.09
568.647	0.08
568.99	0.09
569.334	0.1
569.677	0.09
570.02	0.1
570.363	0.09
570.706	0.09
571.049	0.09
571.392	0.1
571.735	0.08
572.078	0.09
572.421	0.1
572.764	0.09
573.106	0.09
573.449	0.09
573.792	0.09
574.134	0.08
574.477	0.09
574.819	0.09
575.162	0.09
575.504	0.08
575.847	0.09
576.189	0.08
576.531	0.09
576.873	0.08
577.215	0.09
577.558	0.08
577.9	0.08
578.242	0.08
578.584	0.08
578.926	0.09
579.267	0.09
579.609	0.09
579.951	0.08
580.293	0.09
580.634	0.08
580.976	0.09
581.318	0.08
581.659	0.08
582.001	0.08
582.342	0.08
582.683	0.09
583.025	0.08
583.366	0.08
583.707	0.08
584.049	0.08
584.39	0.08
584.731	0.08
585.072	0.07
585.413	0.09
585.754	0.09
586.095	0.09
586.435	0.09
586.776	0.09
587.117	0.08
587.458	0.08
587.798	0.09
588.139	0.08
588.48	0.08
588.82	0.08
589.161	0.08
589.501	0.08
589.841	0.08
590.182	0.08
590.522	0.08
590.862	0.08
591.202	0.08
591.542	0.08
591.882	0.08
592.222	0.08
592.562	0.09
592.902	0.08
593.242	0.08
593.582	0.08
593.922	0.08
594.261	0.07
594.601	0.07
594.941	0.08
595.28	0.08
595.62	0.08
595.959	0.08
596.299	0.08
596.638	0.08
596.977	0.08
597.317	0.08
597.656	0.09
597.995	0.08
598.334	0.09
598.673	0.08
599.012	0.08
599.351	0.09
599.69	0.09
600.029	0.09
600.368	0.09
600.707	0.09
601.046	0.09
601.384	0.09
601.723	0.09
602.061	0.08
602.4	0.08
602.738	0.09
603.077	0.09
603.415	0.08
603.754	0.09
604.092	0.08
604.43	0.09
604.768	0.09
605.107	0.09
605.445	0.08
605.783	0.08
606.121	0.08
606.459	0.08
606.796	0.08
607.134	0.08
607.472	0.08
607.81	0.09
608.148	0.08
608.485	0.09
608.823	0.08
609.16	0.08
609.498	0.08
609.835	0.08
610.173	0.08
610.51	0.08
610.847	0.08
611.185	0.08
611.522	0.08
611.859	0.08
612.196	0.08
612.533	0.09
612.87	0.09
613.207	0.09
613.544	0.09
613.881	0.09
614.217	0.09
614.554	0.09
614.891	0.09
615.228	0.09
615.564	0.09
615.901	0.09
616.237	0.09
616.574	0.08
616.91	0.09
617.246	0.1
617.583	0.09
617.919	0.09
618.255	0.09
618.591	0.09
618.927	0.09
619.263	0.09
619.599	0.1
619.935	0.09
620.271	0.1
620.607	0.09
620.943	0.09
621.279	0.09
621.614	0.09
621.95	0.09
622.286	0.09
622.621	0.09
622.957	0.09
623.292	0.09
623.627	0.09
623.963	0.09
624.298	0.09
624.633	0.08
624.968	0.08
625.304	0.08
625.639	0.09
625.974	0.09
626.309	0.08
626.644	0.09
626.979	0.09
627.313	0.09
627.648	0.08
627.983	0.09
628.318	0.08
628.652	0.08
628.987	0.07
629.321	0.08
629.656	0.07
629.99	0.08
630.325	0.08
630.659	0.08
630.993	0.07
631.327	0.08
631.662	0.07
631.996	0.07
632.33	0.07
632.664	0.07
632.998	0.07
633.332	0.07
633.666	0.07
633.999	0.07
634.333	0.07
634.667	0.07
635.001	0.07
635.334	0.07
635.668	0.07
636.001	0.07
636.335	0.07
636.668	0.07
637.001	0.06
637.335	0.07
637.668	0.07
638.001	0.07
638.334	0.07
638.668	0.07
639.001	0.07
639.334	0.07
639.667	0.06
639.999	0.07
640.332	0.07
640.665	0.07
640.998	0.07
641.331	0.07
641.663	0.06
641.996	0.07
642.328	0.07
642.661	0.07
642.993	0.08
643.326	0.07
643.658	0.07
643.99	0.07
644.323	0.07
644.655	0.08
644.987	0.07
645.319	0.08
645.651	0.08
645.983	0.08
646.315	0.07
646.647	0.08
646.979	0.08
647.31	0.08
647.642	0.07
647.974	0.07
648.305	0.08
648.637	0.07
648.968	0.08
649.3	0.08
649.631	0.08
649.963	0.07
650.294	0.08
650.625	0.08
650.957	0.08
651.288	0.07
651.619	0.08
651.95	0.08
652.281	0.08
652.612	0.07
652.943	0.08
653.274	0.09
653.604	0.07
653.935	0.08
654.266	0.08
654.596	0.07
654.927	0.07
655.258	0.08
655.588	0.08
655.918	0.08
656.249	0.06
656.579	0.07
656.909	0.07
657.24	0.07
657.57	0.08
657.9	0.07
658.23	0.07
658.56	0.08
658.89	0.08
659.22	0.07
659.55	0.08
659.88	0.07
660.209	0.07
660.539	0.08
660.869	0.08
661.198	0.08
661.528	0.08
661.857	0.08
662.187	0.08
662.516	0.08
662.846	0.07
663.175	0.07
663.504	0.08
663.833	0.07
664.163	0.08
664.492	0.07
664.821	0.07
665.15	0.07
665.479	0.07
665.807	0.07
666.136	0.07
666.465	0.07
666.794	0.08
667.122	0.08
667.451	0.07
667.78	0.07
668.108	0.08
668.437	0.08
668.765	0.08
669.093	0.08
669.422	0.08
669.75	0.08
670.078	0.08
670.406	0.08
670.734	0.08
671.062	0.08
671.39	0.07
671.718	0.08
672.046	0.07
672.374	0.07
672.702	0.07
673.029	0.07
673.357	0.08
673.685	0.08
674.012	0.07
674.34	0.07
674.667	0.08
674.995	0.07
675.322	0.08
675.649	0.07
675.977	0.08
676.304	0.07
676.631	0.07
676.958	0.08
677.285	0.07
677.612	0.06
677.939	0.07
678.266	0.08
678.593	0.07
678.92	0.08
679.246	0.07
679.573	0.07
679.9	0.07
680.226	0.07
680.553	0.07
680.879	0.07
681.206	0.07
681.532	0.07
681.858	0.07
682.184	0.07
682.511	0.08
682.837	0.07
683.163	0.07
683.489	0.07
683.815	0.07
684.141	0.08
684.467	0.08
684.793	0.07
685.118	0.08
685.444	0.08
685.77	0.07
686.095	0.08
686.421	0.07
686.746	0.07
687.072	0.07
687.397	0.07
687.723	0.07
688.048	0.08
688.373	0.06
688.698	0.07
689.023	0.07
689.349	0.07
689.674	0.06
689.999	0.06
690.323	0.06
690.648	0.07
690.973	0.05
691.298	0.06
691.623	0.06
691.947	0.06
692.272	0.06
692.596	0.07
692.921	0.06
693.245	0.06
693.57	0.07
693.894	0.08
694.218	0.07
694.543	0.07
694.867	0.07
695.191	0.07
695.515	0.07
695.839	0.07
696.163	0.07
696.487	0.07
696.811	0.07
697.135	0.07
697.458	0.07
697.782	0.07
698.106	0.07
698.429	0.07
698.753	0.07
699.076	0.07
699.4	0.07
699.723	0.07
700.046	0.07
700.37	0.07
700.693	0.07
701.016	0.07
701.339	0.07
701.662	0.07
701.985	0.08
702.308	0.07
702.631	0.07
702.954	0.07
703.277	0.06
703.599	0.07
703.922	0.06
704.245	0.06
704.567	0.06
704.89	0.06
705.212	0.07
705.535	0.05
705.857	0.06
706.179	0.05
706.502	0.05
706.824	0.06
707.146	0.05
707.468	0.06
707.79	0.06
708.112	0.06
708.434	0.06
708.756	0.06
709.078	0.06
709.399	0.06
709.721	0.06
710.043	0.06
710.364	0.06
710.686	0.06
711.007	0.06
711.329	0.07
711.65	0.06
711.972	0.07
712.293	0.07
712.614	0.07
712.935	0.07
713.256	0.07
713.577	0.08
713.898	0.07
714.219	0.06
714.54	0.06
714.861	0.06
715.182	0.07
715.503	0.06
715.823	0.06
716.144	0.06
716.464	0.06
716.785	0.05
717.105	0.06
717.426	0.07
717.746	0.05
718.066	0.05
718.387	0.05
718.707	0.05
719.027	0.05
719.347	0.05
719.667	0.06
719.987	0.05
720.307	0.05
720.627	0.05
720.947	0.06
721.266	0.05
721.586	0.05
721.906	0.06
722.225	0.05
722.545	0.05
722.864	0.05
723.184	0.06
723.503	0.05
723.823	0.06
724.142	0.05
724.461	0.05
724.78	0.06
725.099	0.05
725.418	0.05
725.737	0.05
726.056	0.05
726.375	0.06
726.694	0.06
727.013	0.06
727.331	0.05
727.65	0.05
727.969	0.06
728.287	0.06
728.606	0.06
728.924	0.05
729.242	0.05
729.561	0.05
729.879	0.05
730.197	0.05
730.515	0.05
730.834	0.05
731.152	0.06
731.47	0.05
731.788	0.06
732.105	0.05
732.423	0.06
732.741	0.05
733.059	0.05
733.376	0.07
733.694	0.05
734.012	0.06
734.329	0.06
734.647	0.06
734.964	0.06
735.281	0.07
735.599	0.07
735.916	0.06
736.233	0.06
736.55	0.06
736.867	0.06
737.184	0.07
737.501	0.07
737.818	0.07
738.135	0.06
738.452	0.06
738.768	0.06
739.085	0.06
739.402	0.06
739.718	0.06
740.035	0.06
740.351	0.06
740.668	0.06
740.984	0.06
741.3	0.05
741.617	0.06
741.933	0.05
742.249	0.06
742.565	0.06
742.881	0.06
743.197	0.06
743.513	0.05
743.829	0.05
744.144	0.05
744.46	0.06
744.776	0.06
745.091	0.05
745.407	0.05
745.722	0.06
746.038	0.05
746.353	0.04
746.669	0.06
746.984	0.05
747.299	0.06
747.614	0.06
747.93	0.05
748.245	0.05
748.56	0.04
748.875	0.04
749.189	0.04
749.504	0.05
749.819	0.05
750.134	0.05
750.448	0.05
750.763	0.04
751.078	0.04
751.392	0.04
751.707	0.06
752.021	0.05
752.335	0.06
752.65	0.05
752.964	0.05
753.278	0.05
753.592	0.05
753.906	0.05
754.22	0.06
754.534	0.05
754.848	0.06
755.162	0.05
755.476	0.06
755.789	0.05
756.103	0.05
756.417	0.05
756.73	0.05
757.044	0.05
757.357	0.05
757.671	0.05
757.984	0.05
758.297	0.06
758.61	0.05
758.924	0.06
759.237	0.05
759.55	0.05
759.863	0.05
760.176	0.04
760.488	0.05
760.801	0.05
761.114	0.04
761.427	0.04
761.739	0.05
762.052	0.04
762.365	0.05
762.677	0.05
762.99	0.04
763.302	0.05
763.614	0.05
763.926	0.05
764.239	0.05
764.551	0.05
764.863	0.05
765.175	0.05
765.487	0.04
765.799	0.05
766.111	0.04
766.423	0.05
766.734	0.05
767.046	0.04
767.358	0.04
767.669	0.05
767.981	0.05
768.292	0.05
768.604	0.05
768.915	0.05
769.226	0.04
769.537	0.04
769.849	0.05
770.16	0.05
770.471	0.05
770.782	0.04
771.093	0.05
771.404	0.03
771.715	0.04
772.025	0.04
772.336	0.04
772.647	0.04
772.957	0.04
773.268	0.04
773.578	0.04
773.889	0.05
774.199	0.06
774.51	0.04
774.82	0.05
775.13	0.05
775.44	0.05
775.75	0.05
776.06	0.05
776.37	0.05
776.68	0.05
776.99	0.06
777.3	0.06
777.61	0.06
777.92	0.05
778.229	0.05
778.539	0.05
778.848	0.06
779.158	0.05
779.467	0.06
779.777	0.05
780.086	0.05
780.395	0.05
780.704	0.05
781.013	0.04
781.323	0.05
781.632	0.04
781.941	0.05
782.249	0.05
782.558	0.04
782.867	0.05
783.176	0.04
783.485	0.04
783.793	0.05
784.102	0.05
784.41	0.04
784.719	0.05
785.027	0.04
785.335	0.04
785.644	0.05
785.952	0.04
786.26	0.05
786.568	0.04
786.876	0.04
787.184	0.04
787.492	0.05
787.8	0.05
788.108	0.05
788.416	0.05
788.723	0.05
789.031	0.04
789.338	0.05
789.646	0.05
789.953	0.05
790.261	0.05
790.568	0.05
790.876	0.05
791.183	0.06
791.49	0.04
791.797	0.05
792.104	0.05
792.411	0.05
792.718	0.04
793.025	0.06
793.332	0.05
793.639	0.05
793.945	0.06
794.252	0.06
794.559	0.05
794.865	0.05
795.172	0.05
795.478	0.05
795.784	0.05
796.091	0.06
796.397	0.06
796.703	0.06
797.009	0.06
797.315	0.06
797.622	0.05
797.927	0.05
798.233	0.05
798.539	0.06
798.845	0.06
799.151	0.06
799.456	0.06
799.762	0.06
800.068	0.05
800.373	0.07
800.679	0.06
800.984	0.05
801.289	0.05
801.595	0.06
801.9	0.05
802.205	0.06
802.51	0.06
802.815	0.06
803.12	0.06
803.425	0.06
803.73	0.05
804.035	0.05
804.339	0.05
804.644	0.05
804.949	0.05
805.253	0.05
805.558	0.05
805.862	0.05
806.167	0.05
806.471	0.05
806.775	0.05
807.08	0.05
807.384	0.05
807.688	0.05
807.992	0.05
808.296	0.05
808.6	0.05
808.904	0.06
809.207	0.05
809.511	0.06
809.815	0.06
810.119	0.05
810.422	0.06
810.726	0.06
811.029	0.06
811.332	0.06
811.636	0.06
811.939	0.06
812.242	0.06
812.546	0.06
812.849	0.06
813.152	0.06
813.455	0.07
813.758	0.06
814.06	0.06
814.363	0.06
814.666	0.06
814.969	0.06
815.271	0.06
815.574	0.06
815.877	0.05
816.179	0.06
816.481	0.05
816.784	0.06
817.086	0.04
817.388	0.04
817.69	0.05
817.993	0.04
818.295	0.04
818.597	0.04
818.899	0.04
819.2	0.04
819.502	0.04
819.804	0.05
820.106	0.04
820.407	0.03
820.709	0.04
821.01	0.04
821.312	0.05
821.613	0.03
821.915	0.04
822.216	0.04
822.517	0.03
822.818	0.04
823.119	0.04
823.42	0.04
823.721	0.04
824.022	0.04
824.323	0.04
824.624	0.03
824.925	0.04
825.226	0.04
825.526	0.04
825.827	0.04
826.127	0.05
826.428	0.04
826.728	0.03
827.028	0.03
827.329	0.04
827.629	0.02
827.929	0.04
828.229	0.04
828.529	0.04
828.829	0.03
829.129	0.03
829.429	0.03
829.729	0.03
830.029	0.03
830.328	0.03
830.628	0.03
830.927	0.02
831.227	0.03
831.526	0.03
831.826	0.03
832.125	0.02
832.424	0.03
832.724	0.03
833.023	0.03
833.322	0.04
833.621	0.03
833.92	0.02
834.219	0.03
834.518	0.03
834.816	0.01
835.115	0.02
835.414	0.03
835.712	0.02
836.011	0.01
836.309	0.02
836.608	0.01
836.906	0.01
837.205	0
837.503	0.01
837.801	0
838.099	-0
838.397	-0.01
838.695	-0
838.993	-0.01
839.291	-0.02
839.589	-0.01
839.887	-0.01
840.184	-0.01
840.482	-0.02
840.78	-0.01
841.077	-0.01
841.375	-0.02
841.672	-0.01
841.969	-0.01
842.267	-0.01
842.564	-0.01
842.861	-0.01
843.158	-0.02
843.455	-0.03
843.752	-0.02
844.049	-0.01
844.346	-0.02
844.643	-0.02
844.94	-0.03
845.236	-0.01
845.533	-0.02
845.83	-0.02
846.126	-0.03
846.423	-0.02
846.719	-0.03
847.015	-0.02
847.312	-0.03
847.608	-0.03
847.904	-0.04
848.2	-0.04
848.496	-0.04
848.792	-0.04
849.088	-0.03
849.384	-0.04
849.68	-0.05
849.975	-0.04
850.271	-0.04
850.567	-0.05
850.862	-0.05
851.158	-0.04
851.453	-0.04
851.748	-0.06
852.044	-0.05
852.339	-0.05
852.634	-0.07
852.929	-0.05
853.224	-0.06
853.519	-0.05
853.814	-0.05
854.109	-0.05
854.404	-0.06
854.699	-0.06
854.994	-0.06
855.288	-0.06
855.583	-0.05
855.877	-0.06
856.172	-0.06
856.466	-0.07
856.76	-0.06
857.055	-0.06
857.349	-0.08
857.643	-0.08
857.937	-0.08
858.231	-0.08
858.525	-0.08
858.819	-0.08
859.113	-0.1
859.407	-0.09
859.701	-0.1
859.994	-0.1
860.288	-0.09
860.581	-0.1
860.875	-0.1
861.168	-0.1
861.462	-0.1
861.755	-0.1
862.048	-0.11
862.341	-0.1
862.634	-0.11
862.928	-0.09
863.221	-0.11
863.513	-0.11
863.806	-0.11
864.099	-0.12
864.392	-0.12
864.685	-0.1
864.977	-0.11
865.27	-0.12
865.562	-0.11
865.855	-0.11
866.147	-0.12
866.44	-0.11
866.732	-0.12
867.024	-0.13
867.316	-0.12
867.608	-0.12
867.9	-0.12
868.192	-0.13
868.484	-0.13
868.776	-0.13
869.068	-0.13
869.359	-0.13
869.651	-0.13
869.943	-0.14
870.234	-0.14
870.526	-0.14
870.817	-0.14
871.108	-0.13
871.4	-0.13
871.691	-0.14
871.982	-0.15
872.273	-0.15
872.564	-0.14
872.855	-0.15
873.146	-0.15
873.437	-0.14
873.728	-0.17
874.019	-0.15
874.309	-0.16
874.6	-0.16
874.89	-0.16
875.181	-0.16
875.471	-0.15
875.762	-0.16
876.052	-0.15
876.342	-0.14
876.632	-0.16
876.922	-0.16
877.213	-0.15
877.503	-0.18
877.792	-0.17
878.082	-0.18
878.372	-0.16
878.662	-0.19
878.952	-0.17
879.241	-0.17
879.531	-0.17
879.82	-0.16
880.11	-0.16
880.399	-0.17
880.688	-0.15
880.978	-0.15
881.267	-0.15
