Data from 12-12-AQDScycling_Absorbance__567__00567.txt Node

Date: Tue Dec 12 13:18:29 EST 2023
User: kyuminlee
Spectrometer: FLMS00943
Trigger mode: 0
Integration Time (sec): 1.000000E-1
Scans to average: 1
Electric dark correction enabled: true
Nonlinearity correction enabled: false
Boxcar width: 0
XAxis mode: Wavelengths
Number of Pixels in Spectrum: 2048
>>>>>Begin Spectral Data<<<<<
179.651	-0
180.037	-0
180.424	-0
180.81	-0.35
181.197	0.37
181.583	0.07
181.97	-0.44
182.356	-0
182.743	-1.49
183.129	0.41
183.515	-0
183.901	-1.82
184.288	0.43
184.674	0.53
185.06	-0
185.446	0
185.832	-0.3
186.218	0.99
186.604	0.65
186.99	-0.06
187.376	0.49
187.762	-0.45
188.148	0.62
188.534	-0.12
188.92	0.22
189.305	-0.04
189.691	0.17
190.077	0.24
190.463	0.1
190.848	0
191.234	0.07
191.619	0.13
192.005	0.07
192.391	0.15
192.776	0.16
193.161	0.2
193.547	0.09
193.932	0.06
194.318	0.1
194.703	0.03
195.088	0.11
195.473	0.1
195.859	0.16
196.244	0.1
196.629	0.13
197.014	0.06
197.399	0.19
197.784	0.06
198.169	-0.03
198.554	0.1
198.939	0.05
199.324	0.02
199.709	0.07
200.094	0.14
200.478	0.15
200.863	0.24
201.248	0.15
201.633	0.16
202.017	0.16
202.402	0.09
202.787	0.16
203.171	0.25
203.556	0.18
203.94	0.17
204.325	0.22
204.709	0.24
205.093	0.03
205.478	0.12
205.862	0.12
206.246	0.04
206.631	0.13
207.015	0.18
207.399	0.27
207.783	0.14
208.167	0.14
208.551	0.26
208.935	0.25
209.319	0.14
209.703	0.1
210.087	0.15
210.471	0.04
210.855	0.15
211.239	0.29
211.623	0.29
212.007	0.21
212.39	0.28
212.774	0.17
213.158	0.05
213.541	0.21
213.925	0.19
214.309	0.23
214.692	0.35
215.076	0.29
215.459	0.17
215.842	0.16
216.226	0.27
216.609	0.27
216.993	0.14
217.376	0.46
217.759	0.16
218.142	0.47
218.525	0.46
218.909	0.25
219.292	0.28
219.675	0.45
220.058	0.42
220.441	0.38
220.824	0.51
221.207	0.64
221.59	0.49
221.973	0.46
222.355	0.58
222.738	0.6
223.121	0.68
223.504	0.57
223.886	0.79
224.269	0.79
224.652	0.57
225.034	0.77
225.417	0.72
225.799	0.79
226.182	0.86
226.564	0.79
226.947	0.74
227.329	0.82
227.711	0.93
228.094	1.1
228.476	0.98
228.858	0.84
229.24	0.82
229.623	0.87
230.005	0.8
230.387	0.93
230.769	0.83
231.151	1.01
231.533	0.97
231.915	0.91
232.297	0.88
232.679	0.94
233.061	0.93
233.442	1.11
233.824	1.11
234.206	1.05
234.588	1.04
234.969	1.08
235.351	1.01
235.733	1.17
236.114	1.25
236.496	0.96
236.877	1.02
237.259	1.08
237.64	1.08
238.022	1.05
238.403	1.04
238.784	1.01
239.165	0.92
239.547	1.07
239.928	1.04
240.309	0.95
240.69	0.99
241.071	1.17
241.452	1.18
241.834	0.98
242.215	1.06
242.595	1.02
242.976	1.04
243.357	1.04
243.738	1
244.119	1.26
244.5	1.21
244.881	1.25
245.261	1.22
245.642	1.09
246.023	1.11
246.403	1.16
246.784	1.22
247.164	1.28
247.545	1.22
247.925	1.25
248.306	1.13
248.686	1.49
249.067	1.21
249.447	1.36
249.827	1.53
250.207	1.51
250.588	1.24
250.968	1.42
251.348	1.32
251.728	1.42
252.108	1.28
252.488	1.37
252.868	1.32
253.248	1.25
253.628	1.5
254.008	1.45
254.388	1.32
254.768	1.29
255.147	1.53
255.527	1.58
255.907	1.35
256.287	1.3
256.666	1.33
257.046	1.59
257.425	1.5
257.805	1.35
258.184	1.29
258.564	1.35
258.943	1.34
259.323	1.58
259.702	1.47
260.081	1.49
260.461	1.52
260.84	1.44
261.219	1.6
261.598	1.62
261.977	1.44
262.356	1.41
262.736	1.46
263.115	1.5
263.494	1.42
263.873	1.54
264.251	1.44
264.63	1.64
265.009	1.31
265.388	1.44
265.767	1.29
266.145	1.42
266.524	1.45
266.903	1.53
267.281	1.44
267.66	1.56
268.039	1.46
268.417	1.33
268.796	1.34
269.174	1.36
269.552	1.31
269.931	1.53
270.309	1.34
270.687	1.6
271.066	1.75
271.444	1.35
271.822	1.61
272.2	1.38
272.578	1.45
272.956	1.52
273.334	1.4
273.712	1.37
274.09	1.45
274.468	1.46
274.846	1.33
275.224	1.3
275.602	1.39
275.98	1.51
276.357	1.37
276.735	1.35
277.113	1.38
277.49	1.36
277.868	1.35
278.246	1.38
278.623	1.46
279.001	1.31
279.378	1.38
279.756	1.41
280.133	1.44
280.51	1.54
280.888	1.47
281.265	1.33
281.642	1.45
282.019	1.62
282.396	1.57
282.773	1.45
283.151	1.61
283.528	1.36
283.905	1.54
284.282	1.49
284.659	1.55
285.035	1.3
285.412	1.41
285.789	1.54
286.166	1.5
286.543	1.38
286.919	1.53
287.296	1.4
287.673	1.53
288.049	1.48
288.426	1.5
288.802	1.42
289.179	1.47
289.555	1.56
289.932	1.5
290.308	1.31
290.684	1.39
291.061	1.39
291.437	1.48
291.813	1.31
292.189	1.28
292.565	1.34
292.942	1.3
293.318	1.42
293.694	1.5
294.07	1.43
294.446	1.44
294.822	1.6
295.197	1.38
295.573	1.49
295.949	1.44
296.325	1.36
296.701	1.4
297.076	1.45
297.452	1.46
297.828	1.44
298.203	1.35
298.579	1.39
298.954	1.27
299.33	1.3
299.705	1.41
300.081	1.26
300.456	1.31
300.831	1.31
301.206	1.29
301.582	1.24
301.957	1.22
302.332	1.26
302.707	1.2
303.082	1.2
303.457	1.24
303.832	1.13
304.207	1.16
304.582	1.1
304.957	1.11
305.332	1.05
305.707	1.02
306.082	1.06
306.456	1.1
306.831	1.02
307.206	1
307.58	0.99
307.955	0.92
308.33	0.93
308.704	0.9
309.079	0.87
309.453	0.92
309.828	0.84
310.202	0.89
310.576	0.87
310.951	0.83
311.325	0.83
311.699	0.84
312.073	0.81
312.447	0.78
312.821	0.78
313.196	0.78
313.57	0.74
313.944	0.74
314.317	0.73
314.691	0.76
315.065	0.72
315.439	0.74
315.813	0.74
316.187	0.69
316.56	0.72
316.934	0.69
317.308	0.68
317.681	0.68
318.055	0.69
318.428	0.71
318.802	0.69
319.175	0.68
319.549	0.64
319.922	0.66
320.295	0.63
320.669	0.65
321.042	0.67
321.415	0.68
321.788	0.63
322.162	0.63
322.535	0.64
322.908	0.64
323.281	0.61
323.654	0.64
324.027	0.61
324.4	0.64
324.773	0.67
325.145	0.65
325.518	0.61
325.891	0.66
326.264	0.64
326.636	0.63
327.009	0.63
327.382	0.66
327.754	0.66
328.127	0.64
328.499	0.65
328.872	0.64
329.244	0.65
329.616	0.65
329.989	0.67
330.361	0.66
330.733	0.66
331.106	0.65
331.478	0.69
331.85	0.72
332.222	0.67
332.594	0.7
332.966	0.71
333.338	0.72
333.71	0.75
334.082	0.78
334.454	0.74
334.826	0.76
335.197	0.75
335.569	0.78
335.941	0.74
336.312	0.76
336.684	0.78
337.056	0.81
337.427	0.81
337.799	0.85
338.17	0.83
338.542	0.82
338.913	0.87
339.284	0.86
339.656	0.85
340.027	0.85
340.398	0.87
340.769	0.86
341.141	0.95
341.512	0.9
341.883	0.94
342.254	0.93
342.625	0.91
342.996	0.92
343.367	1
343.738	1.04
344.108	0.98
344.479	0.98
344.85	0.93
345.221	1.06
345.591	0.98
345.962	1
346.333	1.06
346.703	1.02
347.074	1.02
347.444	1.08
347.815	1.09
348.185	1.11
348.556	1.1
348.926	1.08
349.296	1.1
349.666	1.13
350.037	1.09
350.407	1.09
350.777	1.15
351.147	1.11
351.517	1.2
351.887	1.19
352.257	1.23
352.627	1.16
352.997	1.29
353.367	1.22
353.737	1.3
354.106	1.33
354.476	1.38
354.846	1.36
355.216	1.33
355.585	1.42
355.955	1.42
356.324	1.39
356.694	1.39
357.063	1.38
357.433	1.35
357.802	1.46
358.171	1.41
358.541	1.5
358.91	1.64
359.279	1.44
359.648	1.44
360.017	1.6
360.387	1.5
360.756	1.49
361.125	1.64
361.494	1.6
361.863	1.42
362.231	1.59
362.6	1.58
362.969	1.6
363.338	1.49
363.707	1.62
364.075	1.67
364.444	1.36
364.813	1.4
365.181	1.49
365.55	1.49
365.918	1.63
366.287	1.45
366.655	1.53
367.024	1.58
367.392	1.69
367.76	1.5
368.128	1.56
368.497	1.44
368.865	1.45
369.233	1.67
369.601	1.47
369.969	1.44
370.337	1.59
370.705	1.59
371.073	1.51
371.441	1.6
371.809	1.43
372.177	1.5
372.544	1.47
372.912	1.53
373.28	1.47
373.647	1.62
374.015	1.62
374.383	1.81
374.75	1.61
375.118	1.57
375.485	1.51
375.853	1.63
376.22	1.61
376.587	1.48
376.955	1.69
377.322	1.74
377.689	1.48
378.056	1.62
378.423	1.46
378.79	1.51
379.157	1.48
379.524	1.63
379.891	1.54
380.258	1.53
380.625	1.67
380.992	1.46
381.359	1.51
381.726	1.52
382.092	1.54
382.459	1.58
382.826	1.62
383.192	1.6
383.559	1.57
383.925	1.55
384.292	1.53
384.658	1.61
385.025	1.55
385.391	1.8
385.757	1.58
386.123	1.61
386.49	1.61
386.856	1.5
387.222	1.57
387.588	1.64
387.954	1.54
388.32	1.74
388.686	1.52
389.052	1.48
389.418	1.67
389.784	1.49
390.15	1.62
390.515	1.4
390.881	1.67
391.247	1.4
391.613	1.65
391.978	1.44
392.344	1.6
392.709	1.57
393.075	1.57
393.44	1.63
393.806	1.71
394.171	1.43
394.536	1.53
394.902	1.63
395.267	1.51
395.632	1.42
395.997	1.51
396.362	1.46
396.727	1.62
397.092	1.52
397.457	1.58
397.822	1.5
398.187	1.64
398.552	1.61
398.917	1.7
399.282	1.46
399.646	1.66
400.011	1.61
400.376	1.49
400.74	1.54
401.105	1.56
401.47	1.6
401.834	1.66
402.199	1.46
402.563	1.49
402.927	1.56
403.292	1.68
403.656	1.53
404.02	1.64
404.384	1.75
404.749	1.6
405.113	1.62
405.477	1.72
405.841	1.51
406.205	1.53
406.569	1.49
406.933	1.53
407.296	1.6
407.66	1.57
408.024	1.59
408.388	1.58
408.752	1.61
409.115	1.8
409.479	1.71
409.842	1.44
410.206	1.58
410.569	1.55
410.933	1.53
411.296	1.5
411.66	1.58
412.023	1.4
412.386	1.53
412.749	1.43
413.113	1.59
413.476	1.5
413.839	1.51
414.202	1.59
414.565	1.43
414.928	1.52
415.291	1.33
415.654	1.48
416.017	1.61
416.38	1.47
416.742	1.42
417.105	1.52
417.468	1.39
417.83	1.47
418.193	1.59
418.556	1.42
418.918	1.45
419.281	1.43
419.643	1.65
420.005	1.45
420.368	1.57
420.73	1.45
421.092	1.53
421.455	1.68
421.817	1.44
422.179	1.47
422.541	1.55
422.903	1.57
423.265	1.54
423.627	1.57
423.989	1.48
424.351	1.6
424.713	1.55
425.075	1.53
425.436	1.52
425.798	1.41
426.16	1.59
426.521	1.55
426.883	1.47
427.245	1.56
427.606	1.41
427.967	1.36
428.329	1.57
428.69	1.57
429.052	1.41
429.413	1.58
429.774	1.54
430.135	1.59
430.497	1.72
430.858	1.46
431.219	1.45
431.58	1.58
431.941	1.46
432.302	1.53
432.663	1.57
433.024	1.56
433.384	1.45
433.745	1.44
434.106	1.53
434.467	1.5
434.827	1.58
435.188	1.54
435.548	1.63
435.909	1.51
436.269	1.57
436.63	1.51
436.99	1.5
437.351	1.37
437.711	1.61
438.071	1.46
438.431	1.52
438.792	1.56
439.152	1.5
439.512	1.49
439.872	1.44
440.232	1.6
440.592	1.47
440.952	1.51
441.312	1.49
441.671	1.53
442.031	1.52
442.391	1.39
442.751	1.48
443.11	1.52
443.47	1.45
443.83	1.37
444.189	1.34
444.549	1.44
444.908	1.45
445.267	1.51
445.627	1.41
445.986	1.44
446.345	1.34
446.705	1.42
447.064	1.44
447.423	1.39
447.782	1.41
448.141	1.4
448.5	1.34
448.859	1.34
449.218	1.28
449.577	1.39
449.936	1.37
450.295	1.34
450.653	1.38
451.012	1.32
451.371	1.32
451.729	1.33
452.088	1.3
452.447	1.31
452.805	1.31
453.163	1.34
453.522	1.3
453.88	1.29
454.239	1.26
454.597	1.25
454.955	1.21
455.313	1.26
455.671	1.22
456.029	1.24
456.388	1.2
456.746	1.2
457.104	1.17
457.461	1.17
457.819	1.15
458.177	1.13
458.535	1.11
458.893	1.11
459.25	1.11
459.608	1.08
459.966	1.06
460.323	1.06
460.681	1.03
461.038	1.02
461.396	1.03
461.753	0.98
462.111	0.99
462.468	0.97
462.825	0.95
463.182	0.94
463.54	0.91
463.897	0.93
464.254	0.91
464.611	0.89
464.968	0.87
465.325	0.89
465.682	0.86
466.039	0.83
466.395	0.84
466.752	0.82
467.109	0.8
467.466	0.79
467.822	0.79
468.179	0.77
468.535	0.74
468.892	0.74
469.248	0.74
469.605	0.71
469.961	0.7
470.318	0.7
470.674	0.69
471.03	0.68
471.386	0.66
471.743	0.64
472.099	0.64
472.455	0.64
472.811	0.61
473.167	0.61
473.523	0.59
473.879	0.58
474.235	0.58
474.59	0.56
474.946	0.55
475.302	0.55
475.657	0.52
476.013	0.52
476.369	0.51
476.724	0.51
477.08	0.5
477.435	0.49
477.791	0.48
478.146	0.48
478.501	0.46
478.857	0.46
479.212	0.44
479.567	0.44
479.922	0.42
480.277	0.41
480.632	0.41
480.987	0.4
481.342	0.4
481.697	0.38
482.052	0.37
482.407	0.37
482.762	0.36
483.116	0.35
483.471	0.35
483.826	0.33
484.18	0.33
484.535	0.33
484.89	0.32
485.244	0.31
485.598	0.31
485.953	0.3
486.307	0.29
486.661	0.3
487.016	0.28
487.37	0.28
487.724	0.28
488.078	0.27
488.432	0.26
488.786	0.25
489.14	0.25
489.494	0.24
489.848	0.24
490.202	0.23
490.556	0.23
490.91	0.23
491.263	0.22
491.617	0.22
491.971	0.21
492.324	0.21
492.678	0.2
493.031	0.21
493.385	0.2
493.738	0.19
494.091	0.19
494.445	0.19
494.798	0.18
495.151	0.18
495.504	0.18
495.857	0.17
496.21	0.17
496.564	0.16
496.916	0.16
497.269	0.15
497.622	0.16
497.975	0.14
498.328	0.14
498.681	0.14
499.033	0.14
499.386	0.14
499.739	0.14
500.091	0.14
500.444	0.13
500.796	0.14
501.149	0.13
501.501	0.13
501.854	0.12
502.206	0.12
502.558	0.12
502.91	0.12
503.263	0.12
503.615	0.12
503.967	0.12
504.319	0.11
504.671	0.11
505.023	0.1
505.375	0.11
505.726	0.11
506.078	0.11
506.43	0.1
506.782	0.1
507.133	0.1
507.485	0.09
507.837	0.11
508.188	0.1
508.54	0.1
508.891	0.1
509.243	0.08
509.594	0.1
509.945	0.09
510.296	0.09
510.648	0.09
510.999	0.09
511.35	0.09
511.701	0.09
512.052	0.09
512.403	0.08
512.754	0.08
513.105	0.08
513.456	0.08
513.807	0.07
514.157	0.08
514.508	0.08
514.859	0.07
515.209	0.07
515.56	0.08
515.91	0.07
516.261	0.08
516.611	0.07
516.962	0.07
517.312	0.07
517.662	0.07
518.013	0.07
518.363	0.08
518.713	0.08
519.063	0.07
519.413	0.08
519.763	0.07
520.113	0.07
520.463	0.07
520.813	0.08
521.163	0.08
521.512	0.07
521.862	0.07
522.212	0.07
522.562	0.07
522.911	0.07
523.261	0.06
523.61	0.07
523.96	0.07
524.309	0.07
524.658	0.07
525.008	0.07
525.357	0.06
525.706	0.07
526.056	0.06
526.405	0.06
526.754	0.06
527.103	0.06
527.452	0.06
527.801	0.06
528.15	0.07
528.499	0.06
528.847	0.06
529.196	0.07
529.545	0.07
529.893	0.07
530.242	0.06
530.591	0.07
530.939	0.07
531.288	0.07
531.636	0.07
531.985	0.08
532.333	0.07
532.681	0.07
533.029	0.07
533.378	0.06
533.726	0.06
534.074	0.07
534.422	0.07
534.77	0.06
535.118	0.06
535.466	0.07
535.814	0.07
536.162	0.07
536.509	0.07
536.857	0.06
537.205	0.06
537.552	0.07
537.9	0.07
538.248	0.06
538.595	0.07
538.943	0.06
539.29	0.06
539.637	0.07
539.985	0.06
540.332	0.06
540.679	0.07
541.026	0.07
541.373	0.07
541.721	0.05
542.068	0.06
542.415	0.06
542.762	0.05
543.108	0.05
543.455	0.05
543.802	0.05
544.149	0.06
544.496	0.06
544.842	0.06
545.189	0.05
545.535	0.05
545.882	0.05
546.228	0.05
546.575	0.04
546.921	0.05
547.267	0.04
547.614	0.05
547.96	0.05
548.306	0.04
548.652	0.05
548.998	0.06
549.344	0.05
549.69	0.05
550.036	0.05
550.382	0.05
550.728	0.04
551.074	0.06
551.42	0.06
551.765	0.06
552.111	0.06
552.457	0.06
552.802	0.05
553.148	0.05
553.493	0.05
553.839	0.05
554.184	0.05
554.529	0.05
554.875	0.06
555.22	0.05
555.565	0.06
555.91	0.05
556.255	0.06
556.6	0.06
556.945	0.05
557.29	0.05
557.635	0.06
557.98	0.05
558.325	0.05
558.67	0.06
559.014	0.06
559.359	0.05
559.704	0.06
560.048	0.05
560.393	0.05
560.737	0.04
561.082	0.05
561.426	0.05
561.77	0.05
562.115	0.05
562.459	0.05
562.803	0.05
563.147	0.05
563.491	0.06
563.835	0.05
564.179	0.05
564.523	0.05
564.867	0.04
565.211	0.05
565.555	0.05
565.899	0.06
566.242	0.05
566.586	0.04
566.93	0.05
567.273	0.06
567.617	0.05
567.96	0.06
568.304	0.06
568.647	0.05
568.99	0.05
569.334	0.06
569.677	0.05
570.02	0.06
570.363	0.06
570.706	0.05
571.049	0.06
571.392	0.06
571.735	0.05
572.078	0.05
572.421	0.07
572.764	0.05
573.106	0.06
573.449	0.05
573.792	0.05
574.134	0.05
574.477	0.06
574.819	0.05
575.162	0.05
575.504	0.05
575.847	0.06
576.189	0.05
576.531	0.05
576.873	0.05
577.215	0.05
577.558	0.05
577.9	0.05
578.242	0.05
578.584	0.05
578.926	0.05
579.267	0.05
579.609	0.05
579.951	0.05
580.293	0.05
580.634	0.06
580.976	0.05
581.318	0.05
581.659	0.05
582.001	0.06
582.342	0.05
582.683	0.05
583.025	0.05
583.366	0.05
583.707	0.05
584.049	0.04
584.39	0.05
584.731	0.04
585.072	0.04
585.413	0.05
585.754	0.05
586.095	0.05
586.435	0.05
586.776	0.05
587.117	0.04
587.458	0.04
587.798	0.05
588.139	0.05
588.48	0.04
588.82	0.05
589.161	0.04
589.501	0.04
589.841	0.04
590.182	0.04
590.522	0.05
590.862	0.05
591.202	0.05
591.542	0.05
591.882	0.04
592.222	0.04
592.562	0.05
592.902	0.05
593.242	0.05
593.582	0.05
593.922	0.04
594.261	0.04
594.601	0.05
594.941	0.05
595.28	0.05
595.62	0.05
595.959	0.05
596.299	0.04
596.638	0.05
596.977	0.05
597.317	0.06
597.656	0.05
597.995	0.05
598.334	0.06
598.673	0.05
599.012	0.05
599.351	0.06
599.69	0.05
600.029	0.05
600.368	0.05
600.707	0.06
601.046	0.05
601.384	0.05
601.723	0.05
602.061	0.05
602.4	0.05
602.738	0.06
603.077	0.05
603.415	0.05
603.754	0.05
604.092	0.05
604.43	0.05
604.768	0.06
605.107	0.05
605.445	0.04
605.783	0.04
606.121	0.05
606.459	0.05
606.796	0.05
607.134	0.04
607.472	0.05
607.81	0.05
608.148	0.05
608.485	0.05
608.823	0.05
609.16	0.05
609.498	0.05
609.835	0.05
610.173	0.05
610.51	0.05
610.847	0.05
611.185	0.05
611.522	0.05
611.859	0.05
612.196	0.05
612.533	0.05
612.87	0.06
613.207	0.06
613.544	0.06
613.881	0.06
614.217	0.06
614.554	0.05
614.891	0.06
615.228	0.06
615.564	0.06
615.901	0.06
616.237	0.06
616.574	0.06
616.91	0.06
617.246	0.06
617.583	0.07
617.919	0.07
618.255	0.06
618.591	0.06
618.927	0.06
619.263	0.07
619.599	0.06
619.935	0.06
620.271	0.06
620.607	0.06
620.943	0.06
621.279	0.06
621.614	0.06
621.95	0.06
622.286	0.06
622.621	0.06
622.957	0.06
623.292	0.06
623.627	0.05
623.963	0.06
624.298	0.06
624.633	0.05
624.968	0.05
625.304	0.05
625.639	0.05
625.974	0.05
626.309	0.05
626.644	0.05
626.979	0.06
627.313	0.05
627.648	0.05
627.983	0.05
628.318	0.05
628.652	0.04
628.987	0.05
629.321	0.05
629.656	0.04
629.99	0.04
630.325	0.05
630.659	0.05
630.993	0.04
631.327	0.04
631.662	0.04
631.996	0.04
632.33	0.04
632.664	0.05
632.998	0.04
633.332	0.05
633.666	0.04
633.999	0.05
634.333	0.04
634.667	0.05
635.001	0.05
635.334	0.05
635.668	0.04
636.001	0.04
636.335	0.05
636.668	0.04
637.001	0.04
637.335	0.05
637.668	0.04
638.001	0.04
638.334	0.04
638.668	0.04
639.001	0.05
639.334	0.04
639.667	0.05
639.999	0.04
640.332	0.04
640.665	0.04
640.998	0.05
641.331	0.05
641.663	0.04
641.996	0.05
642.328	0.05
642.661	0.05
642.993	0.04
643.326	0.05
643.658	0.04
643.99	0.04
644.323	0.04
644.655	0.04
644.987	0.04
645.319	0.04
645.651	0.04
645.983	0.04
646.315	0.04
646.647	0.04
646.979	0.04
647.31	0.05
647.642	0.04
647.974	0.05
648.305	0.06
648.637	0.04
648.968	0.04
649.3	0.05
649.631	0.05
649.963	0.04
650.294	0.05
650.625	0.05
650.957	0.05
651.288	0.05
651.619	0.06
651.95	0.05
652.281	0.06
652.612	0.06
652.943	0.05
653.274	0.05
653.604	0.05
653.935	0.05
654.266	0.05
654.596	0.05
654.927	0.05
655.258	0.06
655.588	0.06
655.918	0.05
656.249	0.03
656.579	0.05
656.909	0.05
657.24	0.05
657.57	0.05
657.9	0.05
658.23	0.05
658.56	0.05
658.89	0.05
659.22	0.05
659.55	0.05
659.88	0.05
660.209	0.05
660.539	0.06
660.869	0.06
661.198	0.05
661.528	0.05
661.857	0.05
662.187	0.05
662.516	0.05
662.846	0.05
663.175	0.05
663.504	0.05
663.833	0.05
664.163	0.05
664.492	0.05
664.821	0.05
665.15	0.05
665.479	0.06
665.807	0.05
666.136	0.05
666.465	0.05
666.794	0.05
667.122	0.05
667.451	0.05
667.78	0.05
668.108	0.06
668.437	0.05
668.765	0.06
669.093	0.05
669.422	0.05
669.75	0.05
670.078	0.05
670.406	0.05
670.734	0.06
671.062	0.05
671.39	0.05
671.718	0.06
672.046	0.05
672.374	0.05
672.702	0.05
673.029	0.05
673.357	0.05
673.685	0.06
674.012	0.05
674.34	0.05
674.667	0.05
674.995	0.05
675.322	0.05
675.649	0.05
675.977	0.05
676.304	0.05
676.631	0.05
676.958	0.05
677.285	0.04
677.612	0.05
677.939	0.05
678.266	0.05
678.593	0.05
678.92	0.05
679.246	0.04
679.573	0.04
679.9	0.05
680.226	0.05
680.553	0.05
680.879	0.05
681.206	0.05
681.532	0.05
681.858	0.05
682.184	0.05
682.511	0.05
682.837	0.05
683.163	0.05
683.489	0.05
683.815	0.05
684.141	0.05
684.467	0.05
684.793	0.04
685.118	0.05
685.444	0.05
685.77	0.04
686.095	0.05
686.421	0.05
686.746	0.05
687.072	0.05
687.397	0.05
687.723	0.05
688.048	0.05
688.373	0.05
688.698	0.05
689.023	0.04
689.349	0.05
689.674	0.05
689.999	0.04
690.323	0.04
690.648	0.04
690.973	0.04
691.298	0.05
691.623	0.05
691.947	0.05
692.272	0.04
692.596	0.05
692.921	0.05
693.245	0.05
693.57	0.05
693.894	0.06
694.218	0.06
694.543	0.05
694.867	0.05
695.191	0.05
695.515	0.05
695.839	0.04
696.163	0.05
696.487	0.05
696.811	0.05
697.135	0.05
697.458	0.05
697.782	0.05
698.106	0.05
698.429	0.05
698.753	0.05
699.076	0.05
699.4	0.05
699.723	0.05
700.046	0.04
700.37	0.05
700.693	0.05
701.016	0.06
701.339	0.05
701.662	0.05
701.985	0.05
702.308	0.05
702.631	0.05
702.954	0.05
703.277	0.05
703.599	0.05
703.922	0.04
704.245	0.05
704.567	0.05
704.89	0.05
705.212	0.05
705.535	0.04
705.857	0.05
706.179	0.04
706.502	0.05
706.824	0.04
707.146	0.04
707.468	0.04
707.79	0.04
708.112	0.05
708.434	0.05
708.756	0.05
709.078	0.05
709.399	0.04
709.721	0.05
710.043	0.06
710.364	0.05
710.686	0.05
711.007	0.04
711.329	0.06
711.65	0.05
711.972	0.05
712.293	0.06
712.614	0.05
712.935	0.06
713.256	0.05
713.577	0.06
713.898	0.05
714.219	0.05
714.54	0.05
714.861	0.04
715.182	0.04
715.503	0.04
715.823	0.05
716.144	0.04
716.464	0.04
716.785	0.04
717.105	0.05
717.426	0.04
717.746	0.04
718.066	0.04
718.387	0.05
718.707	0.04
719.027	0.04
719.347	0.03
719.667	0.04
719.987	0.04
720.307	0.03
720.627	0.04
720.947	0.04
721.266	0.03
721.586	0.04
721.906	0.04
722.225	0.03
722.545	0.04
722.864	0.04
723.184	0.05
723.503	0.04
723.823	0.04
724.142	0.04
724.461	0.03
724.78	0.04
725.099	0.04
725.418	0.04
725.737	0.04
726.056	0.04
726.375	0.04
726.694	0.04
727.013	0.04
727.331	0.04
727.65	0.03
727.969	0.03
728.287	0.05
728.606	0.04
728.924	0.04
729.242	0.04
729.561	0.04
729.879	0.04
730.197	0.04
730.515	0.04
730.834	0.05
731.152	0.05
731.47	0.05
731.788	0.05
732.105	0.04
732.423	0.04
732.741	0.04
733.059	0.04
733.376	0.05
733.694	0.04
734.012	0.05
734.329	0.05
734.647	0.05
734.964	0.05
735.281	0.05
735.599	0.05
735.916	0.05
736.233	0.05
736.55	0.04
736.867	0.05
737.184	0.05
737.501	0.04
737.818	0.06
738.135	0.05
738.452	0.05
738.768	0.05
739.085	0.05
739.402	0.03
739.718	0.04
740.035	0.04
740.351	0.05
740.668	0.04
740.984	0.04
741.3	0.04
741.617	0.05
741.933	0.04
742.249	0.05
742.565	0.05
742.881	0.05
743.197	0.05
743.513	0.04
743.829	0.04
744.144	0.04
744.46	0.03
744.776	0.05
745.091	0.03
745.407	0.04
745.722	0.04
746.038	0.04
746.353	0.03
746.669	0.04
746.984	0.02
747.299	0.04
747.614	0.04
747.93	0.04
748.245	0.03
748.56	0.03
748.875	0.03
749.189	0.03
749.504	0.03
749.819	0.04
750.134	0.04
750.448	0.04
750.763	0.04
751.078	0.02
751.392	0.04
751.707	0.05
752.021	0.05
752.335	0.05
752.65	0.05
752.964	0.04
753.278	0.05
753.592	0.05
753.906	0.04
754.22	0.04
754.534	0.05
754.848	0.04
755.162	0.04
755.476	0.05
755.789	0.05
756.103	0.04
756.417	0.05
756.73	0.05
757.044	0.05
757.357	0.05
757.671	0.05
757.984	0.05
758.297	0.05
758.61	0.05
758.924	0.05
759.237	0.04
759.55	0.05
759.863	0.04
760.176	0.04
760.488	0.04
760.801	0.04
761.114	0.04
761.427	0.04
761.739	0.04
762.052	0.04
762.365	0.04
762.677	0.04
762.99	0.04
763.302	0.04
763.614	0.03
763.926	0.05
764.239	0.04
764.551	0.04
764.863	0.04
765.175	0.04
765.487	0.04
765.799	0.04
766.111	0.03
766.423	0.05
766.734	0.04
767.046	0.04
767.358	0.04
767.669	0.04
767.981	0.04
768.292	0.04
768.604	0.04
768.915	0.04
769.226	0.04
769.537	0.03
769.849	0.04
770.16	0.04
770.471	0.03
770.782	0.04
771.093	0.04
771.404	0.02
771.715	0.03
772.025	0.04
772.336	0.03
772.647	0.03
772.957	0.04
773.268	0.04
773.578	0.03
773.889	0.04
774.199	0.05
774.51	0.04
774.82	0.04
775.13	0.05
775.44	0.04
775.75	0.05
776.06	0.05
776.37	0.04
776.68	0.05
776.99	0.05
777.3	0.04
777.61	0.04
777.92	0.04
778.229	0.04
778.539	0.04
778.848	0.05
779.158	0.04
779.467	0.04
779.777	0.03
780.086	0.04
780.395	0.03
780.704	0.04
781.013	0.03
781.323	0.03
781.632	0.04
781.941	0.04
782.249	0.04
782.558	0.04
782.867	0.04
783.176	0.02
783.485	0.03
783.793	0.03
784.102	0.04
784.41	0.04
784.719	0.04
785.027	0.04
785.335	0.03
785.644	0.03
785.952	0.03
786.26	0.04
786.568	0.04
786.876	0.04
787.184	0.03
787.492	0.04
787.8	0.04
788.108	0.04
788.416	0.04
788.723	0.04
789.031	0.04
789.338	0.04
789.646	0.02
789.953	0.04
790.261	0.04
790.568	0.05
790.876	0.04
791.183	0.04
791.49	0.04
791.797	0.04
792.104	0.04
792.411	0.04
792.718	0.03
793.025	0.05
793.332	0.05
793.639	0.05
793.945	0.05
794.252	0.05
794.559	0.04
794.865	0.05
795.172	0.05
795.478	0.04
795.784	0.05
796.091	0.04
796.397	0.05
796.703	0.05
797.009	0.06
797.315	0.05
797.622	0.05
797.927	0.05
798.233	0.05
798.539	0.06
798.845	0.05
799.151	0.05
799.456	0.06
799.762	0.05
800.068	0.05
800.373	0.06
800.679	0.06
800.984	0.05
801.289	0.05
801.595	0.05
801.9	0.04
802.205	0.05
802.51	0.05
802.815	0.05
803.12	0.05
803.425	0.05
803.73	0.05
804.035	0.05
804.339	0.04
804.644	0.04
804.949	0.05
805.253	0.04
805.558	0.05
805.862	0.04
806.167	0.04
806.471	0.04
806.775	0.05
807.08	0.05
807.384	0.04
807.688	0.04
807.992	0.04
808.296	0.04
808.6	0.05
808.904	0.05
809.207	0.04
809.511	0.05
809.815	0.06
810.119	0.05
810.422	0.05
810.726	0.06
811.029	0.06
811.332	0.06
811.636	0.06
811.939	0.06
812.242	0.06
812.546	0.06
812.849	0.05
813.152	0.07
813.455	0.06
813.758	0.06
814.06	0.06
814.363	0.07
814.666	0.06
814.969	0.06
815.271	0.06
815.574	0.06
815.877	0.05
816.179	0.06
816.481	0.05
816.784	0.06
817.086	0.05
817.388	0.05
817.69	0.05
817.993	0.04
818.295	0.04
818.597	0.04
818.899	0.04
819.2	0.04
819.502	0.04
819.804	0.04
820.106	0.04
820.407	0.04
820.709	0.04
821.01	0.04
821.312	0.05
821.613	0.03
821.915	0.04
822.216	0.04
822.517	0.03
822.818	0.04
823.119	0.04
823.42	0.04
823.721	0.03
824.022	0.03
824.323	0.04
824.624	0.03
824.925	0.03
825.226	0.04
825.526	0.03
825.827	0.03
826.127	0.04
826.428	0.03
826.728	0.03
827.028	0.03
827.329	0.03
827.629	0.02
827.929	0.02
828.229	0.04
828.529	0.03
828.829	0.03
829.129	0.03
829.429	0.03
829.729	0.02
830.029	0.03
830.328	0.03
830.628	0.03
830.927	0.02
831.227	0.03
831.526	0.04
831.826	0.03
832.125	0.03
832.424	0.02
832.724	0.02
833.023	0.03
833.322	0.04
833.621	0.02
833.92	0.02
834.219	0.02
834.518	0.02
834.816	0.01
835.115	0.02
835.414	0.02
835.712	0.02
836.011	0.02
836.309	0.01
836.608	0.01
836.906	0
837.205	0
837.503	0
837.801	0
838.099	-0.01
838.397	-0.01
838.695	-0.01
838.993	-0.01
839.291	-0.01
839.589	-0.01
839.887	-0.01
840.184	-0.01
840.482	-0.01
840.78	-0.01
841.077	-0.01
841.375	-0.01
841.672	-0.02
841.969	-0.02
842.267	-0.02
842.564	-0.01
842.861	-0.01
843.158	-0.02
843.455	-0.03
843.752	-0.02
844.049	-0.03
844.346	-0.03
844.643	-0.03
844.94	-0.03
845.236	-0.02
845.533	-0.02
845.83	-0.03
846.126	-0.03
846.423	-0.03
846.719	-0.04
847.015	-0.04
847.312	-0.04
847.608	-0.04
847.904	-0.04
848.2	-0.04
848.496	-0.05
848.792	-0.03
849.088	-0.03
849.384	-0.04
849.68	-0.05
849.975	-0.04
850.271	-0.05
850.567	-0.05
850.862	-0.05
851.158	-0.05
851.453	-0.05
851.748	-0.06
852.044	-0.05
852.339	-0.05
852.634	-0.07
852.929	-0.04
853.224	-0.06
853.519	-0.05
853.814	-0.05
854.109	-0.06
854.404	-0.06
854.699	-0.06
854.994	-0.05
855.288	-0.06
855.583	-0.06
855.877	-0.07
856.172	-0.07
856.466	-0.07
856.76	-0.08
857.055	-0.07
857.349	-0.09
857.643	-0.09
857.937	-0.09
858.231	-0.09
858.525	-0.1
858.819	-0.1
859.113	-0.11
859.407	-0.11
859.701	-0.11
859.994	-0.11
860.288	-0.1
860.581	-0.1
860.875	-0.1
861.168	-0.11
861.462	-0.11
861.755	-0.1
862.048	-0.12
862.341	-0.11
862.634	-0.11
862.928	-0.1
863.221	-0.11
863.513	-0.12
863.806	-0.11
864.099	-0.12
864.392	-0.13
864.685	-0.11
864.977	-0.12
865.27	-0.12
865.562	-0.12
865.855	-0.11
866.147	-0.12
866.44	-0.12
866.732	-0.11
867.024	-0.13
867.316	-0.13
867.608	-0.13
867.9	-0.12
868.192	-0.12
868.484	-0.13
868.776	-0.13
869.068	-0.13
869.359	-0.12
869.651	-0.13
869.943	-0.15
870.234	-0.13
870.526	-0.14
870.817	-0.15
871.108	-0.14
871.4	-0.13
871.691	-0.15
871.982	-0.15
872.273	-0.17
872.564	-0.16
872.855	-0.17
873.146	-0.15
873.437	-0.16
873.728	-0.17
874.019	-0.16
874.309	-0.17
874.6	-0.16
874.89	-0.17
875.181	-0.16
875.471	-0.17
875.762	-0.16
876.052	-0.15
876.342	-0.15
876.632	-0.17
876.922	-0.17
877.213	-0.16
877.503	-0.18
877.792	-0.16
878.082	-0.18
878.372	-0.15
878.662	-0.19
878.952	-0.16
879.241	-0.16
879.531	-0.17
879.82	-0.17
880.11	-0.15
880.399	-0.16
880.688	-0.15
880.978	-0.15
881.267	-0.15
