Data from 12-12-AQDScycling_Absorbance__945__00945.txt Node

Date: Tue Dec 12 14:52:59 EST 2023
User: kyuminlee
Spectrometer: FLMS00943
Trigger mode: 0
Integration Time (sec): 1.000000E-1
Scans to average: 1
Electric dark correction enabled: true
Nonlinearity correction enabled: false
Boxcar width: 0
XAxis mode: Wavelengths
Number of Pixels in Spectrum: 2048
>>>>>Begin Spectral Data<<<<<
179.651	-0.22
180.037	-0.22
180.424	-0.22
180.81	-0.51
181.197	0.21
181.583	-0.21
181.97	-0.19
182.356	-0
182.743	-1.08
183.129	0.15
183.515	-0.06
183.901	-2.52
184.288	-0.02
184.674	-0
185.06	-0
185.446	-0
185.832	-0
186.218	0.1
186.604	0.32
186.99	0.15
187.376	-0.16
187.762	-0
188.148	0.37
188.534	0.38
188.92	0.21
189.305	0.17
189.691	0.34
190.077	0.14
190.463	0.16
190.848	0.11
191.234	0.01
191.619	0.03
192.005	0.25
192.391	0.24
192.776	0.29
193.161	0.22
193.547	0.31
193.932	-0.02
194.318	0.04
194.703	0.05
195.088	0.13
195.473	0.1
195.859	0.16
196.244	0.18
196.629	0.15
197.014	0.16
197.399	0.17
197.784	0.17
198.169	0.1
198.554	0.25
198.939	0.24
199.324	0.15
199.709	0.12
200.094	0.03
200.478	0.17
200.863	0.28
201.248	0.18
201.633	0.1
202.017	0.17
202.402	0.23
202.787	0.07
203.171	0.19
203.556	0.11
203.94	0.11
204.325	0.12
204.709	0.27
205.093	0.09
205.478	0.14
205.862	0.16
206.246	0.05
206.631	0.18
207.015	0.06
207.399	0.25
207.783	0.14
208.167	0.24
208.551	0.36
208.935	0.08
209.319	0.4
209.703	0.14
210.087	0.21
210.471	0.08
210.855	0.13
211.239	0.14
211.623	0.28
212.007	0.35
212.39	0.32
212.774	0.07
213.158	0.12
213.541	0.31
213.925	0.24
214.309	0.28
214.692	0.3
215.076	0.28
215.459	0.09
215.842	0.19
216.226	0.18
216.609	0.2
216.993	0.3
217.376	0.6
217.759	0.19
218.142	0.25
218.525	0.76
218.909	0.47
219.292	0.31
219.675	0.55
220.058	0.45
220.441	0.65
220.824	0.45
221.207	0.59
221.59	0.44
221.973	0.57
222.355	0.59
222.738	0.61
223.121	0.65
223.504	0.52
223.886	0.71
224.269	0.62
224.652	0.7
225.034	0.74
225.417	0.71
225.799	0.79
226.182	0.94
226.564	0.73
226.947	0.74
227.329	0.79
227.711	0.98
228.094	0.98
228.476	0.94
228.858	0.86
229.24	0.8
229.623	0.92
230.005	0.82
230.387	0.96
230.769	0.81
231.151	0.98
231.533	1.05
231.915	0.91
232.297	1.03
232.679	0.9
233.061	1.04
233.442	0.99
233.824	1.05
234.206	1.19
234.588	1.12
234.969	1.14
235.351	0.94
235.733	1.04
236.114	1.19
236.496	1.17
236.877	1.1
237.259	1.04
237.64	1.14
238.022	0.96
238.403	0.98
238.784	1.03
239.165	0.94
239.547	1.07
239.928	1.1
240.309	1.07
240.69	0.97
241.071	1.17
241.452	1.18
241.834	1.11
242.215	1.22
242.595	1.09
242.976	1.11
243.357	1.09
243.738	0.99
244.119	1.3
244.5	1.08
244.881	1.19
245.261	1.18
245.642	1.07
246.023	1.16
246.403	1.21
246.784	1.32
247.164	1.27
247.545	1.19
247.925	1.23
248.306	1.21
248.686	1.64
249.067	1.18
249.447	1.33
249.827	1.52
250.207	1.47
250.588	1.29
250.968	1.38
251.348	1.33
251.728	1.43
252.108	1.34
252.488	1.29
252.868	1.31
253.248	1.37
253.628	1.53
254.008	1.48
254.388	1.34
254.768	1.4
255.147	1.38
255.527	1.39
255.907	1.4
256.287	1.32
256.666	1.43
257.046	1.45
257.425	1.36
257.805	1.32
258.184	1.36
258.564	1.46
258.943	1.4
259.323	1.52
259.702	1.5
260.081	1.45
260.461	1.54
260.84	1.46
261.219	1.63
261.598	1.62
261.977	1.41
262.356	1.47
262.736	1.52
263.115	1.58
263.494	1.36
263.873	1.44
264.251	1.48
264.63	1.65
265.009	1.49
265.388	1.52
265.767	1.38
266.145	1.41
266.524	1.51
266.903	1.43
267.281	1.27
267.66	1.56
268.039	1.53
268.417	1.41
268.796	1.35
269.174	1.53
269.552	1.31
269.931	1.47
270.309	1.51
270.687	1.63
271.066	1.69
271.444	1.42
271.822	1.66
272.2	1.56
272.578	1.38
272.956	1.54
273.334	1.43
273.712	1.39
274.09	1.3
274.468	1.34
274.846	1.25
275.224	1.42
275.602	1.42
275.98	1.73
276.357	1.34
276.735	1.51
277.113	1.2
277.49	1.31
277.868	1.32
278.246	1.39
278.623	1.34
279.001	1.31
279.378	1.4
279.756	1.62
280.133	1.53
280.51	1.44
280.888	1.45
281.265	1.34
281.642	1.46
282.019	1.42
282.396	1.62
282.773	1.4
283.151	1.48
283.528	1.56
283.905	1.36
284.282	1.5
284.659	1.47
285.035	1.36
285.412	1.34
285.789	1.56
286.166	1.25
286.543	1.41
286.919	1.37
287.296	1.41
287.673	1.6
288.049	1.52
288.426	1.85
288.802	1.52
289.179	1.4
289.555	1.66
289.932	1.4
290.308	1.28
290.684	1.33
291.061	1.42
291.437	1.52
291.813	1.56
292.189	1.45
292.565	1.35
292.942	1.45
293.318	1.44
293.694	1.49
294.07	1.33
294.446	1.42
294.822	1.47
295.197	1.42
295.573	1.37
295.949	1.53
296.325	1.48
296.701	1.64
297.076	1.64
297.452	1.49
297.828	1.44
298.203	1.59
298.579	1.44
298.954	1.49
299.33	1.48
299.705	1.49
300.081	1.49
300.456	1.59
300.831	1.44
301.206	1.54
301.582	1.48
301.957	1.46
302.332	1.72
302.707	1.44
303.082	1.45
303.457	1.57
303.832	1.45
304.207	1.48
304.582	1.52
304.957	1.51
305.332	1.69
305.707	1.49
306.082	1.75
306.456	1.63
306.831	1.43
307.206	1.69
307.58	1.51
307.955	1.53
308.33	1.55
308.704	1.6
309.079	1.46
309.453	1.71
309.828	1.59
310.202	1.46
310.576	1.5
310.951	1.62
311.325	1.44
311.699	1.49
312.073	1.44
312.447	1.5
312.821	1.54
313.196	1.47
313.57	1.38
313.944	1.41
314.317	1.36
314.691	1.51
315.065	1.56
315.439	1.6
315.813	1.5
316.187	1.47
316.56	1.61
316.934	1.63
317.308	1.41
317.681	1.44
318.055	1.53
318.428	1.45
318.802	1.6
319.175	1.45
319.549	1.53
319.922	1.4
320.295	1.51
320.669	1.66
321.042	1.52
321.415	1.57
321.788	1.43
322.162	1.45
322.535	1.61
322.908	1.58
323.281	1.54
323.654	1.64
324.027	1.46
324.4	1.57
324.773	1.66
325.145	1.65
325.518	1.45
325.891	1.4
326.264	1.59
326.636	1.39
327.009	1.41
327.382	1.55
327.754	1.63
328.127	1.41
328.499	1.58
328.872	1.53
329.244	1.52
329.616	1.58
329.989	1.51
330.361	1.51
330.733	1.49
331.106	1.46
331.478	1.67
331.85	1.37
332.222	1.56
332.594	1.51
332.966	1.77
333.338	1.62
333.71	1.64
334.082	1.66
334.454	1.41
334.826	1.59
335.197	1.73
335.569	1.56
335.941	1.39
336.312	1.49
336.684	1.48
337.056	1.49
337.427	1.56
337.799	1.61
338.17	1.52
338.542	1.46
338.913	1.69
339.284	1.49
339.656	1.66
340.027	1.47
340.398	1.64
340.769	1.54
341.141	1.6
341.512	1.49
341.883	1.56
342.254	1.51
342.625	1.61
342.996	1.49
343.367	1.47
343.738	1.69
344.108	1.5
344.479	1.66
344.85	1.41
345.221	1.66
345.591	1.44
345.962	1.5
346.333	1.4
346.703	1.3
347.074	1.35
347.444	1.34
347.815	1.35
348.185	1.44
348.556	1.37
348.926	1.41
349.296	1.45
349.666	1.35
350.037	1.29
350.407	1.23
350.777	1.31
351.147	1.25
351.517	1.38
351.887	1.35
352.257	1.4
352.627	1.26
352.997	1.28
353.367	1.41
353.737	1.45
354.106	1.3
354.476	1.29
354.846	1.4
355.216	1.42
355.585	1.39
355.955	1.32
356.324	1.4
356.694	1.27
357.063	1.26
357.433	1.21
357.802	1.24
358.171	1.23
358.541	1.16
358.91	1.18
359.279	1.12
359.648	1.14
360.017	1.19
360.387	1.12
360.756	1.09
361.125	1.1
361.494	1.06
361.863	1.02
362.231	1
362.6	0.98
362.969	0.98
363.338	0.92
363.707	0.98
364.075	0.94
364.444	0.87
364.813	0.88
365.181	0.87
365.55	0.84
365.918	0.87
366.287	0.8
366.655	0.81
367.024	0.78
367.392	0.8
367.76	0.73
368.128	0.71
368.497	0.73
368.865	0.7
369.233	0.71
369.601	0.67
369.969	0.68
370.337	0.66
370.705	0.65
371.073	0.66
371.441	0.64
371.809	0.62
372.177	0.62
372.544	0.62
372.912	0.59
373.28	0.59
373.647	0.58
374.015	0.59
374.383	0.58
374.75	0.58
375.118	0.55
375.485	0.56
375.853	0.54
376.22	0.52
376.587	0.54
376.955	0.53
377.322	0.52
377.689	0.54
378.056	0.49
378.423	0.49
378.79	0.51
379.157	0.51
379.524	0.49
379.891	0.48
380.258	0.48
380.625	0.48
380.992	0.46
381.359	0.47
381.726	0.47
382.092	0.47
382.459	0.47
382.826	0.46
383.192	0.45
383.559	0.44
383.925	0.47
384.292	0.44
384.658	0.46
385.025	0.45
385.391	0.45
385.757	0.44
386.123	0.46
386.49	0.46
386.856	0.46
387.222	0.44
387.588	0.46
387.954	0.46
388.32	0.45
388.686	0.43
389.052	0.43
389.418	0.44
389.784	0.43
390.15	0.44
390.515	0.42
390.881	0.44
391.247	0.44
391.613	0.44
391.978	0.43
392.344	0.43
392.709	0.43
393.075	0.43
393.44	0.42
393.806	0.41
394.171	0.42
394.536	0.44
394.902	0.41
395.267	0.39
395.632	0.4
395.997	0.42
396.362	0.42
396.727	0.43
397.092	0.42
397.457	0.41
397.822	0.4
398.187	0.39
398.552	0.39
398.917	0.39
399.282	0.4
399.646	0.38
400.011	0.4
400.376	0.38
400.74	0.41
401.105	0.37
401.47	0.39
401.834	0.37
402.199	0.37
402.563	0.36
402.927	0.36
403.292	0.37
403.656	0.37
404.02	0.38
404.384	0.38
404.749	0.35
405.113	0.36
405.477	0.34
405.841	0.34
406.205	0.35
406.569	0.32
406.933	0.33
407.296	0.34
407.66	0.35
408.024	0.34
408.388	0.34
408.752	0.34
409.115	0.33
409.479	0.32
409.842	0.33
410.206	0.3
410.569	0.32
410.933	0.33
411.296	0.31
411.66	0.33
412.023	0.3
412.386	0.31
412.749	0.31
413.113	0.31
413.476	0.3
413.839	0.29
414.202	0.29
414.565	0.28
414.928	0.3
415.291	0.28
415.654	0.3
416.017	0.29
416.38	0.29
416.742	0.27
417.105	0.27
417.468	0.27
417.83	0.29
418.193	0.28
418.556	0.27
418.918	0.28
419.281	0.29
419.643	0.26
420.005	0.28
420.368	0.28
420.73	0.28
421.092	0.28
421.455	0.27
421.817	0.25
422.179	0.25
422.541	0.25
422.903	0.27
423.265	0.27
423.627	0.25
423.989	0.25
424.351	0.25
424.713	0.25
425.075	0.22
425.436	0.25
425.798	0.24
426.16	0.24
426.521	0.24
426.883	0.26
427.245	0.24
427.606	0.23
427.967	0.24
428.329	0.25
428.69	0.24
429.052	0.25
429.413	0.24
429.774	0.23
430.135	0.24
430.497	0.22
430.858	0.23
431.219	0.22
431.58	0.23
431.941	0.23
432.302	0.25
432.663	0.22
433.024	0.23
433.384	0.23
433.745	0.22
434.106	0.22
434.467	0.23
434.827	0.24
435.188	0.23
435.548	0.24
435.909	0.23
436.269	0.23
436.63	0.22
436.99	0.23
437.351	0.23
437.711	0.23
438.071	0.22
438.431	0.21
438.792	0.21
439.152	0.21
439.512	0.21
439.872	0.21
440.232	0.22
440.592	0.23
440.952	0.21
441.312	0.21
441.671	0.21
442.031	0.21
442.391	0.2
442.751	0.21
443.11	0.21
443.47	0.2
443.83	0.21
444.189	0.19
444.549	0.2
444.908	0.2
445.267	0.2
445.627	0.2
445.986	0.19
446.345	0.19
446.705	0.19
447.064	0.19
447.423	0.19
447.782	0.18
448.141	0.18
448.5	0.18
448.859	0.19
449.218	0.18
449.577	0.19
449.936	0.19
450.295	0.17
450.653	0.18
451.012	0.19
451.371	0.19
451.729	0.19
452.088	0.19
452.447	0.18
452.805	0.19
453.163	0.18
453.522	0.2
453.88	0.18
454.239	0.18
454.597	0.18
454.955	0.18
455.313	0.17
455.671	0.19
456.029	0.17
456.388	0.16
456.746	0.17
457.104	0.17
457.461	0.16
457.819	0.16
458.177	0.15
458.535	0.16
458.893	0.15
459.25	0.16
459.608	0.16
459.966	0.15
460.323	0.15
460.681	0.14
461.038	0.15
461.396	0.15
461.753	0.15
462.111	0.14
462.468	0.14
462.825	0.14
463.182	0.14
463.54	0.14
463.897	0.14
464.254	0.14
464.611	0.14
464.968	0.13
465.325	0.14
465.682	0.13
466.039	0.14
466.395	0.13
466.752	0.12
467.109	0.13
467.466	0.13
467.822	0.14
468.179	0.13
468.535	0.13
468.892	0.13
469.248	0.12
469.605	0.12
469.961	0.12
470.318	0.13
470.674	0.13
471.03	0.12
471.386	0.12
471.743	0.12
472.099	0.11
472.455	0.12
472.811	0.11
473.167	0.11
473.523	0.11
473.879	0.12
474.235	0.11
474.59	0.11
474.946	0.1
475.302	0.11
475.657	0.1
476.013	0.11
476.369	0.11
476.724	0.11
477.08	0.11
477.435	0.11
477.791	0.11
478.146	0.11
478.501	0.11
478.857	0.11
479.212	0.1
479.567	0.1
479.922	0.09
480.277	0.09
480.632	0.09
480.987	0.1
481.342	0.1
481.697	0.09
482.052	0.09
482.407	0.09
482.762	0.09
483.116	0.08
483.471	0.08
483.826	0.07
484.18	0.08
484.535	0.08
484.89	0.08
485.244	0.08
485.598	0.08
485.953	0.08
486.307	0.08
486.661	0.08
487.016	0.08
487.37	0.08
487.724	0.08
488.078	0.08
488.432	0.08
488.786	0.08
489.14	0.08
489.494	0.07
489.848	0.07
490.202	0.07
490.556	0.08
490.91	0.07
491.263	0.07
491.617	0.07
491.971	0.07
492.324	0.07
492.678	0.08
493.031	0.08
493.385	0.07
493.738	0.07
494.091	0.08
494.445	0.07
494.798	0.07
495.151	0.07
495.504	0.07
495.857	0.07
496.21	0.07
496.564	0.07
496.916	0.07
497.269	0.07
497.622	0.07
497.975	0.07
498.328	0.08
498.681	0.07
499.033	0.07
499.386	0.07
499.739	0.06
500.091	0.06
500.444	0.07
500.796	0.06
501.149	0.06
501.501	0.06
501.854	0.07
502.206	0.06
502.558	0.06
502.91	0.07
503.263	0.06
503.615	0.06
503.967	0.06
504.319	0.06
504.671	0.06
505.023	0.05
505.375	0.06
505.726	0.06
506.078	0.06
506.43	0.05
506.782	0.06
507.133	0.06
507.485	0.06
507.837	0.07
508.188	0.06
508.54	0.06
508.891	0.07
509.243	0.06
509.594	0.06
509.945	0.06
510.296	0.06
510.648	0.06
510.999	0.06
511.35	0.06
511.701	0.06
512.052	0.06
512.403	0.06
512.754	0.06
513.105	0.06
513.456	0.06
513.807	0.06
514.157	0.06
514.508	0.06
514.859	0.05
515.209	0.06
515.56	0.06
515.91	0.05
516.261	0.06
516.611	0.05
516.962	0.06
517.312	0.07
517.662	0.06
518.013	0.06
518.363	0.07
518.713	0.07
519.063	0.07
519.413	0.06
519.763	0.06
520.113	0.06
520.463	0.07
520.813	0.07
521.163	0.07
521.512	0.06
521.862	0.06
522.212	0.06
522.562	0.07
522.911	0.06
523.261	0.06
523.61	0.07
523.96	0.06
524.309	0.06
524.658	0.07
525.008	0.06
525.357	0.06
525.706	0.07
526.056	0.06
526.405	0.06
526.754	0.06
527.103	0.06
527.452	0.07
527.801	0.06
528.15	0.07
528.499	0.06
528.847	0.07
529.196	0.07
529.545	0.07
529.893	0.07
530.242	0.07
530.591	0.07
530.939	0.08
531.288	0.07
531.636	0.08
531.985	0.07
532.333	0.07
532.681	0.07
533.029	0.06
533.378	0.07
533.726	0.07
534.074	0.07
534.422	0.07
534.77	0.07
535.118	0.07
535.466	0.07
535.814	0.06
536.162	0.06
536.509	0.07
536.857	0.07
537.205	0.07
537.552	0.07
537.9	0.07
538.248	0.07
538.595	0.07
538.943	0.07
539.29	0.07
539.637	0.06
539.985	0.07
540.332	0.07
540.679	0.07
541.026	0.06
541.373	0.07
541.721	0.06
542.068	0.07
542.415	0.07
542.762	0.07
543.108	0.06
543.455	0.06
543.802	0.06
544.149	0.06
544.496	0.07
544.842	0.06
545.189	0.05
545.535	0.06
545.882	0.06
546.228	0.05
546.575	0.05
546.921	0.05
547.267	0.05
547.614	0.06
547.96	0.05
548.306	0.05
548.652	0.05
548.998	0.06
549.344	0.06
549.69	0.06
550.036	0.06
550.382	0.05
550.728	0.06
551.074	0.06
551.42	0.06
551.765	0.06
552.111	0.06
552.457	0.07
552.802	0.06
553.148	0.06
553.493	0.06
553.839	0.07
554.184	0.06
554.529	0.05
554.875	0.06
555.22	0.06
555.565	0.06
555.91	0.06
556.255	0.07
556.6	0.07
556.945	0.06
557.29	0.05
557.635	0.07
557.98	0.06
558.325	0.06
558.67	0.07
559.014	0.07
559.359	0.07
559.704	0.06
560.048	0.05
560.393	0.05
560.737	0.05
561.082	0.06
561.426	0.06
561.77	0.05
562.115	0.06
562.459	0.06
562.803	0.05
563.147	0.06
563.491	0.06
563.835	0.06
564.179	0.06
564.523	0.06
564.867	0.05
565.211	0.06
565.555	0.06
565.899	0.07
566.242	0.06
566.586	0.05
566.93	0.06
567.273	0.07
567.617	0.06
567.96	0.07
568.304	0.07
568.647	0.06
568.99	0.07
569.334	0.07
569.677	0.07
570.02	0.07
570.363	0.07
570.706	0.06
571.049	0.07
571.392	0.07
571.735	0.06
572.078	0.07
572.421	0.07
572.764	0.07
573.106	0.07
573.449	0.07
573.792	0.06
574.134	0.06
574.477	0.07
574.819	0.06
575.162	0.05
575.504	0.06
575.847	0.06
576.189	0.07
576.531	0.06
576.873	0.06
577.215	0.06
577.558	0.06
577.9	0.05
578.242	0.06
578.584	0.06
578.926	0.06
579.267	0.06
579.609	0.06
579.951	0.06
580.293	0.05
580.634	0.06
580.976	0.07
581.318	0.06
581.659	0.06
582.001	0.06
582.342	0.06
582.683	0.06
583.025	0.06
583.366	0.06
583.707	0.06
584.049	0.06
584.39	0.05
584.731	0.06
585.072	0.05
585.413	0.06
585.754	0.06
586.095	0.06
586.435	0.06
586.776	0.06
587.117	0.06
587.458	0.06
587.798	0.06
588.139	0.06
588.48	0.06
588.82	0.06
589.161	0.06
589.501	0.05
589.841	0.06
590.182	0.05
590.522	0.05
590.862	0.06
591.202	0.05
591.542	0.06
591.882	0.05
592.222	0.06
592.562	0.06
592.902	0.05
593.242	0.05
593.582	0.06
593.922	0.05
594.261	0.05
594.601	0.06
594.941	0.05
595.28	0.06
595.62	0.05
595.959	0.05
596.299	0.06
596.638	0.06
596.977	0.06
597.317	0.06
597.656	0.06
597.995	0.06
598.334	0.07
598.673	0.06
599.012	0.06
599.351	0.06
599.69	0.06
600.029	0.07
600.368	0.07
600.707	0.07
601.046	0.06
601.384	0.07
601.723	0.07
602.061	0.06
602.4	0.06
602.738	0.07
603.077	0.07
603.415	0.06
603.754	0.06
604.092	0.06
604.43	0.06
604.768	0.06
605.107	0.07
605.445	0.06
605.783	0.06
606.121	0.06
606.459	0.06
606.796	0.06
607.134	0.05
607.472	0.06
607.81	0.06
608.148	0.06
608.485	0.06
608.823	0.06
609.16	0.06
609.498	0.06
609.835	0.07
610.173	0.06
610.51	0.06
610.847	0.06
611.185	0.06
611.522	0.06
611.859	0.06
612.196	0.07
612.533	0.07
612.87	0.07
613.207	0.06
613.544	0.07
613.881	0.07
614.217	0.06
614.554	0.07
614.891	0.07
615.228	0.07
615.564	0.07
615.901	0.07
616.237	0.07
616.574	0.07
616.91	0.07
617.246	0.07
617.583	0.07
617.919	0.07
618.255	0.07
618.591	0.07
618.927	0.07
619.263	0.07
619.599	0.07
619.935	0.08
620.271	0.08
620.607	0.07
620.943	0.07
621.279	0.07
621.614	0.08
621.95	0.07
622.286	0.07
622.621	0.07
622.957	0.07
623.292	0.06
623.627	0.06
623.963	0.06
624.298	0.06
624.633	0.06
624.968	0.06
625.304	0.07
625.639	0.06
625.974	0.06
626.309	0.06
626.644	0.06
626.979	0.07
627.313	0.07
627.648	0.07
627.983	0.07
628.318	0.06
628.652	0.06
628.987	0.07
629.321	0.07
629.656	0.06
629.99	0.05
630.325	0.06
630.659	0.06
630.993	0.05
631.327	0.06
631.662	0.05
631.996	0.06
632.33	0.05
632.664	0.06
632.998	0.06
633.332	0.05
633.666	0.06
633.999	0.05
634.333	0.05
634.667	0.05
635.001	0.05
635.334	0.05
635.668	0.05
636.001	0.05
636.335	0.05
636.668	0.05
637.001	0.04
637.335	0.05
637.668	0.04
638.001	0.05
638.334	0.05
638.668	0.04
639.001	0.05
639.334	0.05
639.667	0.05
639.999	0.04
640.332	0.05
640.665	0.05
640.998	0.05
641.331	0.05
641.663	0.05
641.996	0.05
642.328	0.06
642.661	0.05
642.993	0.06
643.326	0.06
643.658	0.05
643.99	0.06
644.323	0.06
644.655	0.06
644.987	0.06
645.319	0.06
645.651	0.06
645.983	0.06
646.315	0.06
646.647	0.06
646.979	0.07
647.31	0.07
647.642	0.06
647.974	0.06
648.305	0.06
648.637	0.07
648.968	0.07
649.3	0.06
649.631	0.07
649.963	0.06
650.294	0.06
650.625	0.06
650.957	0.06
651.288	0.06
651.619	0.07
651.95	0.06
652.281	0.06
652.612	0.06
652.943	0.06
653.274	0.07
653.604	0.05
653.935	0.06
654.266	0.06
654.596	0.06
654.927	0.06
655.258	0.07
655.588	0.07
655.918	0.06
656.249	0.05
656.579	0.05
656.909	0.06
657.24	0.05
657.57	0.06
657.9	0.06
658.23	0.05
658.56	0.06
658.89	0.06
659.22	0.06
659.55	0.06
659.88	0.06
660.209	0.06
660.539	0.07
660.869	0.06
661.198	0.06
661.528	0.06
661.857	0.06
662.187	0.06
662.516	0.06
662.846	0.06
663.175	0.06
663.504	0.06
663.833	0.06
664.163	0.06
664.492	0.05
664.821	0.06
665.15	0.06
665.479	0.05
665.807	0.06
666.136	0.06
666.465	0.05
666.794	0.06
667.122	0.06
667.451	0.06
667.78	0.06
668.108	0.07
668.437	0.06
668.765	0.06
669.093	0.07
669.422	0.07
669.75	0.07
670.078	0.07
670.406	0.06
670.734	0.07
671.062	0.06
671.39	0.07
671.718	0.07
672.046	0.07
672.374	0.06
672.702	0.07
673.029	0.06
673.357	0.07
673.685	0.07
674.012	0.07
674.34	0.07
674.667	0.07
674.995	0.07
675.322	0.07
675.649	0.06
675.977	0.06
676.304	0.06
676.631	0.06
676.958	0.06
677.285	0.06
677.612	0.06
677.939	0.06
678.266	0.06
678.593	0.06
678.92	0.07
679.246	0.06
679.573	0.06
679.9	0.06
680.226	0.06
680.553	0.06
680.879	0.06
681.206	0.06
681.532	0.06
681.858	0.07
682.184	0.06
682.511	0.07
682.837	0.06
683.163	0.06
683.489	0.07
683.815	0.06
684.141	0.07
684.467	0.06
684.793	0.06
685.118	0.07
685.444	0.07
685.77	0.06
686.095	0.06
686.421	0.06
686.746	0.07
687.072	0.07
687.397	0.06
687.723	0.06
688.048	0.06
688.373	0.06
688.698	0.06
689.023	0.06
689.349	0.06
689.674	0.06
689.999	0.06
690.323	0.05
690.648	0.05
690.973	0.05
691.298	0.05
691.623	0.05
691.947	0.05
692.272	0.05
692.596	0.05
692.921	0.06
693.245	0.05
693.57	0.06
693.894	0.06
694.218	0.06
694.543	0.06
694.867	0.06
695.191	0.06
695.515	0.06
695.839	0.06
696.163	0.06
696.487	0.06
696.811	0.06
697.135	0.07
697.458	0.06
697.782	0.06
698.106	0.06
698.429	0.06
698.753	0.05
699.076	0.06
699.4	0.06
699.723	0.06
700.046	0.05
700.37	0.06
700.693	0.07
701.016	0.06
701.339	0.07
701.662	0.06
701.985	0.06
702.308	0.06
702.631	0.06
702.954	0.06
703.277	0.05
703.599	0.05
703.922	0.06
704.245	0.05
704.567	0.05
704.89	0.05
705.212	0.05
705.535	0.05
705.857	0.05
706.179	0.04
706.502	0.05
706.824	0.04
707.146	0.04
707.468	0.05
707.79	0.05
708.112	0.05
708.434	0.05
708.756	0.06
709.078	0.05
709.399	0.04
709.721	0.05
710.043	0.06
710.364	0.05
710.686	0.05
711.007	0.05
711.329	0.06
711.65	0.06
711.972	0.05
712.293	0.06
712.614	0.06
712.935	0.05
713.256	0.06
713.577	0.07
713.898	0.06
714.219	0.06
714.54	0.06
714.861	0.05
715.182	0.06
715.503	0.06
715.823	0.06
716.144	0.06
716.464	0.06
716.785	0.05
717.105	0.05
717.426	0.05
717.746	0.05
718.066	0.05
718.387	0.05
718.707	0.05
719.027	0.05
719.347	0.05
719.667	0.05
719.987	0.05
720.307	0.04
720.627	0.04
720.947	0.05
721.266	0.05
721.586	0.04
721.906	0.05
722.225	0.04
722.545	0.04
722.864	0.04
723.184	0.05
723.503	0.04
723.823	0.05
724.142	0.04
724.461	0.04
724.78	0.04
725.099	0.05
725.418	0.05
725.737	0.05
726.056	0.05
726.375	0.05
726.694	0.04
727.013	0.05
727.331	0.05
727.65	0.05
727.969	0.05
728.287	0.05
728.606	0.05
728.924	0.04
729.242	0.05
729.561	0.05
729.879	0.05
730.197	0.05
730.515	0.04
730.834	0.05
731.152	0.05
731.47	0.05
731.788	0.05
732.105	0.04
732.423	0.05
732.741	0.05
733.059	0.05
733.376	0.05
733.694	0.05
734.012	0.05
734.329	0.06
734.647	0.05
734.964	0.06
735.281	0.05
735.599	0.06
735.916	0.06
736.233	0.05
736.55	0.06
736.867	0.06
737.184	0.07
737.501	0.05
737.818	0.06
738.135	0.06
738.452	0.06
738.768	0.06
739.085	0.06
739.402	0.05
739.718	0.05
740.035	0.06
740.351	0.06
740.668	0.06
740.984	0.06
741.3	0.06
741.617	0.05
741.933	0.05
742.249	0.05
742.565	0.05
742.881	0.06
743.197	0.05
743.513	0.05
743.829	0.04
744.144	0.05
744.46	0.05
744.776	0.05
745.091	0.05
745.407	0.05
745.722	0.04
746.038	0.05
746.353	0.04
746.669	0.05
746.984	0.04
747.299	0.05
747.614	0.05
747.93	0.05
748.245	0.04
748.56	0.04
748.875	0.04
749.189	0.05
749.504	0.04
749.819	0.05
750.134	0.04
750.448	0.04
750.763	0.04
751.078	0.03
751.392	0.04
751.707	0.05
752.021	0.05
752.335	0.05
752.65	0.05
752.964	0.05
753.278	0.05
753.592	0.04
753.906	0.04
754.22	0.05
754.534	0.04
754.848	0.05
755.162	0.04
755.476	0.05
755.789	0.05
756.103	0.04
756.417	0.05
756.73	0.05
757.044	0.05
757.357	0.04
757.671	0.05
757.984	0.05
758.297	0.05
758.61	0.05
758.924	0.05
759.237	0.04
759.55	0.05
759.863	0.04
760.176	0.04
760.488	0.05
760.801	0.04
761.114	0.04
761.427	0.04
761.739	0.04
762.052	0.04
762.365	0.04
762.677	0.05
762.99	0.04
763.302	0.05
763.614	0.05
763.926	0.05
764.239	0.05
764.551	0.04
764.863	0.05
765.175	0.05
765.487	0.05
765.799	0.04
766.111	0.04
766.423	0.04
766.734	0.04
767.046	0.04
767.358	0.05
767.669	0.05
767.981	0.05
768.292	0.04
768.604	0.05
768.915	0.04
769.226	0.04
769.537	0.03
769.849	0.04
770.16	0.04
770.471	0.03
770.782	0.03
771.093	0.04
771.404	0.02
771.715	0.03
772.025	0.04
772.336	0.04
772.647	0.03
772.957	0.04
773.268	0.04
773.578	0.04
773.889	0.04
774.199	0.05
774.51	0.04
774.82	0.04
775.13	0.04
775.44	0.05
775.75	0.05
776.06	0.05
776.37	0.04
776.68	0.05
776.99	0.05
777.3	0.05
777.61	0.05
777.92	0.05
778.229	0.05
778.539	0.04
778.848	0.05
779.158	0.05
779.467	0.06
779.777	0.05
780.086	0.06
780.395	0.04
780.704	0.05
781.013	0.05
781.323	0.04
781.632	0.04
781.941	0.05
782.249	0.05
782.558	0.04
782.867	0.05
783.176	0.04
783.485	0.04
783.793	0.05
784.102	0.04
784.41	0.05
784.719	0.04
785.027	0.04
785.335	0.04
785.644	0.06
785.952	0.04
786.26	0.05
786.568	0.05
786.876	0.04
787.184	0.05
787.492	0.05
787.8	0.05
788.108	0.05
788.416	0.05
788.723	0.05
789.031	0.04
789.338	0.05
789.646	0.04
789.953	0.05
790.261	0.05
790.568	0.06
790.876	0.05
791.183	0.05
791.49	0.05
791.797	0.05
792.104	0.04
792.411	0.05
792.718	0.05
793.025	0.05
793.332	0.04
793.639	0.06
793.945	0.06
794.252	0.05
794.559	0.04
794.865	0.05
795.172	0.05
795.478	0.05
795.784	0.05
796.091	0.05
796.397	0.06
796.703	0.06
797.009	0.05
797.315	0.06
797.622	0.05
797.927	0.05
798.233	0.05
798.539	0.06
798.845	0.05
799.151	0.06
799.456	0.06
799.762	0.05
800.068	0.05
800.373	0.05
800.679	0.05
800.984	0.05
801.289	0.05
801.595	0.05
801.9	0.05
802.205	0.05
802.51	0.05
802.815	0.05
803.12	0.05
803.425	0.05
803.73	0.05
804.035	0.05
804.339	0.05
804.644	0.05
804.949	0.05
805.253	0.05
805.558	0.05
805.862	0.04
806.167	0.05
806.471	0.04
806.775	0.05
807.08	0.05
807.384	0.05
807.688	0.05
807.992	0.05
808.296	0.05
808.6	0.06
808.904	0.06
809.207	0.06
809.511	0.06
809.815	0.06
810.119	0.05
810.422	0.06
810.726	0.06
811.029	0.06
811.332	0.06
811.636	0.06
811.939	0.05
812.242	0.05
812.546	0.06
812.849	0.05
813.152	0.06
813.455	0.06
813.758	0.06
814.06	0.06
814.363	0.05
814.666	0.06
814.969	0.06
815.271	0.06
815.574	0.06
815.877	0.05
816.179	0.05
816.481	0.05
816.784	0.05
817.086	0.04
817.388	0.04
817.69	0.04
817.993	0.03
818.295	0.04
818.597	0.05
818.899	0.03
819.2	0.04
819.502	0.04
819.804	0.05
820.106	0.04
820.407	0.04
820.709	0.04
821.01	0.04
821.312	0.05
821.613	0.03
821.915	0.03
822.216	0.03
822.517	0.03
822.818	0.04
823.119	0.03
823.42	0.05
823.721	0.03
824.022	0.03
824.323	0.03
824.624	0.03
824.925	0.04
825.226	0.05
825.526	0.04
825.827	0.04
826.127	0.04
826.428	0.03
826.728	0.03
827.028	0.03
827.329	0.03
827.629	0.02
827.929	0.03
828.229	0.03
828.529	0.03
828.829	0.04
829.129	0.03
829.429	0.04
829.729	0.03
830.029	0.02
830.328	0.03
830.628	0.02
830.927	0.03
831.227	0.02
831.526	0.03
831.826	0.03
832.125	0.03
832.424	0.01
832.724	0.03
833.023	0.02
833.322	0.03
833.621	0.02
833.92	0.02
834.219	0.02
834.518	0.02
834.816	0.01
835.115	0.02
835.414	0.01
835.712	0.01
836.011	0.01
836.309	0.01
836.608	0.01
836.906	0
837.205	-0
837.503	0.01
837.801	0
838.099	-0
838.397	-0.01
838.695	-0.01
838.993	-0
839.291	-0.01
839.589	-0.01
839.887	-0
840.184	-0.01
840.482	-0.02
840.78	-0.01
841.077	-0.01
841.375	-0.02
841.672	-0.01
841.969	-0.01
842.267	-0.01
842.564	-0.01
842.861	-0.01
843.158	-0.01
843.455	-0.03
843.752	-0.01
844.049	-0.03
844.346	-0.02
844.643	-0.03
844.94	-0.02
845.236	-0.01
845.533	-0.02
845.83	-0.02
846.126	-0.03
846.423	-0.02
846.719	-0.03
847.015	-0.02
847.312	-0.04
847.608	-0.04
847.904	-0.04
848.2	-0.04
848.496	-0.04
848.792	-0.04
849.088	-0.03
849.384	-0.04
849.68	-0.06
849.975	-0.05
850.271	-0.05
850.567	-0.05
850.862	-0.04
851.158	-0.06
851.453	-0.05
851.748	-0.06
852.044	-0.06
852.339	-0.06
852.634	-0.08
852.929	-0.06
853.224	-0.07
853.519	-0.06
853.814	-0.07
854.109	-0.07
854.404	-0.06
854.699	-0.07
854.994	-0.06
855.288	-0.06
855.583	-0.06
855.877	-0.07
856.172	-0.07
856.466	-0.07
856.76	-0.06
857.055	-0.07
857.349	-0.08
857.643	-0.08
857.937	-0.08
858.231	-0.08
858.525	-0.08
858.819	-0.08
859.113	-0.09
859.407	-0.09
859.701	-0.1
859.994	-0.1
860.288	-0.09
860.581	-0.1
860.875	-0.1
861.168	-0.11
861.462	-0.1
861.755	-0.1
862.048	-0.11
862.341	-0.11
862.634	-0.11
862.928	-0.12
863.221	-0.1
863.513	-0.12
863.806	-0.12
864.099	-0.12
864.392	-0.12
864.685	-0.11
864.977	-0.12
865.27	-0.13
865.562	-0.12
865.855	-0.12
866.147	-0.12
866.44	-0.11
866.732	-0.12
867.024	-0.13
867.316	-0.12
867.608	-0.13
867.9	-0.13
868.192	-0.13
868.484	-0.13
868.776	-0.12
869.068	-0.13
869.359	-0.13
869.651	-0.14
869.943	-0.15
870.234	-0.14
870.526	-0.15
870.817	-0.14
871.108	-0.13
871.4	-0.14
871.691	-0.15
871.982	-0.15
872.273	-0.15
872.564	-0.15
872.855	-0.15
873.146	-0.15
873.437	-0.15
873.728	-0.17
874.019	-0.15
874.309	-0.15
874.6	-0.16
874.89	-0.15
875.181	-0.16
875.471	-0.15
875.762	-0.15
876.052	-0.15
876.342	-0.15
876.632	-0.16
876.922	-0.17
877.213	-0.17
877.503	-0.17
877.792	-0.17
878.082	-0.17
878.372	-0.15
878.662	-0.18
878.952	-0.17
879.241	-0.17
879.531	-0.17
879.82	-0.17
880.11	-0.18
880.399	-0.17
880.688	-0.15
880.978	-0.15
881.267	-0.15
