Data from 12-12-AQDScycling_Absorbance__144__00144.txt Node

Date: Tue Dec 12 11:32:44 EST 2023
User: kyuminlee
Spectrometer: FLMS00943
Trigger mode: 0
Integration Time (sec): 1.000000E-1
Scans to average: 1
Electric dark correction enabled: true
Nonlinearity correction enabled: false
Boxcar width: 0
XAxis mode: Wavelengths
Number of Pixels in Spectrum: 2048
>>>>>Begin Spectral Data<<<<<
179.651	-0
180.037	-0
180.424	-0
180.81	-0
181.197	0.1
181.583	-0
181.97	-0.36
182.356	-0
182.743	-1.32
183.129	-0
183.515	-0.14
183.901	-2.4
184.288	1.84
184.674	0.5
185.06	-0
185.446	-0
185.832	-1.29
186.218	0.17
186.604	-0.1
186.99	-0
187.376	-0
187.762	-0.45
188.148	0.43
188.534	-0.33
188.92	0.01
189.305	0.02
189.691	0.43
190.077	0.15
190.463	0.12
190.848	0.01
191.234	-0.07
191.619	0.14
192.005	0.2
192.391	0.22
192.776	0.28
193.161	0.24
193.547	0.12
193.932	0.15
194.318	0.16
194.703	0.08
195.088	0.15
195.473	0.21
195.859	0.11
196.244	0.24
196.629	0.24
197.014	0.22
197.399	0.2
197.784	0.31
198.169	-0.03
198.554	0.15
198.939	0.14
199.324	0.16
199.709	0.08
200.094	0.14
200.478	0.09
200.863	0.23
201.248	0.26
201.633	0.18
202.017	0.13
202.402	0.11
202.787	0.09
203.171	0.22
203.556	0.28
203.94	0.29
204.325	0.32
204.709	0.15
205.093	-0.01
205.478	0.1
205.862	-0.03
206.246	0.22
206.631	0.09
207.015	0.06
207.399	0.16
207.783	0.11
208.167	0.15
208.551	0.23
208.935	0.14
209.319	0.23
209.703	0.22
210.087	0.23
210.471	0.2
210.855	0.16
211.239	0.23
211.623	0.28
212.007	0.27
212.39	0.24
212.774	0.05
213.158	0.17
213.541	0.29
213.925	0.26
214.309	0.4
214.692	0.24
215.076	0.27
215.459	0.27
215.842	0.13
216.226	0.24
216.609	0.34
216.993	0.26
217.376	0.38
217.759	0.25
218.142	0.32
218.525	0.42
218.909	0.3
219.292	0.28
219.675	0.41
220.058	0.58
220.441	0.53
220.824	0.47
221.207	0.52
221.59	0.51
221.973	0.65
222.355	0.6
222.738	0.57
223.121	0.57
223.504	0.59
223.886	0.81
224.269	0.68
224.652	0.7
225.034	0.77
225.417	0.66
225.799	0.71
226.182	0.83
226.564	0.84
226.947	0.74
227.329	0.74
227.711	0.81
228.094	1.04
228.476	0.79
228.858	0.77
229.24	0.93
229.623	0.91
230.005	1.02
230.387	0.85
230.769	0.76
231.151	0.88
231.533	0.82
231.915	0.94
232.297	1.08
232.679	0.96
233.061	0.96
233.442	1
233.824	1.02
234.206	1.09
234.588	1.1
234.969	1.12
235.351	0.93
235.733	1.19
236.114	1.17
236.496	1.03
236.877	1.15
237.259	1.28
237.64	1.14
238.022	0.94
238.403	1.08
238.784	1.1
239.165	0.94
239.547	1.04
239.928	1.12
240.309	1.07
240.69	1.09
241.071	1.14
241.452	1.2
241.834	0.96
242.215	1.15
242.595	1.15
242.976	1.17
243.357	1.03
243.738	1.09
244.119	1.21
244.5	1.05
244.881	1.17
245.261	1.23
245.642	1.18
246.023	1.15
246.403	1.12
246.784	1.18
247.164	1.18
247.545	1.32
247.925	1.26
248.306	1.23
248.686	1.37
249.067	1.23
249.447	1.39
249.827	1.58
250.207	1.47
250.588	1.39
250.968	1.45
251.348	1.27
251.728	1.37
252.108	1.4
252.488	1.4
252.868	1.4
253.248	1.23
253.628	1.24
254.008	1.44
254.388	1.43
254.768	1.33
255.147	1.59
255.527	1.33
255.907	1.32
256.287	1.3
256.666	1.44
257.046	1.5
257.425	1.49
257.805	1.34
258.184	1.32
258.564	1.34
258.943	1.44
259.323	1.62
259.702	1.46
260.081	1.4
260.461	1.45
260.84	1.56
261.219	1.61
261.598	1.41
261.977	1.43
262.356	1.53
262.736	1.54
263.115	1.5
263.494	1.52
263.873	1.52
264.251	1.45
264.63	1.47
265.009	1.58
265.388	1.45
265.767	1.33
266.145	1.34
266.524	1.5
266.903	1.29
267.281	1.42
267.66	1.58
268.039	1.55
268.417	1.44
268.796	1.39
269.174	1.54
269.552	1.46
269.931	1.44
270.309	1.41
270.687	1.52
271.066	1.57
271.444	1.55
271.822	1.49
272.2	1.35
272.578	1.48
272.956	1.41
273.334	1.29
273.712	1.36
274.09	1.45
274.468	1.33
274.846	1.36
275.224	1.39
275.602	1.3
275.98	1.75
276.357	1.36
276.735	1.47
277.113	1.43
277.49	1.27
277.868	1.25
278.246	1.41
278.623	1.31
279.001	1.27
279.378	1.41
279.756	1.56
280.133	1.61
280.51	1.4
280.888	1.49
281.265	1.38
281.642	1.59
282.019	1.58
282.396	1.53
282.773	1.58
283.151	1.44
283.528	1.46
283.905	1.44
284.282	1.47
284.659	1.71
285.035	1.37
285.412	1.42
285.789	1.43
286.166	1.52
286.543	1.42
286.919	1.39
287.296	1.3
287.673	1.7
288.049	1.64
288.426	1.63
288.802	1.44
289.179	1.4
289.555	1.61
289.932	1.42
290.308	1.37
290.684	1.47
291.061	1.35
291.437	1.43
291.813	1.46
292.189	1.29
292.565	1.39
292.942	1.36
293.318	1.39
293.694	1.46
294.07	1.32
294.446	1.43
294.822	1.43
295.197	1.47
295.573	1.42
295.949	1.51
296.325	1.6
296.701	1.57
297.076	1.67
297.452	1.45
297.828	1.36
298.203	1.46
298.579	1.45
298.954	1.37
299.33	1.29
299.705	1.33
300.081	1.36
300.456	1.33
300.831	1.32
301.206	1.24
301.582	1.29
301.957	1.25
302.332	1.34
302.707	1.14
303.082	1.23
303.457	1.23
303.832	1.22
304.207	1.08
304.582	1.1
304.957	1.14
305.332	1.16
305.707	1.1
306.082	1.06
306.456	1.09
306.831	1.05
307.206	1.02
307.58	1.04
307.955	1.06
308.33	1.01
308.704	1
309.079	0.96
309.453	1
309.828	0.98
310.202	0.91
310.576	0.92
310.951	0.91
311.325	0.88
311.699	0.93
312.073	0.86
312.447	0.9
312.821	0.86
313.196	0.88
313.57	0.81
313.944	0.83
314.317	0.81
314.691	0.82
315.065	0.81
315.439	0.84
315.813	0.84
316.187	0.8
316.56	0.84
316.934	0.81
317.308	0.77
317.681	0.81
318.055	0.78
318.428	0.78
318.802	0.79
319.175	0.78
319.549	0.77
319.922	0.76
320.295	0.79
320.669	0.79
321.042	0.77
321.415	0.79
321.788	0.73
322.162	0.75
322.535	0.77
322.908	0.75
323.281	0.73
323.654	0.8
324.027	0.76
324.4	0.76
324.773	0.77
325.145	0.78
325.518	0.75
325.891	0.76
326.264	0.79
326.636	0.76
327.009	0.75
327.382	0.76
327.754	0.76
328.127	0.74
328.499	0.78
328.872	0.77
329.244	0.78
329.616	0.77
329.989	0.76
330.361	0.77
330.733	0.82
331.106	0.78
331.478	0.82
331.85	0.82
332.222	0.79
332.594	0.83
332.966	0.86
333.338	0.85
333.71	0.85
334.082	0.86
334.454	0.83
334.826	0.86
335.197	0.87
335.569	0.87
335.941	0.9
336.312	0.87
336.684	0.91
337.056	0.91
337.427	0.92
337.799	0.93
338.17	0.92
338.542	0.92
338.913	0.95
339.284	0.97
339.656	0.96
340.027	0.95
340.398	0.97
340.769	0.95
341.141	1.01
341.512	0.99
341.883	0.98
342.254	1.01
342.625	1
342.996	1.02
343.367	1.07
343.738	1.03
344.108	1.03
344.479	1.15
344.85	1
345.221	1.15
345.591	1.06
345.962	1.11
346.333	1.11
346.703	1.06
347.074	1.09
347.444	1.12
347.815	1.13
348.185	1.16
348.556	1.2
348.926	1.15
349.296	1.2
349.666	1.21
350.037	1.1
350.407	1.17
350.777	1.16
351.147	1.17
351.517	1.24
351.887	1.25
352.257	1.33
352.627	1.21
352.997	1.21
353.367	1.29
353.737	1.28
354.106	1.37
354.476	1.31
354.846	1.3
355.216	1.36
355.585	1.32
355.955	1.36
356.324	1.41
356.694	1.43
357.063	1.39
357.433	1.46
357.802	1.45
358.171	1.41
358.541	1.52
358.91	1.54
359.279	1.47
359.648	1.45
360.017	1.56
360.387	1.5
360.756	1.47
361.125	1.7
361.494	1.58
361.863	1.5
362.231	1.61
362.6	1.53
362.969	1.51
363.338	1.47
363.707	1.79
364.075	1.93
364.444	1.39
364.813	1.48
365.181	1.54
365.55	1.48
365.918	1.53
366.287	1.65
366.655	1.6
367.024	1.64
367.392	1.59
367.76	1.45
368.128	1.56
368.497	1.47
368.865	1.56
369.233	1.61
369.601	1.69
369.969	1.51
370.337	1.51
370.705	1.47
371.073	1.48
371.441	1.68
371.809	1.58
372.177	1.63
372.544	1.65
372.912	1.47
373.28	1.49
373.647	1.51
374.015	1.58
374.383	1.89
374.75	1.69
375.118	1.59
375.485	1.56
375.853	1.65
376.22	1.6
376.587	1.57
376.955	1.66
377.322	1.64
377.689	1.48
378.056	1.51
378.423	1.52
378.79	1.58
379.157	1.69
379.524	1.57
379.891	1.63
380.258	1.52
380.625	1.62
380.992	1.54
381.359	1.63
381.726	2.01
382.092	1.5
382.459	1.56
382.826	1.55
383.192	1.53
383.559	1.57
383.925	1.84
384.292	1.52
384.658	1.56
385.025	1.5
385.391	1.86
385.757	1.58
386.123	1.61
386.49	1.63
386.856	1.71
387.222	1.64
387.588	1.48
387.954	1.86
388.32	1.88
388.686	1.55
389.052	1.46
389.418	1.58
389.784	1.5
390.15	1.62
390.515	1.45
390.881	1.69
391.247	1.53
391.613	1.54
391.978	1.51
392.344	1.68
392.709	1.62
393.075	1.49
393.44	1.62
393.806	1.84
394.171	1.46
394.536	1.47
394.902	1.56
395.267	1.58
395.632	1.63
395.997	1.45
396.362	1.57
396.727	1.59
397.092	1.55
397.457	1.49
397.822	1.59
398.187	1.59
398.552	1.49
398.917	1.73
399.282	1.49
399.646	1.53
400.011	1.75
400.376	1.41
400.74	1.61
401.105	1.57
401.47	1.52
401.834	1.55
402.199	1.45
402.563	1.65
402.927	1.44
403.292	1.75
403.656	1.67
404.02	1.62
404.384	1.74
404.749	1.47
405.113	1.59
405.477	1.74
405.841	1.63
406.205	1.53
406.569	1.86
406.933	1.69
407.296	1.63
407.66	1.63
408.024	1.68
408.388	1.59
408.752	1.67
409.115	1.7
409.479	1.72
409.842	1.58
410.206	1.46
410.569	1.58
410.933	1.7
411.296	1.41
411.66	1.68
412.023	1.52
412.386	1.56
412.749	1.43
413.113	1.6
413.476	1.5
413.839	1.4
414.202	1.63
414.565	1.51
414.928	1.59
415.291	1.45
415.654	1.45
416.017	1.6
416.38	1.46
416.742	1.49
417.105	1.53
417.468	1.57
417.83	1.49
418.193	1.55
418.556	1.5
418.918	1.39
419.281	1.54
419.643	1.47
420.005	1.65
420.368	1.53
420.73	1.47
421.092	1.56
421.455	1.72
421.817	1.49
422.179	1.5
422.541	1.53
422.903	1.81
423.265	1.49
423.627	1.55
423.989	1.55
424.351	1.5
424.713	1.51
425.075	1.55
425.436	1.54
425.798	1.54
426.16	1.51
426.521	1.46
426.883	1.6
427.245	1.54
427.606	1.48
427.967	1.38
428.329	1.51
428.69	1.58
429.052	1.39
429.413	1.52
429.774	1.51
430.135	1.59
430.497	1.63
430.858	1.47
431.219	1.58
431.58	1.46
431.941	1.49
432.302	1.47
432.663	1.55
433.024	1.61
433.384	1.59
433.745	1.5
434.106	1.56
434.467	1.51
434.827	1.45
435.188	1.5
435.548	1.75
435.909	1.54
436.269	1.65
436.63	1.44
436.99	1.46
437.351	1.41
437.711	1.44
438.071	1.41
438.431	1.43
438.792	1.51
439.152	1.5
439.512	1.52
439.872	1.44
440.232	1.51
440.592	1.48
440.952	1.49
441.312	1.42
441.671	1.47
442.031	1.41
442.391	1.52
442.751	1.42
443.11	1.43
443.47	1.38
443.83	1.42
444.189	1.36
444.549	1.42
444.908	1.34
445.267	1.37
445.627	1.32
445.986	1.4
446.345	1.29
446.705	1.37
447.064	1.42
447.423	1.33
447.782	1.32
448.141	1.33
448.5	1.33
448.859	1.31
449.218	1.3
449.577	1.36
449.936	1.3
450.295	1.27
450.653	1.26
451.012	1.27
451.371	1.26
451.729	1.27
452.088	1.26
452.447	1.27
452.805	1.26
453.163	1.25
453.522	1.23
453.88	1.2
454.239	1.21
454.597	1.18
454.955	1.17
455.313	1.15
455.671	1.15
456.029	1.16
456.388	1.12
456.746	1.12
457.104	1.11
457.461	1.07
457.819	1.1
458.177	1.07
458.535	1.04
458.893	1.05
459.25	1.02
459.608	1.02
459.966	1.01
460.323	0.99
460.681	0.98
461.038	0.96
461.396	0.96
461.753	0.94
462.111	0.92
462.468	0.91
462.825	0.91
463.182	0.9
463.54	0.87
463.897	0.87
464.254	0.86
464.611	0.85
464.968	0.83
465.325	0.83
465.682	0.82
466.039	0.79
466.395	0.77
466.752	0.78
467.109	0.75
467.466	0.75
467.822	0.74
468.179	0.72
468.535	0.72
468.892	0.71
469.248	0.68
469.605	0.66
469.961	0.65
470.318	0.67
470.674	0.64
471.03	0.64
471.386	0.64
471.743	0.62
472.099	0.59
472.455	0.6
472.811	0.58
473.167	0.58
473.523	0.56
473.879	0.55
474.235	0.54
474.59	0.53
474.946	0.52
475.302	0.52
475.657	0.5
476.013	0.49
476.369	0.48
476.724	0.47
477.08	0.46
477.435	0.46
477.791	0.46
478.146	0.44
478.501	0.44
478.857	0.43
479.212	0.42
479.567	0.42
479.922	0.4
480.277	0.39
480.632	0.39
480.987	0.38
481.342	0.37
481.697	0.36
482.052	0.35
482.407	0.35
482.762	0.34
483.116	0.34
483.471	0.33
483.826	0.32
484.18	0.31
484.535	0.3
484.89	0.3
485.244	0.29
485.598	0.29
485.953	0.28
486.307	0.28
486.661	0.28
487.016	0.27
487.37	0.27
487.724	0.26
488.078	0.26
488.432	0.26
488.786	0.25
489.14	0.24
489.494	0.23
489.848	0.23
490.202	0.22
490.556	0.22
490.91	0.21
491.263	0.21
491.617	0.21
491.971	0.21
492.324	0.2
492.678	0.2
493.031	0.2
493.385	0.19
493.738	0.18
494.091	0.18
494.445	0.18
494.798	0.18
495.151	0.17
495.504	0.17
495.857	0.17
496.21	0.18
496.564	0.16
496.916	0.17
497.269	0.16
497.622	0.16
497.975	0.16
498.328	0.15
498.681	0.15
499.033	0.15
499.386	0.15
499.739	0.14
500.091	0.14
500.444	0.14
500.796	0.13
501.149	0.13
501.501	0.13
501.854	0.13
502.206	0.13
502.558	0.13
502.91	0.13
503.263	0.12
503.615	0.12
503.967	0.12
504.319	0.13
504.671	0.12
505.023	0.12
505.375	0.11
505.726	0.11
506.078	0.11
506.43	0.11
506.782	0.1
507.133	0.11
507.485	0.1
507.837	0.11
508.188	0.1
508.54	0.11
508.891	0.11
509.243	0.1
509.594	0.1
509.945	0.1
510.296	0.1
510.648	0.1
510.999	0.09
511.35	0.09
511.701	0.09
512.052	0.1
512.403	0.09
512.754	0.09
513.105	0.09
513.456	0.09
513.807	0.08
514.157	0.09
514.508	0.08
514.859	0.07
515.209	0.08
515.56	0.08
515.91	0.07
516.261	0.08
516.611	0.08
516.962	0.07
517.312	0.07
517.662	0.07
518.013	0.08
518.363	0.07
518.713	0.08
519.063	0.07
519.413	0.08
519.763	0.07
520.113	0.07
520.463	0.08
520.813	0.08
521.163	0.08
521.512	0.08
521.862	0.07
522.212	0.08
522.562	0.08
522.911	0.07
523.261	0.07
523.61	0.08
523.96	0.08
524.309	0.08
524.658	0.08
525.008	0.07
525.357	0.07
525.706	0.07
526.056	0.07
526.405	0.08
526.754	0.07
527.103	0.06
527.452	0.07
527.801	0.08
528.15	0.07
528.499	0.07
528.847	0.07
529.196	0.08
529.545	0.08
529.893	0.08
530.242	0.07
530.591	0.08
530.939	0.08
531.288	0.08
531.636	0.09
531.985	0.08
532.333	0.08
532.681	0.08
533.029	0.07
533.378	0.08
533.726	0.07
534.074	0.08
534.422	0.07
534.77	0.08
535.118	0.07
535.466	0.07
535.814	0.06
536.162	0.07
536.509	0.08
536.857	0.08
537.205	0.07
537.552	0.08
537.9	0.07
538.248	0.07
538.595	0.07
538.943	0.07
539.29	0.07
539.637	0.07
539.985	0.07
540.332	0.06
540.679	0.06
541.026	0.06
541.373	0.06
541.721	0.06
542.068	0.06
542.415	0.06
542.762	0.06
543.108	0.06
543.455	0.05
543.802	0.06
544.149	0.06
544.496	0.07
544.842	0.06
545.189	0.05
545.535	0.06
545.882	0.06
546.228	0.05
546.575	0.06
546.921	0.05
547.267	0.06
547.614	0.06
547.96	0.07
548.306	0.06
548.652	0.06
548.998	0.06
549.344	0.05
549.69	0.06
550.036	0.06
550.382	0.06
550.728	0.06
551.074	0.07
551.42	0.07
551.765	0.06
552.111	0.07
552.457	0.07
552.802	0.07
553.148	0.07
553.493	0.06
553.839	0.07
554.184	0.07
554.529	0.06
554.875	0.07
555.22	0.07
555.565	0.07
555.91	0.06
556.255	0.08
556.6	0.07
556.945	0.06
557.29	0.07
557.635	0.07
557.98	0.06
558.325	0.07
558.67	0.07
559.014	0.07
559.359	0.07
559.704	0.07
560.048	0.06
560.393	0.07
560.737	0.05
561.082	0.06
561.426	0.05
561.77	0.06
562.115	0.05
562.459	0.06
562.803	0.06
563.147	0.05
563.491	0.05
563.835	0.06
564.179	0.06
564.523	0.05
564.867	0.06
565.211	0.06
565.555	0.06
565.899	0.06
566.242	0.06
566.586	0.05
566.93	0.06
567.273	0.06
567.617	0.07
567.96	0.07
568.304	0.06
568.647	0.06
568.99	0.06
569.334	0.07
569.677	0.06
570.02	0.06
570.363	0.06
570.706	0.07
571.049	0.07
571.392	0.06
571.735	0.06
572.078	0.07
572.421	0.06
572.764	0.06
573.106	0.06
573.449	0.06
573.792	0.06
574.134	0.07
574.477	0.07
574.819	0.07
575.162	0.06
575.504	0.06
575.847	0.06
576.189	0.07
576.531	0.06
576.873	0.07
577.215	0.06
577.558	0.06
577.9	0.05
578.242	0.06
578.584	0.06
578.926	0.05
579.267	0.05
579.609	0.06
579.951	0.06
580.293	0.06
580.634	0.06
580.976	0.06
581.318	0.06
581.659	0.05
582.001	0.05
582.342	0.05
582.683	0.06
583.025	0.05
583.366	0.05
583.707	0.06
584.049	0.06
584.39	0.06
584.731	0.05
585.072	0.05
585.413	0.06
585.754	0.06
586.095	0.06
586.435	0.06
586.776	0.06
587.117	0.06
587.458	0.05
587.798	0.06
588.139	0.06
588.48	0.06
588.82	0.06
589.161	0.05
589.501	0.05
589.841	0.05
590.182	0.06
590.522	0.06
590.862	0.06
591.202	0.05
591.542	0.06
591.882	0.05
592.222	0.05
592.562	0.06
592.902	0.05
593.242	0.05
593.582	0.06
593.922	0.05
594.261	0.06
594.601	0.05
594.941	0.05
595.28	0.06
595.62	0.06
595.959	0.06
596.299	0.06
596.638	0.05
596.977	0.05
597.317	0.06
597.656	0.06
597.995	0.05
598.334	0.05
598.673	0.06
599.012	0.05
599.351	0.05
599.69	0.05
600.029	0.05
600.368	0.05
600.707	0.05
601.046	0.05
601.384	0.06
601.723	0.06
602.061	0.05
602.4	0.05
602.738	0.06
603.077	0.05
603.415	0.05
603.754	0.06
604.092	0.05
604.43	0.05
604.768	0.06
605.107	0.06
605.445	0.05
605.783	0.05
606.121	0.05
606.459	0.05
606.796	0.06
607.134	0.05
607.472	0.05
607.81	0.05
608.148	0.06
608.485	0.06
608.823	0.05
609.16	0.05
609.498	0.06
609.835	0.05
610.173	0.06
610.51	0.06
610.847	0.07
611.185	0.06
611.522	0.06
611.859	0.06
612.196	0.06
612.533	0.07
612.87	0.07
613.207	0.07
613.544	0.06
613.881	0.07
614.217	0.07
614.554	0.07
614.891	0.07
615.228	0.07
615.564	0.07
615.901	0.07
616.237	0.07
616.574	0.07
616.91	0.08
617.246	0.07
617.583	0.07
617.919	0.07
618.255	0.07
618.591	0.07
618.927	0.07
619.263	0.07
619.599	0.07
619.935	0.07
620.271	0.06
620.607	0.07
620.943	0.06
621.279	0.07
621.614	0.06
621.95	0.07
622.286	0.07
622.621	0.06
622.957	0.06
623.292	0.06
623.627	0.06
623.963	0.06
624.298	0.06
624.633	0.06
624.968	0.06
625.304	0.06
625.639	0.05
625.974	0.06
626.309	0.06
626.644	0.06
626.979	0.06
627.313	0.06
627.648	0.06
627.983	0.06
628.318	0.05
628.652	0.05
628.987	0.06
629.321	0.06
629.656	0.05
629.99	0.06
630.325	0.06
630.659	0.06
630.993	0.05
631.327	0.06
631.662	0.05
631.996	0.05
632.33	0.06
632.664	0.06
632.998	0.05
633.332	0.05
633.666	0.05
633.999	0.05
634.333	0.05
634.667	0.05
635.001	0.04
635.334	0.05
635.668	0.04
636.001	0.05
636.335	0.05
636.668	0.05
637.001	0.04
637.335	0.05
637.668	0.05
638.001	0.05
638.334	0.04
638.668	0.04
639.001	0.05
639.334	0.05
639.667	0.04
639.999	0.04
640.332	0.05
640.665	0.05
640.998	0.05
641.331	0.05
641.663	0.05
641.996	0.05
642.328	0.05
642.661	0.05
642.993	0.05
643.326	0.06
643.658	0.05
643.99	0.05
644.323	0.05
644.655	0.06
644.987	0.05
645.319	0.06
645.651	0.05
645.983	0.05
646.315	0.05
646.647	0.05
646.979	0.06
647.31	0.06
647.642	0.05
647.974	0.05
648.305	0.07
648.637	0.06
648.968	0.06
649.3	0.06
649.631	0.06
649.963	0.06
650.294	0.06
650.625	0.06
650.957	0.06
651.288	0.07
651.619	0.06
651.95	0.06
652.281	0.06
652.612	0.06
652.943	0.06
653.274	0.06
653.604	0.05
653.935	0.05
654.266	0.06
654.596	0.06
654.927	0.06
655.258	0.06
655.588	0.06
655.918	0.06
656.249	0.04
656.579	0.05
656.909	0.06
657.24	0.06
657.57	0.06
657.9	0.06
658.23	0.06
658.56	0.06
658.89	0.06
659.22	0.05
659.55	0.06
659.88	0.06
660.209	0.06
660.539	0.07
660.869	0.06
661.198	0.06
661.528	0.06
661.857	0.06
662.187	0.07
662.516	0.06
662.846	0.05
663.175	0.06
663.504	0.06
663.833	0.06
664.163	0.06
664.492	0.06
664.821	0.06
665.15	0.06
665.479	0.05
665.807	0.05
666.136	0.05
666.465	0.05
666.794	0.06
667.122	0.05
667.451	0.05
667.78	0.06
668.108	0.05
668.437	0.06
668.765	0.06
669.093	0.06
669.422	0.05
669.75	0.05
670.078	0.05
670.406	0.06
670.734	0.06
671.062	0.05
671.39	0.06
671.718	0.06
672.046	0.06
672.374	0.05
672.702	0.06
673.029	0.05
673.357	0.05
673.685	0.06
674.012	0.06
674.34	0.05
674.667	0.05
674.995	0.05
675.322	0.06
675.649	0.05
675.977	0.05
676.304	0.05
676.631	0.05
676.958	0.05
677.285	0.05
677.612	0.04
677.939	0.05
678.266	0.05
678.593	0.05
678.92	0.05
679.246	0.04
679.573	0.04
679.9	0.04
680.226	0.05
680.553	0.04
680.879	0.04
681.206	0.05
681.532	0.05
681.858	0.05
682.184	0.05
682.511	0.04
682.837	0.04
683.163	0.05
683.489	0.05
683.815	0.05
684.141	0.05
684.467	0.05
684.793	0.04
685.118	0.05
685.444	0.05
685.77	0.05
686.095	0.05
686.421	0.05
686.746	0.06
687.072	0.05
687.397	0.05
687.723	0.05
688.048	0.05
688.373	0.05
688.698	0.05
689.023	0.05
689.349	0.05
689.674	0.05
689.999	0.05
690.323	0.04
690.648	0.04
690.973	0.03
691.298	0.04
691.623	0.04
691.947	0.04
692.272	0.04
692.596	0.04
692.921	0.04
693.245	0.04
693.57	0.04
693.894	0.04
694.218	0.04
694.543	0.04
694.867	0.04
695.191	0.04
695.515	0.04
695.839	0.04
696.163	0.03
696.487	0.04
696.811	0.03
697.135	0.04
697.458	0.05
697.782	0.05
698.106	0.04
698.429	0.04
698.753	0.04
699.076	0.04
699.4	0.04
699.723	0.04
700.046	0.03
700.37	0.04
700.693	0.04
701.016	0.04
701.339	0.04
701.662	0.05
701.985	0.05
702.308	0.04
702.631	0.04
702.954	0.05
703.277	0.04
703.599	0.05
703.922	0.05
704.245	0.04
704.567	0.04
704.89	0.05
705.212	0.05
705.535	0.04
705.857	0.04
706.179	0.03
706.502	0.03
706.824	0.03
707.146	0.03
707.468	0.04
707.79	0.04
708.112	0.04
708.434	0.04
708.756	0.04
709.078	0.04
709.399	0.04
709.721	0.04
710.043	0.04
710.364	0.04
710.686	0.04
711.007	0.04
711.329	0.05
711.65	0.04
711.972	0.04
712.293	0.05
712.614	0.04
712.935	0.04
713.256	0.04
713.577	0.04
713.898	0.04
714.219	0.04
714.54	0.04
714.861	0.04
715.182	0.04
715.503	0.04
715.823	0.04
716.144	0.03
716.464	0.03
716.785	0.04
717.105	0.03
717.426	0.04
717.746	0.03
718.066	0.03
718.387	0.03
718.707	0.03
719.027	0.03
719.347	0.02
719.667	0.03
719.987	0.03
720.307	0.03
720.627	0.02
720.947	0.03
721.266	0.02
721.586	0.02
721.906	0.02
722.225	0.02
722.545	0.02
722.864	0.02
723.184	0.03
723.503	0.02
723.823	0.03
724.142	0.03
724.461	0.03
724.78	0.02
725.099	0.02
725.418	0.03
725.737	0.02
726.056	0.04
726.375	0.03
726.694	0.03
727.013	0.03
727.331	0.02
727.65	0.02
727.969	0.03
728.287	0.03
728.606	0.03
728.924	0.03
729.242	0.03
729.561	0.03
729.879	0.03
730.197	0.03
730.515	0.02
730.834	0.02
731.152	0.03
731.47	0.02
731.788	0.03
732.105	0.02
732.423	0.02
732.741	0.02
733.059	0.03
733.376	0.03
733.694	0.02
734.012	0.02
734.329	0.03
734.647	0.02
734.964	0.03
735.281	0.02
735.599	0.03
735.916	0.03
736.233	0.02
736.55	0.03
736.867	0.03
737.184	0.03
737.501	0.03
737.818	0.03
738.135	0.04
738.452	0.03
738.768	0.03
739.085	0.03
739.402	0.03
739.718	0.03
740.035	0.03
740.351	0.03
740.668	0.04
740.984	0.04
741.3	0.03
741.617	0.04
741.933	0.03
742.249	0.04
742.565	0.03
742.881	0.04
743.197	0.04
743.513	0.03
743.829	0.03
744.144	0.03
744.46	0.04
744.776	0.03
745.091	0.04
745.407	0.03
745.722	0.03
746.038	0.03
746.353	0.02
746.669	0.04
746.984	0.02
747.299	0.03
747.614	0.04
747.93	0.04
748.245	0.03
748.56	0.03
748.875	0.03
749.189	0.03
749.504	0.03
749.819	0.04
750.134	0.03
750.448	0.04
750.763	0.03
751.078	0.03
751.392	0.03
751.707	0.05
752.021	0.04
752.335	0.04
752.65	0.04
752.964	0.03
753.278	0.03
753.592	0.04
753.906	0.02
754.22	0.04
754.534	0.04
754.848	0.04
755.162	0.04
755.476	0.03
755.789	0.04
756.103	0.02
756.417	0.04
756.73	0.04
757.044	0.04
757.357	0.03
757.671	0.04
757.984	0.05
758.297	0.04
758.61	0.04
758.924	0.04
759.237	0.04
759.55	0.03
759.863	0.03
760.176	0.04
760.488	0.04
760.801	0.03
761.114	0.04
761.427	0.04
761.739	0.04
762.052	0.04
762.365	0.03
762.677	0.03
762.99	0.03
763.302	0.03
763.614	0.04
763.926	0.04
764.239	0.03
764.551	0.03
764.863	0.03
765.175	0.04
765.487	0.03
765.799	0.02
766.111	0.02
766.423	0.03
766.734	0.03
767.046	0.02
767.358	0.03
767.669	0.02
767.981	0.03
768.292	0.03
768.604	0.03
768.915	0.03
769.226	0.02
769.537	0.02
769.849	0.03
770.16	0.03
770.471	0.02
770.782	0.02
771.093	0.03
771.404	0.02
771.715	0.02
772.025	0.03
772.336	0.02
772.647	0.01
772.957	0.03
773.268	0.02
773.578	0.02
773.889	0.03
774.199	0.03
774.51	0.02
774.82	0.02
775.13	0.03
775.44	0.02
775.75	0.02
776.06	0.02
776.37	0.02
776.68	0.04
776.99	0.03
777.3	0.02
777.61	0.03
777.92	0.03
778.229	0.03
778.539	0.03
778.848	0.03
779.158	0.03
779.467	0.03
779.777	0.03
780.086	0.04
780.395	0.03
780.704	0.02
781.013	0.02
781.323	0.02
781.632	0.03
781.941	0.03
782.249	0.03
782.558	0.02
782.867	0.03
783.176	0.02
783.485	0.03
783.793	0.03
784.102	0.02
784.41	0.02
784.719	0.02
785.027	0.02
785.335	0.02
785.644	0.03
785.952	0.02
786.26	0.03
786.568	0.01
786.876	0.02
787.184	0.02
787.492	0.03
787.8	0.03
788.108	0.03
788.416	0.02
788.723	0.02
789.031	0.02
789.338	0.02
789.646	0.02
789.953	0.03
790.261	0.03
790.568	0.02
790.876	0.03
791.183	0.03
791.49	0.02
791.797	0.02
792.104	0.02
792.411	0.03
792.718	0.03
793.025	0.03
793.332	0.03
793.639	0.03
793.945	0.04
794.252	0.03
794.559	0.03
794.865	0.03
795.172	0.03
795.478	0.03
795.784	0.04
796.091	0.03
796.397	0.04
796.703	0.03
797.009	0.04
797.315	0.04
797.622	0.03
797.927	0.03
798.233	0.03
798.539	0.04
798.845	0.04
799.151	0.04
799.456	0.03
799.762	0.03
800.068	0.03
800.373	0.04
800.679	0.03
800.984	0.03
801.289	0.03
801.595	0.03
801.9	0.02
802.205	0.03
802.51	0.03
802.815	0.03
803.12	0.03
803.425	0.02
803.73	0.02
804.035	0.03
804.339	0.02
804.644	0.02
804.949	0.03
805.253	0.02
805.558	0.03
805.862	0.03
806.167	0.02
806.471	0.02
806.775	0.04
807.08	0.03
807.384	0.03
807.688	0.04
807.992	0.03
808.296	0.03
808.6	0.03
808.904	0.04
809.207	0.03
809.511	0.04
809.815	0.04
810.119	0.03
810.422	0.03
810.726	0.05
811.029	0.04
811.332	0.05
811.636	0.05
811.939	0.04
812.242	0.04
812.546	0.04
812.849	0.04
813.152	0.04
813.455	0.04
813.758	0.04
814.06	0.04
814.363	0.04
814.666	0.04
814.969	0.04
815.271	0.04
815.574	0.03
815.877	0.04
816.179	0.04
816.481	0.03
816.784	0.04
817.086	0.03
817.388	0.02
817.69	0.03
817.993	0.02
818.295	0.02
818.597	0.02
818.899	0.02
819.2	0.02
819.502	0.02
819.804	0.01
820.106	0.02
820.407	0.02
820.709	0.02
821.01	0.02
821.312	0.03
821.613	0.02
821.915	0.02
822.216	0.01
822.517	0.01
822.818	0.02
823.119	0.03
823.42	0.03
823.721	0.02
824.022	0.03
824.323	0.03
824.624	0.03
824.925	0.03
825.226	0.04
825.526	0.02
825.827	0.03
826.127	0.03
826.428	0.03
826.728	0.02
827.028	0.02
827.329	0.02
827.629	0.02
827.929	0.01
828.229	0.02
828.529	0.02
828.829	0.02
829.129	0.03
829.429	0.02
829.729	0.02
830.029	0.02
830.328	0.02
830.628	0.01
830.927	0.01
831.227	0.01
831.526	0.02
831.826	0.02
832.125	0.02
832.424	0.02
832.724	0.02
833.023	0.01
833.322	0.02
833.621	0.01
833.92	0
834.219	0.01
834.518	0.01
834.816	0
835.115	0.01
835.414	0.01
835.712	0.01
836.011	0.01
836.309	0.01
836.608	0
836.906	0.01
837.205	-0
837.503	0
837.801	0
838.099	-0.01
838.397	-0.01
838.695	-0.01
838.993	-0
839.291	-0.01
839.589	-0.01
839.887	-0.02
840.184	-0.03
840.482	-0.02
840.78	-0.02
841.077	-0.03
841.375	-0.03
841.672	-0.03
841.969	-0.04
842.267	-0.03
842.564	-0.04
842.861	-0.03
843.158	-0.04
843.455	-0.05
843.752	-0.05
844.049	-0.04
844.346	-0.05
844.643	-0.06
844.94	-0.05
845.236	-0.05
845.533	-0.04
845.83	-0.05
846.126	-0.06
846.423	-0.05
846.719	-0.07
847.015	-0.06
847.312	-0.06
847.608	-0.06
847.904	-0.06
848.2	-0.06
848.496	-0.06
848.792	-0.06
849.088	-0.06
849.384	-0.06
849.68	-0.07
849.975	-0.06
850.271	-0.07
850.567	-0.07
850.862	-0.07
851.158	-0.07
851.453	-0.07
851.748	-0.07
852.044	-0.07
852.339	-0.07
852.634	-0.1
852.929	-0.07
853.224	-0.08
853.519	-0.09
853.814	-0.08
854.109	-0.08
854.404	-0.09
854.699	-0.09
854.994	-0.08
855.288	-0.08
855.583	-0.08
855.877	-0.09
856.172	-0.09
856.466	-0.09
856.76	-0.1
857.055	-0.1
857.349	-0.1
857.643	-0.11
857.937	-0.11
858.231	-0.11
858.525	-0.11
858.819	-0.11
859.113	-0.12
859.407	-0.12
859.701	-0.12
859.994	-0.13
860.288	-0.11
860.581	-0.12
860.875	-0.12
861.168	-0.13
861.462	-0.13
861.755	-0.12
862.048	-0.13
862.341	-0.13
862.634	-0.13
862.928	-0.12
863.221	-0.12
863.513	-0.13
863.806	-0.13
864.099	-0.13
864.392	-0.13
864.685	-0.12
864.977	-0.13
865.27	-0.13
865.562	-0.13
865.855	-0.13
866.147	-0.14
866.44	-0.13
866.732	-0.13
867.024	-0.15
867.316	-0.14
867.608	-0.14
867.9	-0.14
868.192	-0.15
868.484	-0.15
868.776	-0.15
869.068	-0.14
869.359	-0.15
869.651	-0.14
869.943	-0.16
870.234	-0.15
870.526	-0.15
870.817	-0.16
871.108	-0.15
871.4	-0.15
871.691	-0.16
871.982	-0.17
872.273	-0.17
872.564	-0.17
872.855	-0.17
873.146	-0.16
873.437	-0.17
873.728	-0.18
874.019	-0.17
874.309	-0.17
874.6	-0.17
874.89	-0.16
875.181	-0.17
875.471	-0.17
875.762	-0.18
876.052	-0.16
876.342	-0.17
876.632	-0.16
876.922	-0.18
877.213	-0.16
877.503	-0.18
877.792	-0.17
878.082	-0.18
878.372	-0.17
878.662	-0.2
878.952	-0.19
879.241	-0.18
879.531	-0.17
879.82	-0.18
880.11	-0.18
880.399	-0.18
880.688	-0.17
880.978	-0.17
881.267	-0.17
