Data from 12-12-AQDScycling_Absorbance__296__00296.txt Node

Date: Tue Dec 12 12:10:44 EST 2023
User: kyuminlee
Spectrometer: FLMS00943
Trigger mode: 0
Integration Time (sec): 1.000000E-1
Scans to average: 1
Electric dark correction enabled: true
Nonlinearity correction enabled: false
Boxcar width: 0
XAxis mode: Wavelengths
Number of Pixels in Spectrum: 2048
>>>>>Begin Spectral Data<<<<<
179.651	-0
180.037	-0
180.424	-0
180.81	-0
181.197	0.16
181.583	0.87
181.97	0.14
182.356	-0
182.743	-0.74
183.129	0.26
183.515	-0
183.901	-1.97
184.288	0.74
184.674	-0
185.06	-0.91
185.446	-0
185.832	-0
186.218	0.23
186.604	-0.31
186.99	-0
187.376	-0
187.762	-0
188.148	0.65
188.534	-0.42
188.92	0.12
189.305	0.1
189.691	0.07
190.077	0.12
190.463	0.13
190.848	0.03
191.234	0.09
191.619	0.11
192.005	0.21
192.391	0.2
192.776	0.17
193.161	0.25
193.547	0.08
193.932	0.01
194.318	0.03
194.703	0.07
195.088	0.29
195.473	0.17
195.859	0.23
196.244	0.16
196.629	0.2
197.014	0.1
197.399	0.14
197.784	0.19
198.169	0.12
198.554	0.4
198.939	0.05
199.324	0.23
199.709	0.16
200.094	0.12
200.478	0.04
200.863	0.23
201.248	0.15
201.633	0.16
202.017	0.14
202.402	0.35
202.787	0.17
203.171	0.06
203.556	0.19
203.94	0.26
204.325	0.28
204.709	0.23
205.093	0.06
205.478	0.2
205.862	0.14
206.246	0.09
206.631	0.21
207.015	0.02
207.399	0.2
207.783	0.06
208.167	0.12
208.551	0.22
208.935	0.2
209.319	0.19
209.703	0.11
210.087	0.19
210.471	0.04
210.855	0.18
211.239	0.17
211.623	0.28
212.007	0.32
212.39	0.24
212.774	0.17
213.158	0.14
213.541	0.19
213.925	0.18
214.309	0.38
214.692	0.3
215.076	0.27
215.459	0.1
215.842	0.18
216.226	0.35
216.609	0.34
216.993	0.21
217.376	0.54
217.759	0.27
218.142	0.41
218.525	0.55
218.909	0.36
219.292	0.4
219.675	0.36
220.058	0.48
220.441	0.48
220.824	0.42
221.207	0.61
221.59	0.47
221.973	0.44
222.355	0.55
222.738	0.69
223.121	0.62
223.504	0.57
223.886	0.75
224.269	0.7
224.652	0.73
225.034	0.76
225.417	0.78
225.799	0.81
226.182	0.83
226.564	0.75
226.947	0.79
227.329	0.77
227.711	0.9
228.094	1.05
228.476	0.87
228.858	0.77
229.24	0.74
229.623	1
230.005	0.94
230.387	0.89
230.769	0.69
231.151	0.99
231.533	0.89
231.915	0.92
232.297	1.03
232.679	0.93
233.061	1
233.442	1.01
233.824	0.97
234.206	1.01
234.588	1.1
234.969	1.08
235.351	1.07
235.733	0.95
236.114	1.11
236.496	1.08
236.877	1.18
237.259	1.01
237.64	0.98
238.022	1.12
238.403	0.93
238.784	1.08
239.165	0.91
239.547	1.06
239.928	1.05
240.309	1
240.69	1.05
241.071	1.19
241.452	1.18
241.834	0.98
242.215	1.1
242.595	1.07
242.976	1.16
243.357	1.2
243.738	1.15
244.119	1.24
244.5	1.08
244.881	1.17
245.261	1.22
245.642	1.13
246.023	1.17
246.403	1.11
246.784	1.14
247.164	1.22
247.545	1.28
247.925	1.3
248.306	1.17
248.686	1.38
249.067	1.34
249.447	1.36
249.827	1.5
250.207	1.47
250.588	1.22
250.968	1.3
251.348	1.33
251.728	1.4
252.108	1.29
252.488	1.32
252.868	1.34
253.248	1.33
253.628	1.45
254.008	1.52
254.388	1.33
254.768	1.42
255.147	1.39
255.527	1.61
255.907	1.34
256.287	1.41
256.666	1.33
257.046	1.38
257.425	1.44
257.805	1.34
258.184	1.27
258.564	1.33
258.943	1.39
259.323	1.53
259.702	1.4
260.081	1.39
260.461	1.46
260.84	1.51
261.219	1.67
261.598	1.4
261.977	1.46
262.356	1.48
262.736	1.43
263.115	1.46
263.494	1.44
263.873	1.49
264.251	1.56
264.63	1.45
265.009	1.36
265.388	1.44
265.767	1.31
266.145	1.41
266.524	1.36
266.903	1.55
267.281	1.31
267.66	1.48
268.039	1.32
268.417	1.52
268.796	1.47
269.174	1.42
269.552	1.35
269.931	1.44
270.309	1.38
270.687	1.58
271.066	1.58
271.444	1.44
271.822	1.54
272.2	1.42
272.578	1.33
272.956	1.44
273.334	1.4
273.712	1.36
274.09	1.43
274.468	1.36
274.846	1.28
275.224	1.28
275.602	1.32
275.98	1.42
276.357	1.5
276.735	1.34
277.113	1.42
277.49	1.37
277.868	1.28
278.246	1.41
278.623	1.42
279.001	1.38
279.378	1.38
279.756	1.48
280.133	1.46
280.51	1.34
280.888	1.41
281.265	1.3
281.642	1.48
282.019	1.46
282.396	1.54
282.773	1.54
283.151	1.41
283.528	1.4
283.905	1.44
284.282	1.55
284.659	1.59
285.035	1.35
285.412	1.41
285.789	1.59
286.166	1.4
286.543	1.43
286.919	1.43
287.296	1.43
287.673	1.77
288.049	1.62
288.426	1.51
288.802	1.5
289.179	1.43
289.555	1.55
289.932	1.52
290.308	1.27
290.684	1.42
291.061	1.3
291.437	1.35
291.813	1.42
292.189	1.25
292.565	1.28
292.942	1.45
293.318	1.4
293.694	1.39
294.07	1.37
294.446	1.37
294.822	1.64
295.197	1.49
295.573	1.45
295.949	1.42
296.325	1.45
296.701	1.37
297.076	1.47
297.452	1.44
297.828	1.46
298.203	1.77
298.579	1.44
298.954	1.44
299.33	1.49
299.705	1.38
300.081	1.59
300.456	1.45
300.831	1.37
301.206	1.34
301.582	1.5
301.957	1.44
302.332	1.41
302.707	1.43
303.082	1.37
303.457	1.49
303.832	1.34
304.207	1.27
304.582	1.37
304.957	1.34
305.332	1.36
305.707	1.33
306.082	1.39
306.456	1.46
306.831	1.33
307.206	1.33
307.58	1.39
307.955	1.36
308.33	1.31
308.704	1.41
309.079	1.31
309.453	1.39
309.828	1.37
310.202	1.32
310.576	1.3
310.951	1.36
311.325	1.36
311.699	1.26
312.073	1.23
312.447	1.28
312.821	1.25
313.196	1.33
313.57	1.21
313.944	1.24
314.317	1.15
314.691	1.27
315.065	1.25
315.439	1.44
315.813	1.27
316.187	1.28
316.56	1.43
316.934	1.32
317.308	1.26
317.681	1.29
318.055	1.32
318.428	1.25
318.802	1.26
319.175	1.35
319.549	1.32
319.922	1.19
320.295	1.18
320.669	1.45
321.042	1.37
321.415	1.39
321.788	1.33
322.162	1.3
322.535	1.37
322.908	1.34
323.281	1.26
323.654	1.38
324.027	1.27
324.4	1.43
324.773	1.41
325.145	1.4
325.518	1.34
325.891	1.22
326.264	1.44
326.636	1.43
327.009	1.41
327.382	1.35
327.754	1.39
328.127	1.3
328.499	1.39
328.872	1.36
329.244	1.33
329.616	1.25
329.989	1.33
330.361	1.32
330.733	1.28
331.106	1.28
331.478	1.51
331.85	1.32
332.222	1.27
332.594	1.37
332.966	1.46
333.338	1.55
333.71	1.4
334.082	1.31
334.454	1.31
334.826	1.34
335.197	1.35
335.569	1.34
335.941	1.34
336.312	1.33
336.684	1.34
337.056	1.4
337.427	1.35
337.799	1.39
338.17	1.57
338.542	1.45
338.913	1.4
339.284	1.5
339.656	1.46
340.027	1.4
340.398	1.45
340.769	1.41
341.141	1.4
341.512	1.34
341.883	1.45
342.254	1.4
342.625	1.35
342.996	1.39
343.367	1.34
343.738	1.48
344.108	1.34
344.479	1.44
344.85	1.24
345.221	1.38
345.591	1.34
345.962	1.37
346.333	1.38
346.703	1.29
347.074	1.37
347.444	1.25
347.815	1.39
348.185	1.33
348.556	1.26
348.926	1.31
349.296	1.32
349.666	1.31
350.037	1.29
350.407	1.21
350.777	1.24
351.147	1.33
351.517	1.31
351.887	1.37
352.257	1.43
352.627	1.2
352.997	1.31
353.367	1.4
353.737	1.4
354.106	1.31
354.476	1.31
354.846	1.35
355.216	1.45
355.585	1.42
355.955	1.4
356.324	1.43
356.694	1.36
357.063	1.38
357.433	1.31
357.802	1.38
358.171	1.37
358.541	1.34
358.91	1.47
359.279	1.44
359.648	1.35
360.017	1.39
360.387	1.38
360.756	1.36
361.125	1.49
361.494	1.44
361.863	1.5
362.231	1.35
362.6	1.5
362.969	1.43
363.338	1.47
363.707	1.54
364.075	1.44
364.444	1.35
364.813	1.36
365.181	1.6
365.55	1.41
365.918	1.45
366.287	1.46
366.655	1.47
367.024	1.52
367.392	1.34
367.76	1.4
368.128	1.51
368.497	1.44
368.865	1.43
369.233	1.36
369.601	1.35
369.969	1.42
370.337	1.67
370.705	1.42
371.073	1.47
371.441	1.41
371.809	1.35
372.177	1.38
372.544	1.42
372.912	1.56
373.28	1.41
373.647	1.53
374.015	1.48
374.383	1.58
374.75	1.66
375.118	1.49
375.485	1.47
375.853	1.48
376.22	1.42
376.587	1.51
376.955	1.6
377.322	1.64
377.689	1.6
378.056	1.44
378.423	1.41
378.79	1.55
379.157	1.6
379.524	1.47
379.891	1.51
380.258	1.57
380.625	1.43
380.992	1.48
381.359	1.48
381.726	1.67
382.092	1.46
382.459	1.44
382.826	1.54
383.192	1.52
383.559	1.59
383.925	1.46
384.292	1.52
384.658	1.62
385.025	1.7
385.391	1.76
385.757	1.57
386.123	1.48
386.49	1.52
386.856	1.49
387.222	1.63
387.588	1.52
387.954	1.64
388.32	1.57
388.686	1.64
389.052	1.62
389.418	1.64
389.784	1.57
390.15	1.57
390.515	1.37
390.881	1.55
391.247	1.42
391.613	1.57
391.978	1.37
392.344	1.68
392.709	1.6
393.075	1.54
393.44	1.52
393.806	1.57
394.171	1.46
394.536	1.56
394.902	1.58
395.267	1.45
395.632	1.47
395.997	1.43
396.362	1.53
396.727	1.49
397.092	1.52
397.457	1.44
397.822	1.51
398.187	1.6
398.552	1.48
398.917	1.57
399.282	1.4
399.646	1.44
400.011	1.63
400.376	1.39
400.74	1.43
401.105	1.46
401.47	1.47
401.834	1.52
402.199	1.42
402.563	1.55
402.927	1.41
403.292	1.53
403.656	1.42
404.02	1.54
404.384	1.66
404.749	1.58
405.113	1.42
405.477	1.65
405.841	1.55
406.205	1.49
406.569	1.46
406.933	1.41
407.296	1.52
407.66	1.56
408.024	1.38
408.388	1.52
408.752	1.45
409.115	1.49
409.479	1.52
409.842	1.41
410.206	1.41
410.569	1.54
410.933	1.47
411.296	1.38
411.66	1.49
412.023	1.32
412.386	1.41
412.749	1.29
413.113	1.37
413.476	1.35
413.839	1.34
414.202	1.44
414.565	1.32
414.928	1.4
415.291	1.33
415.654	1.36
416.017	1.49
416.38	1.35
416.742	1.34
417.105	1.27
417.468	1.25
417.83	1.4
418.193	1.39
418.556	1.28
418.918	1.33
419.281	1.35
419.643	1.41
420.005	1.36
420.368	1.39
420.73	1.31
421.092	1.43
421.455	1.35
421.817	1.34
422.179	1.28
422.541	1.36
422.903	1.42
423.265	1.39
423.627	1.34
423.989	1.27
424.351	1.31
424.713	1.34
425.075	1.36
425.436	1.26
425.798	1.31
426.16	1.37
426.521	1.45
426.883	1.36
427.245	1.32
427.606	1.21
427.967	1.21
428.329	1.31
428.69	1.34
429.052	1.25
429.413	1.32
429.774	1.28
430.135	1.3
430.497	1.31
430.858	1.25
431.219	1.33
431.58	1.26
431.941	1.25
432.302	1.26
432.663	1.25
433.024	1.28
433.384	1.26
433.745	1.24
434.106	1.28
434.467	1.23
434.827	1.26
435.188	1.25
435.548	1.26
435.909	1.21
436.269	1.26
436.63	1.17
436.99	1.22
437.351	1.16
437.711	1.21
438.071	1.25
438.431	1.17
438.792	1.17
439.152	1.15
439.512	1.19
439.872	1.14
440.232	1.19
440.592	1.17
440.952	1.18
441.312	1.14
441.671	1.15
442.031	1.13
442.391	1.16
442.751	1.17
443.11	1.13
443.47	1.08
443.83	1.09
444.189	1.07
444.549	1.13
444.908	1.08
445.267	1.08
445.627	1.09
445.986	1.06
446.345	1.05
446.705	1.06
447.064	1.02
447.423	1.03
447.782	1.01
448.141	1.05
448.5	1
448.859	1.03
449.218	1.01
449.577	1.04
449.936	1.03
450.295	0.99
450.653	0.98
451.012	0.97
451.371	0.99
451.729	0.95
452.088	0.98
452.447	0.96
452.805	0.96
453.163	0.95
453.522	0.94
453.88	0.93
454.239	0.93
454.597	0.92
454.955	0.89
455.313	0.89
455.671	0.9
456.029	0.88
456.388	0.87
456.746	0.86
457.104	0.85
457.461	0.83
457.819	0.84
458.177	0.82
458.535	0.82
458.893	0.81
459.25	0.81
459.608	0.8
459.966	0.77
460.323	0.77
460.681	0.75
461.038	0.74
461.396	0.75
461.753	0.73
462.111	0.73
462.468	0.7
462.825	0.7
463.182	0.7
463.54	0.69
463.897	0.69
464.254	0.68
464.611	0.67
464.968	0.65
465.325	0.66
465.682	0.66
466.039	0.64
466.395	0.63
466.752	0.61
467.109	0.61
467.466	0.6
467.822	0.6
468.179	0.58
468.535	0.58
468.892	0.57
469.248	0.55
469.605	0.55
469.961	0.56
470.318	0.55
470.674	0.54
471.03	0.53
471.386	0.53
471.743	0.51
472.099	0.51
472.455	0.5
472.811	0.49
473.167	0.49
473.523	0.47
473.879	0.48
474.235	0.46
474.59	0.45
474.946	0.44
475.302	0.44
475.657	0.44
476.013	0.43
476.369	0.42
476.724	0.43
477.08	0.42
477.435	0.41
477.791	0.4
478.146	0.4
478.501	0.39
478.857	0.39
479.212	0.39
479.567	0.38
479.922	0.37
480.277	0.37
480.632	0.35
480.987	0.35
481.342	0.35
481.697	0.34
482.052	0.34
482.407	0.34
482.762	0.33
483.116	0.32
483.471	0.32
483.826	0.31
484.18	0.31
484.535	0.31
484.89	0.3
485.244	0.3
485.598	0.3
485.953	0.29
486.307	0.29
486.661	0.29
487.016	0.28
487.37	0.28
487.724	0.27
488.078	0.28
488.432	0.28
488.786	0.27
489.14	0.26
489.494	0.26
489.848	0.25
490.202	0.25
490.556	0.25
490.91	0.25
491.263	0.24
491.617	0.24
491.971	0.24
492.324	0.24
492.678	0.24
493.031	0.24
493.385	0.23
493.738	0.24
494.091	0.23
494.445	0.23
494.798	0.23
495.151	0.22
495.504	0.22
495.857	0.22
496.21	0.22
496.564	0.21
496.916	0.22
497.269	0.2
497.622	0.21
497.975	0.21
498.328	0.22
498.681	0.21
499.033	0.2
499.386	0.21
499.739	0.21
500.091	0.2
500.444	0.21
500.796	0.2
501.149	0.19
501.501	0.19
501.854	0.19
502.206	0.19
502.558	0.19
502.91	0.19
503.263	0.18
503.615	0.19
503.967	0.18
504.319	0.19
504.671	0.18
505.023	0.18
505.375	0.18
505.726	0.18
506.078	0.18
506.43	0.18
506.782	0.17
507.133	0.18
507.485	0.18
507.837	0.19
508.188	0.18
508.54	0.18
508.891	0.18
509.243	0.18
509.594	0.17
509.945	0.18
510.296	0.17
510.648	0.17
510.999	0.17
511.35	0.17
511.701	0.17
512.052	0.17
512.403	0.18
512.754	0.17
513.105	0.17
513.456	0.17
513.807	0.16
514.157	0.17
514.508	0.16
514.859	0.16
515.209	0.16
515.56	0.17
515.91	0.17
516.261	0.17
516.611	0.16
516.962	0.16
517.312	0.16
517.662	0.17
518.013	0.16
518.363	0.17
518.713	0.17
519.063	0.17
519.413	0.16
519.763	0.16
520.113	0.17
520.463	0.16
520.813	0.17
521.163	0.17
521.512	0.17
521.862	0.16
522.212	0.17
522.562	0.17
522.911	0.16
523.261	0.16
523.61	0.17
523.96	0.16
524.309	0.17
524.658	0.17
525.008	0.17
525.357	0.17
525.706	0.17
526.056	0.16
526.405	0.17
526.754	0.17
527.103	0.16
527.452	0.16
527.801	0.16
528.15	0.16
528.499	0.16
528.847	0.16
529.196	0.17
529.545	0.18
529.893	0.17
530.242	0.17
530.591	0.17
530.939	0.18
531.288	0.17
531.636	0.17
531.985	0.17
532.333	0.17
532.681	0.18
533.029	0.17
533.378	0.18
533.726	0.18
534.074	0.18
534.422	0.17
534.77	0.18
535.118	0.17
535.466	0.17
535.814	0.17
536.162	0.17
536.509	0.17
536.857	0.17
537.205	0.17
537.552	0.18
537.9	0.18
538.248	0.18
538.595	0.18
538.943	0.18
539.29	0.18
539.637	0.18
539.985	0.18
540.332	0.18
540.679	0.18
541.026	0.17
541.373	0.17
541.721	0.17
542.068	0.17
542.415	0.17
542.762	0.17
543.108	0.16
543.455	0.15
543.802	0.16
544.149	0.17
544.496	0.17
544.842	0.16
545.189	0.15
545.535	0.16
545.882	0.17
546.228	0.16
546.575	0.16
546.921	0.16
547.267	0.16
547.614	0.16
547.96	0.16
548.306	0.15
548.652	0.16
548.998	0.17
549.344	0.15
549.69	0.16
550.036	0.16
550.382	0.16
550.728	0.17
551.074	0.17
551.42	0.17
551.765	0.17
552.111	0.17
552.457	0.17
552.802	0.17
553.148	0.18
553.493	0.16
553.839	0.18
554.184	0.17
554.529	0.17
554.875	0.17
555.22	0.18
555.565	0.17
555.91	0.17
556.255	0.18
556.6	0.18
556.945	0.17
557.29	0.17
557.635	0.17
557.98	0.17
558.325	0.17
558.67	0.17
559.014	0.17
559.359	0.18
559.704	0.17
560.048	0.17
560.393	0.17
560.737	0.17
561.082	0.18
561.426	0.16
561.77	0.17
562.115	0.16
562.459	0.17
562.803	0.16
563.147	0.16
563.491	0.17
563.835	0.17
564.179	0.16
564.523	0.17
564.867	0.16
565.211	0.17
565.555	0.17
565.899	0.18
566.242	0.17
566.586	0.16
566.93	0.17
567.273	0.18
567.617	0.17
567.96	0.17
568.304	0.18
568.647	0.17
568.99	0.17
569.334	0.18
569.677	0.17
570.02	0.18
570.363	0.17
570.706	0.17
571.049	0.17
571.392	0.17
571.735	0.16
572.078	0.17
572.421	0.18
572.764	0.17
573.106	0.17
573.449	0.16
573.792	0.17
574.134	0.17
574.477	0.17
574.819	0.17
575.162	0.17
575.504	0.17
575.847	0.17
576.189	0.17
576.531	0.17
576.873	0.17
577.215	0.17
577.558	0.18
577.9	0.17
578.242	0.17
578.584	0.18
578.926	0.17
579.267	0.17
579.609	0.17
579.951	0.17
580.293	0.17
580.634	0.18
580.976	0.17
581.318	0.16
581.659	0.17
582.001	0.16
582.342	0.17
582.683	0.17
583.025	0.17
583.366	0.16
583.707	0.17
584.049	0.17
584.39	0.17
584.731	0.16
585.072	0.16
585.413	0.18
585.754	0.18
586.095	0.18
586.435	0.18
586.776	0.17
587.117	0.17
587.458	0.17
587.798	0.16
588.139	0.17
588.48	0.16
588.82	0.17
589.161	0.17
589.501	0.17
589.841	0.16
590.182	0.17
590.522	0.16
590.862	0.17
591.202	0.17
591.542	0.17
591.882	0.16
592.222	0.16
592.562	0.17
592.902	0.16
593.242	0.17
593.582	0.16
593.922	0.16
594.261	0.17
594.601	0.16
594.941	0.17
595.28	0.16
595.62	0.16
595.959	0.17
596.299	0.17
596.638	0.16
596.977	0.16
597.317	0.17
597.656	0.17
597.995	0.16
598.334	0.17
598.673	0.16
599.012	0.16
599.351	0.17
599.69	0.16
600.029	0.17
600.368	0.16
600.707	0.17
601.046	0.16
601.384	0.17
601.723	0.17
602.061	0.16
602.4	0.17
602.738	0.17
603.077	0.17
603.415	0.15
603.754	0.16
604.092	0.18
604.43	0.16
604.768	0.17
605.107	0.17
605.445	0.16
605.783	0.16
606.121	0.16
606.459	0.16
606.796	0.17
607.134	0.16
607.472	0.16
607.81	0.17
608.148	0.16
608.485	0.16
608.823	0.16
609.16	0.15
609.498	0.16
609.835	0.16
610.173	0.16
610.51	0.16
610.847	0.17
611.185	0.17
611.522	0.17
611.859	0.17
612.196	0.17
612.533	0.17
612.87	0.17
613.207	0.17
613.544	0.16
613.881	0.17
614.217	0.17
614.554	0.16
614.891	0.17
615.228	0.17
615.564	0.17
615.901	0.17
616.237	0.17
616.574	0.17
616.91	0.17
617.246	0.17
617.583	0.17
617.919	0.18
618.255	0.17
618.591	0.17
618.927	0.17
619.263	0.17
619.599	0.17
619.935	0.17
620.271	0.17
620.607	0.18
620.943	0.17
621.279	0.17
621.614	0.17
621.95	0.17
622.286	0.16
622.621	0.16
622.957	0.16
623.292	0.16
623.627	0.16
623.963	0.16
624.298	0.16
624.633	0.16
624.968	0.15
625.304	0.16
625.639	0.15
625.974	0.16
626.309	0.15
626.644	0.16
626.979	0.16
627.313	0.15
627.648	0.15
627.983	0.15
628.318	0.15
628.652	0.14
628.987	0.15
629.321	0.15
629.656	0.15
629.99	0.15
630.325	0.15
630.659	0.15
630.993	0.15
631.327	0.15
631.662	0.14
631.996	0.15
632.33	0.15
632.664	0.16
632.998	0.14
633.332	0.14
633.666	0.15
633.999	0.14
634.333	0.14
634.667	0.15
635.001	0.14
635.334	0.14
635.668	0.14
636.001	0.14
636.335	0.14
636.668	0.14
637.001	0.14
637.335	0.14
637.668	0.14
638.001	0.14
638.334	0.14
638.668	0.14
639.001	0.14
639.334	0.14
639.667	0.13
639.999	0.13
640.332	0.13
640.665	0.12
640.998	0.13
641.331	0.13
641.663	0.13
641.996	0.13
642.328	0.14
642.661	0.13
642.993	0.13
643.326	0.14
643.658	0.13
643.99	0.13
644.323	0.14
644.655	0.13
644.987	0.13
645.319	0.14
645.651	0.14
645.983	0.13
646.315	0.13
646.647	0.13
646.979	0.14
647.31	0.14
647.642	0.13
647.974	0.14
648.305	0.14
648.637	0.13
648.968	0.14
649.3	0.14
649.631	0.14
649.963	0.14
650.294	0.14
650.625	0.13
650.957	0.14
651.288	0.14
651.619	0.14
651.95	0.14
652.281	0.14
652.612	0.14
652.943	0.14
653.274	0.14
653.604	0.13
653.935	0.14
654.266	0.14
654.596	0.14
654.927	0.13
655.258	0.14
655.588	0.14
655.918	0.14
656.249	0.12
656.579	0.13
656.909	0.13
657.24	0.13
657.57	0.14
657.9	0.14
658.23	0.13
658.56	0.14
658.89	0.14
659.22	0.13
659.55	0.13
659.88	0.14
660.209	0.13
660.539	0.15
660.869	0.14
661.198	0.14
661.528	0.14
661.857	0.14
662.187	0.14
662.516	0.14
662.846	0.13
663.175	0.14
663.504	0.13
663.833	0.13
664.163	0.13
664.492	0.14
664.821	0.13
665.15	0.13
665.479	0.13
665.807	0.13
666.136	0.13
666.465	0.13
666.794	0.12
667.122	0.13
667.451	0.13
667.78	0.13
668.108	0.13
668.437	0.12
668.765	0.13
669.093	0.13
669.422	0.12
669.75	0.13
670.078	0.12
670.406	0.13
670.734	0.13
671.062	0.13
671.39	0.13
671.718	0.13
672.046	0.12
672.374	0.13
672.702	0.13
673.029	0.12
673.357	0.12
673.685	0.13
674.012	0.12
674.34	0.12
674.667	0.13
674.995	0.13
675.322	0.13
675.649	0.12
675.977	0.13
676.304	0.12
676.631	0.12
676.958	0.12
677.285	0.12
677.612	0.12
677.939	0.12
678.266	0.13
678.593	0.12
678.92	0.12
679.246	0.12
679.573	0.12
679.9	0.12
680.226	0.12
680.553	0.11
680.879	0.12
681.206	0.12
681.532	0.11
681.858	0.12
682.184	0.11
682.511	0.11
682.837	0.11
683.163	0.11
683.489	0.11
683.815	0.11
684.141	0.11
684.467	0.11
684.793	0.11
685.118	0.11
685.444	0.11
685.77	0.11
686.095	0.11
686.421	0.12
686.746	0.11
687.072	0.12
687.397	0.11
687.723	0.12
688.048	0.12
688.373	0.11
688.698	0.12
689.023	0.11
689.349	0.12
689.674	0.12
689.999	0.11
690.323	0.11
690.648	0.1
690.973	0.11
691.298	0.1
691.623	0.1
691.947	0.11
692.272	0.1
692.596	0.1
692.921	0.11
693.245	0.1
693.57	0.1
693.894	0.1
694.218	0.1
694.543	0.1
694.867	0.1
695.191	0.11
695.515	0.11
695.839	0.1
696.163	0.1
696.487	0.1
696.811	0.1
697.135	0.1
697.458	0.11
697.782	0.1
698.106	0.1
698.429	0.1
698.753	0.1
699.076	0.1
699.4	0.1
699.723	0.1
700.046	0.09
700.37	0.1
700.693	0.1
701.016	0.1
701.339	0.1
701.662	0.11
701.985	0.1
702.308	0.1
702.631	0.1
702.954	0.1
703.277	0.11
703.599	0.1
703.922	0.09
704.245	0.09
704.567	0.09
704.89	0.09
705.212	0.09
705.535	0.09
705.857	0.09
706.179	0.08
706.502	0.09
706.824	0.08
707.146	0.09
707.468	0.1
707.79	0.09
708.112	0.09
708.434	0.09
708.756	0.09
709.078	0.1
709.399	0.08
709.721	0.09
710.043	0.09
710.364	0.09
710.686	0.09
711.007	0.09
711.329	0.1
711.65	0.09
711.972	0.09
712.293	0.09
712.614	0.09
712.935	0.09
713.256	0.09
713.577	0.09
713.898	0.09
714.219	0.09
714.54	0.09
714.861	0.08
715.182	0.08
715.503	0.09
715.823	0.08
716.144	0.08
716.464	0.07
716.785	0.08
717.105	0.08
717.426	0.08
717.746	0.08
718.066	0.07
718.387	0.08
718.707	0.07
719.027	0.08
719.347	0.07
719.667	0.08
719.987	0.07
720.307	0.07
720.627	0.07
720.947	0.08
721.266	0.07
721.586	0.06
721.906	0.07
722.225	0.07
722.545	0.07
722.864	0.07
723.184	0.07
723.503	0.07
723.823	0.07
724.142	0.06
724.461	0.06
724.78	0.06
725.099	0.06
725.418	0.06
725.737	0.07
726.056	0.07
726.375	0.07
726.694	0.07
727.013	0.08
727.331	0.06
727.65	0.07
727.969	0.07
728.287	0.07
728.606	0.08
728.924	0.07
729.242	0.07
729.561	0.07
729.879	0.08
730.197	0.07
730.515	0.07
730.834	0.07
731.152	0.07
731.47	0.07
731.788	0.07
732.105	0.06
732.423	0.06
732.741	0.06
733.059	0.06
733.376	0.06
733.694	0.06
734.012	0.06
734.329	0.07
734.647	0.06
734.964	0.07
735.281	0.07
735.599	0.07
735.916	0.07
736.233	0.06
736.55	0.06
736.867	0.06
737.184	0.07
737.501	0.06
737.818	0.06
738.135	0.07
738.452	0.07
738.768	0.07
739.085	0.06
739.402	0.06
739.718	0.06
740.035	0.07
740.351	0.07
740.668	0.07
740.984	0.07
741.3	0.07
741.617	0.07
741.933	0.06
742.249	0.07
742.565	0.06
742.881	0.07
743.197	0.07
743.513	0.06
743.829	0.06
744.144	0.07
744.46	0.06
744.776	0.07
745.091	0.07
745.407	0.07
745.722	0.06
746.038	0.06
746.353	0.06
746.669	0.07
746.984	0.06
747.299	0.06
747.614	0.06
747.93	0.07
748.245	0.06
748.56	0.06
748.875	0.06
749.189	0.07
749.504	0.07
749.819	0.06
750.134	0.06
750.448	0.07
750.763	0.07
751.078	0.07
751.392	0.07
751.707	0.08
752.021	0.07
752.335	0.08
752.65	0.07
752.964	0.06
753.278	0.06
753.592	0.06
753.906	0.06
754.22	0.07
754.534	0.07
754.848	0.06
755.162	0.06
755.476	0.06
755.789	0.06
756.103	0.06
756.417	0.07
756.73	0.07
757.044	0.07
757.357	0.07
757.671	0.06
757.984	0.07
758.297	0.07
758.61	0.07
758.924	0.07
759.237	0.07
759.55	0.07
759.863	0.06
760.176	0.07
760.488	0.07
760.801	0.06
761.114	0.06
761.427	0.06
761.739	0.07
762.052	0.06
762.365	0.06
762.677	0.07
762.99	0.05
763.302	0.06
763.614	0.06
763.926	0.06
764.239	0.06
764.551	0.05
764.863	0.06
765.175	0.07
765.487	0.06
765.799	0.05
766.111	0.05
766.423	0.06
766.734	0.06
767.046	0.06
767.358	0.06
767.669	0.06
767.981	0.05
768.292	0.06
768.604	0.06
768.915	0.05
769.226	0.05
769.537	0.05
769.849	0.06
770.16	0.06
770.471	0.05
770.782	0.05
771.093	0.05
771.404	0.04
771.715	0.05
772.025	0.05
772.336	0.05
772.647	0.04
772.957	0.05
773.268	0.05
773.578	0.04
773.889	0.05
774.199	0.06
774.51	0.04
774.82	0.05
775.13	0.05
775.44	0.05
775.75	0.05
776.06	0.05
776.37	0.05
776.68	0.05
776.99	0.05
777.3	0.05
777.61	0.06
777.92	0.05
778.229	0.05
778.539	0.05
778.848	0.06
779.158	0.05
779.467	0.06
779.777	0.05
780.086	0.05
780.395	0.05
780.704	0.05
781.013	0.05
781.323	0.05
781.632	0.05
781.941	0.05
782.249	0.05
782.558	0.05
782.867	0.05
783.176	0.04
783.485	0.05
783.793	0.04
784.102	0.05
784.41	0.04
784.719	0.05
785.027	0.05
785.335	0.05
785.644	0.05
785.952	0.05
786.26	0.05
786.568	0.03
786.876	0.04
787.184	0.05
787.492	0.05
787.8	0.04
788.108	0.05
788.416	0.04
788.723	0.05
789.031	0.04
789.338	0.04
789.646	0.04
789.953	0.05
790.261	0.05
790.568	0.05
790.876	0.05
791.183	0.05
791.49	0.05
791.797	0.04
792.104	0.03
792.411	0.04
792.718	0.04
793.025	0.05
793.332	0.04
793.639	0.06
793.945	0.05
794.252	0.05
794.559	0.05
794.865	0.05
795.172	0.04
795.478	0.05
795.784	0.05
796.091	0.06
796.397	0.06
796.703	0.06
797.009	0.07
797.315	0.06
797.622	0.05
797.927	0.05
798.233	0.05
798.539	0.06
798.845	0.05
799.151	0.06
799.456	0.06
799.762	0.04
800.068	0.06
800.373	0.06
800.679	0.05
800.984	0.05
801.289	0.05
801.595	0.05
801.9	0.05
802.205	0.05
802.51	0.05
802.815	0.05
803.12	0.05
803.425	0.05
803.73	0.05
804.035	0.05
804.339	0.05
804.644	0.05
804.949	0.05
805.253	0.05
805.558	0.05
805.862	0.04
806.167	0.04
806.471	0.05
806.775	0.05
807.08	0.05
807.384	0.05
807.688	0.05
807.992	0.05
808.296	0.05
808.6	0.05
808.904	0.06
809.207	0.05
809.511	0.06
809.815	0.06
810.119	0.05
810.422	0.06
810.726	0.07
811.029	0.06
811.332	0.06
811.636	0.06
811.939	0.05
812.242	0.05
812.546	0.06
812.849	0.05
813.152	0.06
813.455	0.06
813.758	0.05
814.06	0.05
814.363	0.06
814.666	0.06
814.969	0.06
815.271	0.06
815.574	0.06
815.877	0.05
816.179	0.05
816.481	0.06
816.784	0.05
817.086	0.05
817.388	0.04
817.69	0.04
817.993	0.04
818.295	0.05
818.597	0.04
818.899	0.04
819.2	0.03
819.502	0.04
819.804	0.04
820.106	0.03
820.407	0.04
820.709	0.04
821.01	0.04
821.312	0.04
821.613	0.03
821.915	0.03
822.216	0.04
822.517	0.03
822.818	0.04
823.119	0.04
823.42	0.04
823.721	0.03
824.022	0.03
824.323	0.03
824.624	0.03
824.925	0.04
825.226	0.05
825.526	0.04
825.827	0.04
826.127	0.05
826.428	0.03
826.728	0.03
827.028	0.04
827.329	0.03
827.629	0.04
827.929	0.04
828.229	0.04
828.529	0.05
828.829	0.03
829.129	0.04
829.429	0.04
829.729	0.03
830.029	0.03
830.328	0.03
830.628	0.02
830.927	0.02
831.227	0.03
831.526	0.03
831.826	0.03
832.125	0.03
832.424	0.02
832.724	0.03
833.023	0.03
833.322	0.03
833.621	0.03
833.92	0.02
834.219	0.02
834.518	0.02
834.816	0.02
835.115	0.03
835.414	0.02
835.712	0.02
836.011	0.02
836.309	0.02
836.608	0.02
836.906	0.01
837.205	0.01
837.503	0.01
837.801	0.01
838.099	0.01
838.397	-0.01
838.695	0
838.993	0
839.291	0
839.589	0
839.887	-0
840.184	-0
840.482	-0.01
840.78	-0
841.077	-0.01
841.375	-0.01
841.672	-0
841.969	-0.01
842.267	-0.01
842.564	-0.01
842.861	-0.01
843.158	-0.01
843.455	-0.04
843.752	-0.03
844.049	-0.03
844.346	-0.04
844.643	-0.03
844.94	-0.03
845.236	-0.02
845.533	-0.03
845.83	-0.04
846.126	-0.04
846.423	-0.04
846.719	-0.05
847.015	-0.05
847.312	-0.05
847.608	-0.06
847.904	-0.05
848.2	-0.06
848.496	-0.06
848.792	-0.05
849.088	-0.05
849.384	-0.06
849.68	-0.06
849.975	-0.05
850.271	-0.07
850.567	-0.06
850.862	-0.07
851.158	-0.05
851.453	-0.06
851.748	-0.07
852.044	-0.07
852.339	-0.06
852.634	-0.08
852.929	-0.07
853.224	-0.07
853.519	-0.07
853.814	-0.06
854.109	-0.07
854.404	-0.07
854.699	-0.08
854.994	-0.07
855.288	-0.07
855.583	-0.07
855.877	-0.08
856.172	-0.08
856.466	-0.07
856.76	-0.07
857.055	-0.08
857.349	-0.09
857.643	-0.09
857.937	-0.09
858.231	-0.1
858.525	-0.09
858.819	-0.09
859.113	-0.11
859.407	-0.11
859.701	-0.11
859.994	-0.11
860.288	-0.1
860.581	-0.11
860.875	-0.11
861.168	-0.11
861.462	-0.11
861.755	-0.11
862.048	-0.11
862.341	-0.11
862.634	-0.11
862.928	-0.11
863.221	-0.1
863.513	-0.12
863.806	-0.12
864.099	-0.12
864.392	-0.13
864.685	-0.11
864.977	-0.11
865.27	-0.12
865.562	-0.12
865.855	-0.12
866.147	-0.12
866.44	-0.11
866.732	-0.13
867.024	-0.13
867.316	-0.13
867.608	-0.14
867.9	-0.12
868.192	-0.14
868.484	-0.14
868.776	-0.14
869.068	-0.14
869.359	-0.14
869.651	-0.14
869.943	-0.15
870.234	-0.15
870.526	-0.15
870.817	-0.17
871.108	-0.15
871.4	-0.15
871.691	-0.16
871.982	-0.17
872.273	-0.18
872.564	-0.16
872.855	-0.16
873.146	-0.18
873.437	-0.17
873.728	-0.18
874.019	-0.18
874.309	-0.17
874.6	-0.18
874.89	-0.17
875.181	-0.17
875.471	-0.17
875.762	-0.17
876.052	-0.16
876.342	-0.16
876.632	-0.17
876.922	-0.19
877.213	-0.17
877.503	-0.19
877.792	-0.17
878.082	-0.18
878.372	-0.17
878.662	-0.18
878.952	-0.18
879.241	-0.18
879.531	-0.17
879.82	-0.17
880.11	-0.17
880.399	-0.18
880.688	-0.16
880.978	-0.16
881.267	-0.16
