Data from 12-12-AQDScycling_Absorbance__937__00937.txt Node

Date: Tue Dec 12 14:50:59 EST 2023
User: kyuminlee
Spectrometer: FLMS00943
Trigger mode: 0
Integration Time (sec): 1.000000E-1
Scans to average: 1
Electric dark correction enabled: true
Nonlinearity correction enabled: false
Boxcar width: 0
XAxis mode: Wavelengths
Number of Pixels in Spectrum: 2048
>>>>>Begin Spectral Data<<<<<
179.651	-0
180.037	-0
180.424	-0
180.81	0.19
181.197	0.35
181.583	-0.36
181.97	0.19
182.356	-0
182.743	-0.94
183.129	0.1
183.515	0.32
183.901	-2.38
184.288	0.2
184.674	-0
185.06	-1.3
185.446	-0
185.832	-0
186.218	0.01
186.604	-0
186.99	-0
187.376	-0
187.762	0.43
188.148	-0
188.534	0.04
188.92	0.02
189.305	0.2
189.691	0.26
190.077	0.13
190.463	0.12
190.848	0.1
191.234	0.11
191.619	0.12
192.005	0.13
192.391	0.18
192.776	0.11
193.161	0.26
193.547	0.25
193.932	0.19
194.318	0.17
194.703	0.17
195.088	0.39
195.473	0.16
195.859	0.1
196.244	0.19
196.629	0.21
197.014	0.05
197.399	0.11
197.784	0.14
198.169	0.09
198.554	0.37
198.939	0.12
199.324	0.11
199.709	0.09
200.094	0.14
200.478	0.2
200.863	0.23
201.248	0.11
201.633	0.16
202.017	0.02
202.402	0.14
202.787	0.21
203.171	0.08
203.556	0.15
203.94	0.09
204.325	0.31
204.709	0.16
205.093	0.11
205.478	0.26
205.862	0.29
206.246	0.34
206.631	0.07
207.015	0.1
207.399	0.3
207.783	0.14
208.167	0.21
208.551	0.19
208.935	0.11
209.319	0.21
209.703	0.25
210.087	0.25
210.471	0.08
210.855	0.25
211.239	0.15
211.623	0.27
212.007	0.34
212.39	0.3
212.774	0.17
213.158	0.07
213.541	0.33
213.925	0.25
214.309	0.38
214.692	0.41
215.076	0.12
215.459	0.19
215.842	0.23
216.226	0.27
216.609	0.43
216.993	0.21
217.376	0.52
217.759	0.2
218.142	0.46
218.525	0.58
218.909	0.3
219.292	0.38
219.675	0.33
220.058	0.39
220.441	0.49
220.824	0.59
221.207	0.5
221.59	0.4
221.973	0.45
222.355	0.47
222.738	0.68
223.121	0.64
223.504	0.6
223.886	0.72
224.269	0.75
224.652	0.71
225.034	0.71
225.417	0.82
225.799	0.9
226.182	0.96
226.564	0.9
226.947	0.76
227.329	0.78
227.711	0.94
228.094	0.96
228.476	0.84
228.858	0.91
229.24	0.75
229.623	0.88
230.005	0.88
230.387	0.93
230.769	0.78
231.151	0.95
231.533	1.11
231.915	0.96
232.297	0.94
232.679	1.04
233.061	1.15
233.442	1.06
233.824	1.01
234.206	1.18
234.588	1.07
234.969	1.01
235.351	1
235.733	1.09
236.114	1.22
236.496	1.04
236.877	1.14
237.259	1.03
237.64	1.05
238.022	0.97
238.403	1
238.784	1.1
239.165	0.94
239.547	1.17
239.928	1.13
240.309	1.15
240.69	1.08
241.071	1.09
241.452	1.08
241.834	1.03
242.215	0.93
242.595	1.04
242.976	1.1
243.357	1.14
243.738	1.07
244.119	1.2
244.5	1.14
244.881	1.2
245.261	1.1
245.642	1.18
246.023	1.19
246.403	1.12
246.784	1.25
247.164	1.42
247.545	1.2
247.925	1.32
248.306	1.23
248.686	1.48
249.067	1.27
249.447	1.32
249.827	1.37
250.207	1.3
250.588	1.22
250.968	1.49
251.348	1.41
251.728	1.49
252.108	1.32
252.488	1.35
252.868	1.38
253.248	1.37
253.628	1.44
254.008	1.47
254.388	1.3
254.768	1.44
255.147	1.39
255.527	1.5
255.907	1.26
256.287	1.48
256.666	1.46
257.046	1.45
257.425	1.52
257.805	1.39
258.184	1.37
258.564	1.32
258.943	1.38
259.323	1.47
259.702	1.46
260.081	1.56
260.461	1.46
260.84	1.61
261.219	1.64
261.598	1.61
261.977	1.48
262.356	1.54
262.736	1.49
263.115	1.55
263.494	1.45
263.873	1.52
264.251	1.47
264.63	1.55
265.009	1.38
265.388	1.35
265.767	1.35
266.145	1.44
266.524	1.34
266.903	1.46
267.281	1.35
267.66	1.44
268.039	1.59
268.417	1.5
268.796	1.45
269.174	1.45
269.552	1.34
269.931	1.5
270.309	1.36
270.687	1.6
271.066	1.45
271.444	1.45
271.822	1.66
272.2	1.4
272.578	1.42
272.956	1.5
273.334	1.35
273.712	1.37
274.09	1.4
274.468	1.41
274.846	1.42
275.224	1.33
275.602	1.49
275.98	1.47
276.357	1.39
276.735	1.43
277.113	1.44
277.49	1.35
277.868	1.37
278.246	1.49
278.623	1.36
279.001	1.34
279.378	1.44
279.756	1.62
280.133	1.61
280.51	1.36
280.888	1.47
281.265	1.35
281.642	1.39
282.019	1.62
282.396	1.58
282.773	1.53
283.151	1.71
283.528	1.35
283.905	1.29
284.282	1.51
284.659	1.6
285.035	1.41
285.412	1.32
285.789	1.41
286.166	1.39
286.543	1.5
286.919	1.57
287.296	1.3
287.673	1.61
288.049	1.53
288.426	1.62
288.802	1.56
289.179	1.54
289.555	1.82
289.932	1.47
290.308	1.36
290.684	1.33
291.061	1.38
291.437	1.65
291.813	1.39
292.189	1.37
292.565	1.29
292.942	1.45
293.318	1.41
293.694	1.38
294.07	1.26
294.446	1.45
294.822	1.56
295.197	1.4
295.573	1.53
295.949	1.58
296.325	1.49
296.701	1.43
297.076	1.55
297.452	1.47
297.828	1.52
298.203	1.56
298.579	1.49
298.954	1.54
299.33	1.46
299.705	1.39
300.081	1.53
300.456	1.49
300.831	1.59
301.206	1.54
301.582	1.57
301.957	1.55
302.332	1.65
302.707	1.53
303.082	1.51
303.457	1.61
303.832	1.54
304.207	1.44
304.582	1.47
304.957	1.62
305.332	1.54
305.707	1.48
306.082	1.57
306.456	1.56
306.831	1.49
307.206	1.56
307.58	1.6
307.955	1.52
308.33	1.54
308.704	1.49
309.079	1.4
309.453	1.96
309.828	1.6
310.202	1.48
310.576	1.54
310.951	1.59
311.325	1.53
311.699	1.62
312.073	1.43
312.447	1.48
312.821	1.39
313.196	1.5
313.57	1.4
313.944	1.45
314.317	1.37
314.691	1.46
315.065	1.61
315.439	1.63
315.813	1.59
316.187	1.59
316.56	1.62
316.934	1.57
317.308	1.54
317.681	1.5
318.055	1.53
318.428	1.69
318.802	1.46
319.175	1.52
319.549	1.57
319.922	1.36
320.295	1.47
320.669	1.59
321.042	1.59
321.415	1.65
321.788	1.43
322.162	1.53
322.535	1.52
322.908	1.63
323.281	1.62
323.654	1.72
324.027	1.5
324.4	1.77
324.773	1.74
325.145	1.55
325.518	1.52
325.891	1.48
326.264	1.87
326.636	1.45
327.009	1.49
327.382	1.43
327.754	1.49
328.127	1.5
328.499	1.52
328.872	1.6
329.244	1.63
329.616	1.47
329.989	1.5
330.361	1.47
330.733	1.46
331.106	1.53
331.478	1.57
331.85	1.56
332.222	1.5
332.594	1.49
332.966	1.51
333.338	2.04
333.71	1.57
334.082	1.74
334.454	1.46
334.826	1.61
335.197	1.51
335.569	1.49
335.941	1.45
336.312	1.56
336.684	1.6
337.056	1.42
337.427	1.7
337.799	1.6
338.17	1.7
338.542	1.49
338.913	1.62
339.284	1.63
339.656	1.47
340.027	1.74
340.398	1.56
340.769	1.57
341.141	1.78
341.512	1.59
341.883	1.55
342.254	1.57
342.625	1.59
342.996	1.58
343.367	1.67
343.738	1.6
344.108	1.51
344.479	1.58
344.85	1.46
345.221	1.62
345.591	1.49
345.962	1.54
346.333	1.39
346.703	1.29
347.074	1.39
347.444	1.42
347.815	1.67
348.185	1.43
348.556	1.36
348.926	1.31
349.296	1.4
349.666	1.4
350.037	1.34
350.407	1.25
350.777	1.35
351.147	1.46
351.517	1.51
351.887	1.45
352.257	1.39
352.627	1.28
352.997	1.4
353.367	1.35
353.737	1.38
354.106	1.46
354.476	1.37
354.846	1.44
355.216	1.37
355.585	1.43
355.955	1.36
356.324	1.36
356.694	1.31
357.063	1.29
357.433	1.29
357.802	1.3
358.171	1.33
358.541	1.3
358.91	1.22
359.279	1.25
359.648	1.19
360.017	1.23
360.387	1.16
360.756	1.13
361.125	1.19
361.494	1.17
361.863	1.09
362.231	1.11
362.6	1.11
362.969	1.05
363.338	1.02
363.707	1.04
364.075	1.07
364.444	0.97
364.813	1.01
365.181	0.96
365.55	0.94
365.918	0.97
366.287	0.99
366.655	0.98
367.024	0.93
367.392	0.96
367.76	0.88
368.128	0.9
368.497	0.87
368.865	0.88
369.233	0.88
369.601	0.87
369.969	0.82
370.337	0.83
370.705	0.81
371.073	0.79
371.441	0.8
371.809	0.8
372.177	0.79
372.544	0.79
372.912	0.83
373.28	0.81
373.647	0.8
374.015	0.78
374.383	0.79
374.75	0.79
375.118	0.76
375.485	0.75
375.853	0.79
376.22	0.75
376.587	0.73
376.955	0.75
377.322	0.75
377.689	0.74
378.056	0.75
378.423	0.71
378.79	0.74
379.157	0.74
379.524	0.72
379.891	0.75
380.258	0.74
380.625	0.74
380.992	0.72
381.359	0.72
381.726	0.77
382.092	0.7
382.459	0.71
382.826	0.73
383.192	0.74
383.559	0.74
383.925	0.76
384.292	0.74
384.658	0.75
385.025	0.72
385.391	0.76
385.757	0.77
386.123	0.75
386.49	0.75
386.856	0.77
387.222	0.77
387.588	0.76
387.954	0.77
388.32	0.77
388.686	0.75
389.052	0.75
389.418	0.77
389.784	0.77
390.15	0.74
390.515	0.74
390.881	0.8
391.247	0.75
391.613	0.78
391.978	0.76
392.344	0.79
392.709	0.75
393.075	0.78
393.44	0.73
393.806	0.75
394.171	0.73
394.536	0.77
394.902	0.77
395.267	0.72
395.632	0.74
395.997	0.73
396.362	0.71
396.727	0.74
397.092	0.73
397.457	0.71
397.822	0.71
398.187	0.71
398.552	0.7
398.917	0.7
399.282	0.71
399.646	0.69
400.011	0.69
400.376	0.65
400.74	0.71
401.105	0.68
401.47	0.69
401.834	0.65
402.199	0.67
402.563	0.66
402.927	0.63
403.292	0.65
403.656	0.64
404.02	0.66
404.384	0.65
404.749	0.63
405.113	0.64
405.477	0.64
405.841	0.59
406.205	0.59
406.569	0.63
406.933	0.59
407.296	0.62
407.66	0.6
408.024	0.61
408.388	0.62
408.752	0.57
409.115	0.58
409.479	0.57
409.842	0.58
410.206	0.56
410.569	0.57
410.933	0.57
411.296	0.57
411.66	0.57
412.023	0.54
412.386	0.56
412.749	0.54
413.113	0.55
413.476	0.51
413.839	0.54
414.202	0.53
414.565	0.51
414.928	0.54
415.291	0.5
415.654	0.49
416.017	0.53
416.38	0.52
416.742	0.52
417.105	0.51
417.468	0.51
417.83	0.49
418.193	0.52
418.556	0.51
418.918	0.49
419.281	0.5
419.643	0.48
420.005	0.49
420.368	0.49
420.73	0.5
421.092	0.49
421.455	0.5
421.817	0.48
422.179	0.48
422.541	0.48
422.903	0.47
423.265	0.47
423.627	0.45
423.989	0.47
424.351	0.45
424.713	0.47
425.075	0.44
425.436	0.45
425.798	0.47
426.16	0.47
426.521	0.45
426.883	0.46
427.245	0.45
427.606	0.43
427.967	0.45
428.329	0.45
428.69	0.46
429.052	0.45
429.413	0.45
429.774	0.45
430.135	0.44
430.497	0.45
430.858	0.42
431.219	0.42
431.58	0.45
431.941	0.42
432.302	0.43
432.663	0.45
433.024	0.44
433.384	0.44
433.745	0.42
434.106	0.42
434.467	0.43
434.827	0.42
435.188	0.42
435.548	0.44
435.909	0.41
436.269	0.43
436.63	0.41
436.99	0.41
437.351	0.41
437.711	0.4
438.071	0.4
438.431	0.41
438.792	0.39
439.152	0.41
439.512	0.41
439.872	0.39
440.232	0.41
440.592	0.4
440.952	0.4
441.312	0.39
441.671	0.38
442.031	0.38
442.391	0.38
442.751	0.39
443.11	0.37
443.47	0.37
443.83	0.38
444.189	0.38
444.549	0.37
444.908	0.38
445.267	0.37
445.627	0.37
445.986	0.36
446.345	0.35
446.705	0.36
447.064	0.36
447.423	0.36
447.782	0.36
448.141	0.36
448.5	0.34
448.859	0.36
449.218	0.33
449.577	0.35
449.936	0.34
450.295	0.34
450.653	0.34
451.012	0.33
451.371	0.34
451.729	0.34
452.088	0.35
452.447	0.35
452.805	0.34
453.163	0.33
453.522	0.34
453.88	0.33
454.239	0.33
454.597	0.32
454.955	0.32
455.313	0.32
455.671	0.32
456.029	0.31
456.388	0.31
456.746	0.31
457.104	0.3
457.461	0.3
457.819	0.3
458.177	0.29
458.535	0.29
458.893	0.29
459.25	0.28
459.608	0.28
459.966	0.27
460.323	0.27
460.681	0.27
461.038	0.28
461.396	0.26
461.753	0.28
462.111	0.26
462.468	0.26
462.825	0.26
463.182	0.26
463.54	0.26
463.897	0.26
464.254	0.26
464.611	0.25
464.968	0.25
465.325	0.24
465.682	0.24
466.039	0.24
466.395	0.23
466.752	0.23
467.109	0.23
467.466	0.24
467.822	0.23
468.179	0.23
468.535	0.23
468.892	0.23
469.248	0.22
469.605	0.22
469.961	0.22
470.318	0.23
470.674	0.22
471.03	0.21
471.386	0.21
471.743	0.2
472.099	0.2
472.455	0.2
472.811	0.2
473.167	0.2
473.523	0.19
473.879	0.19
474.235	0.2
474.59	0.19
474.946	0.19
475.302	0.19
475.657	0.18
476.013	0.19
476.369	0.18
476.724	0.18
477.08	0.19
477.435	0.18
477.791	0.18
478.146	0.18
478.501	0.17
478.857	0.18
479.212	0.17
479.567	0.16
479.922	0.16
480.277	0.17
480.632	0.15
480.987	0.15
481.342	0.15
481.697	0.15
482.052	0.15
482.407	0.15
482.762	0.15
483.116	0.15
483.471	0.14
483.826	0.14
484.18	0.14
484.535	0.14
484.89	0.13
485.244	0.13
485.598	0.14
485.953	0.13
486.307	0.14
486.661	0.13
487.016	0.12
487.37	0.13
487.724	0.13
488.078	0.13
488.432	0.13
488.786	0.13
489.14	0.12
489.494	0.12
489.848	0.12
490.202	0.12
490.556	0.12
490.91	0.12
491.263	0.12
491.617	0.12
491.971	0.12
492.324	0.12
492.678	0.12
493.031	0.12
493.385	0.11
493.738	0.11
494.091	0.11
494.445	0.11
494.798	0.12
495.151	0.11
495.504	0.11
495.857	0.11
496.21	0.12
496.564	0.11
496.916	0.12
497.269	0.11
497.622	0.11
497.975	0.11
498.328	0.11
498.681	0.11
499.033	0.1
499.386	0.11
499.739	0.1
500.091	0.1
500.444	0.09
500.796	0.1
501.149	0.09
501.501	0.1
501.854	0.09
502.206	0.1
502.558	0.11
502.91	0.1
503.263	0.09
503.615	0.1
503.967	0.1
504.319	0.1
504.671	0.1
505.023	0.09
505.375	0.1
505.726	0.09
506.078	0.09
506.43	0.08
506.782	0.09
507.133	0.1
507.485	0.1
507.837	0.1
508.188	0.1
508.54	0.1
508.891	0.1
509.243	0.09
509.594	0.1
509.945	0.1
510.296	0.1
510.648	0.09
510.999	0.1
511.35	0.09
511.701	0.09
512.052	0.09
512.403	0.1
512.754	0.09
513.105	0.09
513.456	0.09
513.807	0.08
514.157	0.1
514.508	0.1
514.859	0.09
515.209	0.09
515.56	0.1
515.91	0.09
516.261	0.1
516.611	0.09
516.962	0.09
517.312	0.09
517.662	0.1
518.013	0.1
518.363	0.1
518.713	0.09
519.063	0.1
519.413	0.1
519.763	0.1
520.113	0.09
520.463	0.1
520.813	0.1
521.163	0.1
521.512	0.1
521.862	0.09
522.212	0.09
522.562	0.09
522.911	0.09
523.261	0.09
523.61	0.1
523.96	0.1
524.309	0.1
524.658	0.1
525.008	0.09
525.357	0.09
525.706	0.1
526.056	0.09
526.405	0.1
526.754	0.1
527.103	0.09
527.452	0.1
527.801	0.1
528.15	0.1
528.499	0.09
528.847	0.1
529.196	0.11
529.545	0.11
529.893	0.11
530.242	0.1
530.591	0.11
530.939	0.11
531.288	0.11
531.636	0.1
531.985	0.11
532.333	0.1
532.681	0.1
533.029	0.1
533.378	0.11
533.726	0.11
534.074	0.12
534.422	0.1
534.77	0.11
535.118	0.1
535.466	0.1
535.814	0.09
536.162	0.1
536.509	0.1
536.857	0.1
537.205	0.11
537.552	0.11
537.9	0.1
538.248	0.1
538.595	0.11
538.943	0.1
539.29	0.11
539.637	0.1
539.985	0.1
540.332	0.11
540.679	0.11
541.026	0.1
541.373	0.11
541.721	0.1
542.068	0.1
542.415	0.1
542.762	0.1
543.108	0.09
543.455	0.09
543.802	0.1
544.149	0.1
544.496	0.1
544.842	0.09
545.189	0.09
545.535	0.1
545.882	0.1
546.228	0.1
546.575	0.09
546.921	0.09
547.267	0.09
547.614	0.1
547.96	0.09
548.306	0.08
548.652	0.08
548.998	0.1
549.344	0.1
549.69	0.1
550.036	0.09
550.382	0.09
550.728	0.09
551.074	0.1
551.42	0.1
551.765	0.1
552.111	0.1
552.457	0.1
552.802	0.1
553.148	0.1
553.493	0.09
553.839	0.1
554.184	0.1
554.529	0.09
554.875	0.11
555.22	0.1
555.565	0.1
555.91	0.1
556.255	0.11
556.6	0.11
556.945	0.1
557.29	0.1
557.635	0.1
557.98	0.1
558.325	0.1
558.67	0.1
559.014	0.1
559.359	0.1
559.704	0.1
560.048	0.09
560.393	0.1
560.737	0.09
561.082	0.1
561.426	0.09
561.77	0.1
562.115	0.09
562.459	0.1
562.803	0.1
563.147	0.09
563.491	0.11
563.835	0.1
564.179	0.1
564.523	0.1
564.867	0.09
565.211	0.1
565.555	0.1
565.899	0.1
566.242	0.1
566.586	0.1
566.93	0.09
567.273	0.1
567.617	0.1
567.96	0.11
568.304	0.1
568.647	0.1
568.99	0.11
569.334	0.11
569.677	0.11
570.02	0.1
570.363	0.11
570.706	0.11
571.049	0.11
571.392	0.11
571.735	0.1
572.078	0.1
572.421	0.11
572.764	0.11
573.106	0.11
573.449	0.1
573.792	0.1
574.134	0.11
574.477	0.11
574.819	0.1
575.162	0.1
575.504	0.1
575.847	0.1
576.189	0.1
576.531	0.1
576.873	0.1
577.215	0.1
577.558	0.1
577.9	0.09
578.242	0.1
578.584	0.1
578.926	0.1
579.267	0.1
579.609	0.1
579.951	0.1
580.293	0.1
580.634	0.1
580.976	0.1
581.318	0.1
581.659	0.1
582.001	0.1
582.342	0.1
582.683	0.11
583.025	0.1
583.366	0.09
583.707	0.1
584.049	0.1
584.39	0.09
584.731	0.1
585.072	0.09
585.413	0.11
585.754	0.1
586.095	0.1
586.435	0.1
586.776	0.1
587.117	0.11
587.458	0.1
587.798	0.1
588.139	0.1
588.48	0.09
588.82	0.09
589.161	0.1
589.501	0.09
589.841	0.1
590.182	0.1
590.522	0.09
590.862	0.1
591.202	0.09
591.542	0.09
591.882	0.09
592.222	0.09
592.562	0.09
592.902	0.1
593.242	0.09
593.582	0.1
593.922	0.1
594.261	0.09
594.601	0.09
594.941	0.09
595.28	0.09
595.62	0.1
595.959	0.09
596.299	0.1
596.638	0.1
596.977	0.09
597.317	0.11
597.656	0.09
597.995	0.09
598.334	0.1
598.673	0.1
599.012	0.1
599.351	0.11
599.69	0.1
600.029	0.11
600.368	0.11
600.707	0.11
601.046	0.1
601.384	0.11
601.723	0.11
602.061	0.1
602.4	0.1
602.738	0.11
603.077	0.1
603.415	0.09
603.754	0.11
604.092	0.1
604.43	0.1
604.768	0.11
605.107	0.1
605.445	0.1
605.783	0.1
606.121	0.1
606.459	0.1
606.796	0.1
607.134	0.09
607.472	0.1
607.81	0.09
608.148	0.09
608.485	0.11
608.823	0.1
609.16	0.1
609.498	0.1
609.835	0.1
610.173	0.09
610.51	0.1
610.847	0.1
611.185	0.1
611.522	0.1
611.859	0.1
612.196	0.1
612.533	0.11
612.87	0.11
613.207	0.1
613.544	0.11
613.881	0.11
614.217	0.11
614.554	0.11
614.891	0.1
615.228	0.11
615.564	0.11
615.901	0.11
616.237	0.11
616.574	0.11
616.91	0.11
617.246	0.11
617.583	0.11
617.919	0.12
618.255	0.11
618.591	0.11
618.927	0.12
619.263	0.12
619.599	0.12
619.935	0.11
620.271	0.1
620.607	0.11
620.943	0.11
621.279	0.11
621.614	0.1
621.95	0.11
622.286	0.1
622.621	0.1
622.957	0.11
623.292	0.1
623.627	0.1
623.963	0.1
624.298	0.11
624.633	0.09
624.968	0.09
625.304	0.1
625.639	0.1
625.974	0.1
626.309	0.1
626.644	0.1
626.979	0.1
627.313	0.11
627.648	0.1
627.983	0.1
628.318	0.1
628.652	0.1
628.987	0.1
629.321	0.1
629.656	0.09
629.99	0.1
630.325	0.09
630.659	0.09
630.993	0.09
631.327	0.1
631.662	0.08
631.996	0.09
632.33	0.08
632.664	0.1
632.998	0.08
633.332	0.09
633.666	0.09
633.999	0.09
634.333	0.08
634.667	0.09
635.001	0.08
635.334	0.09
635.668	0.08
636.001	0.09
636.335	0.08
636.668	0.09
637.001	0.07
637.335	0.09
637.668	0.08
638.001	0.08
638.334	0.08
638.668	0.08
639.001	0.08
639.334	0.08
639.667	0.08
639.999	0.08
640.332	0.08
640.665	0.09
640.998	0.08
641.331	0.09
641.663	0.09
641.996	0.09
642.328	0.1
642.661	0.09
642.993	0.09
643.326	0.09
643.658	0.08
643.99	0.09
644.323	0.09
644.655	0.09
644.987	0.1
645.319	0.1
645.651	0.09
645.983	0.09
646.315	0.09
646.647	0.1
646.979	0.1
647.31	0.1
647.642	0.1
647.974	0.1
648.305	0.1
648.637	0.09
648.968	0.1
649.3	0.09
649.631	0.1
649.963	0.09
650.294	0.09
650.625	0.09
650.957	0.09
651.288	0.09
651.619	0.1
651.95	0.1
652.281	0.1
652.612	0.09
652.943	0.09
653.274	0.09
653.604	0.09
653.935	0.09
654.266	0.09
654.596	0.09
654.927	0.09
655.258	0.09
655.588	0.09
655.918	0.09
656.249	0.08
656.579	0.09
656.909	0.09
657.24	0.09
657.57	0.1
657.9	0.09
658.23	0.08
658.56	0.1
658.89	0.09
659.22	0.08
659.55	0.09
659.88	0.09
660.209	0.09
660.539	0.1
660.869	0.09
661.198	0.1
661.528	0.09
661.857	0.09
662.187	0.09
662.516	0.09
662.846	0.09
663.175	0.09
663.504	0.1
663.833	0.08
664.163	0.09
664.492	0.09
664.821	0.08
665.15	0.08
665.479	0.09
665.807	0.08
666.136	0.09
666.465	0.08
666.794	0.08
667.122	0.08
667.451	0.09
667.78	0.09
668.108	0.1
668.437	0.09
668.765	0.09
669.093	0.1
669.422	0.1
669.75	0.09
670.078	0.09
670.406	0.09
670.734	0.09
671.062	0.09
671.39	0.09
671.718	0.09
672.046	0.1
672.374	0.09
672.702	0.09
673.029	0.09
673.357	0.09
673.685	0.1
674.012	0.09
674.34	0.1
674.667	0.1
674.995	0.09
675.322	0.09
675.649	0.09
675.977	0.09
676.304	0.09
676.631	0.09
676.958	0.08
677.285	0.08
677.612	0.09
677.939	0.08
678.266	0.09
678.593	0.09
678.92	0.09
679.246	0.08
679.573	0.09
679.9	0.08
680.226	0.09
680.553	0.09
680.879	0.09
681.206	0.08
681.532	0.09
681.858	0.09
682.184	0.09
682.511	0.08
682.837	0.08
683.163	0.09
683.489	0.09
683.815	0.09
684.141	0.09
684.467	0.09
684.793	0.09
685.118	0.09
685.444	0.09
685.77	0.08
686.095	0.09
686.421	0.09
686.746	0.09
687.072	0.08
687.397	0.08
687.723	0.08
688.048	0.09
688.373	0.08
688.698	0.08
689.023	0.08
689.349	0.08
689.674	0.08
689.999	0.08
690.323	0.07
690.648	0.07
690.973	0.07
691.298	0.07
691.623	0.07
691.947	0.07
692.272	0.07
692.596	0.08
692.921	0.08
693.245	0.07
693.57	0.08
693.894	0.09
694.218	0.08
694.543	0.08
694.867	0.08
695.191	0.08
695.515	0.08
695.839	0.08
696.163	0.08
696.487	0.08
696.811	0.08
697.135	0.08
697.458	0.08
697.782	0.08
698.106	0.08
698.429	0.08
698.753	0.07
699.076	0.08
699.4	0.08
699.723	0.08
700.046	0.07
700.37	0.08
700.693	0.09
701.016	0.08
701.339	0.08
701.662	0.09
701.985	0.08
702.308	0.08
702.631	0.08
702.954	0.08
703.277	0.07
703.599	0.08
703.922	0.07
704.245	0.07
704.567	0.07
704.89	0.07
705.212	0.08
705.535	0.06
705.857	0.07
706.179	0.06
706.502	0.07
706.824	0.07
707.146	0.07
707.468	0.07
707.79	0.07
708.112	0.07
708.434	0.07
708.756	0.07
709.078	0.07
709.399	0.06
709.721	0.07
710.043	0.08
710.364	0.07
710.686	0.07
711.007	0.07
711.329	0.08
711.65	0.07
711.972	0.07
712.293	0.08
712.614	0.07
712.935	0.08
713.256	0.08
713.577	0.08
713.898	0.07
714.219	0.08
714.54	0.07
714.861	0.07
715.182	0.08
715.503	0.08
715.823	0.07
716.144	0.08
716.464	0.06
716.785	0.07
717.105	0.07
717.426	0.07
717.746	0.07
718.066	0.06
718.387	0.07
718.707	0.06
719.027	0.07
719.347	0.06
719.667	0.07
719.987	0.06
720.307	0.06
720.627	0.06
720.947	0.06
721.266	0.06
721.586	0.06
721.906	0.06
722.225	0.06
722.545	0.06
722.864	0.06
723.184	0.06
723.503	0.06
723.823	0.06
724.142	0.06
724.461	0.06
724.78	0.06
725.099	0.07
725.418	0.07
725.737	0.07
726.056	0.07
726.375	0.06
726.694	0.06
727.013	0.06
727.331	0.05
727.65	0.06
727.969	0.06
728.287	0.07
728.606	0.06
728.924	0.06
729.242	0.06
729.561	0.06
729.879	0.06
730.197	0.07
730.515	0.06
730.834	0.06
731.152	0.06
731.47	0.06
731.788	0.06
732.105	0.06
732.423	0.06
732.741	0.06
733.059	0.06
733.376	0.07
733.694	0.07
734.012	0.06
734.329	0.07
734.647	0.07
734.964	0.07
735.281	0.07
735.599	0.08
735.916	0.07
736.233	0.06
736.55	0.07
736.867	0.08
737.184	0.08
737.501	0.07
737.818	0.08
738.135	0.07
738.452	0.07
738.768	0.07
739.085	0.07
739.402	0.05
739.718	0.07
740.035	0.07
740.351	0.07
740.668	0.07
740.984	0.06
741.3	0.06
741.617	0.07
741.933	0.07
742.249	0.07
742.565	0.06
742.881	0.07
743.197	0.07
743.513	0.06
743.829	0.05
744.144	0.06
744.46	0.06
744.776	0.07
745.091	0.05
745.407	0.06
745.722	0.05
746.038	0.05
746.353	0.05
746.669	0.06
746.984	0.05
747.299	0.05
747.614	0.07
747.93	0.07
748.245	0.05
748.56	0.05
748.875	0.06
749.189	0.06
749.504	0.05
749.819	0.06
750.134	0.05
750.448	0.05
750.763	0.05
751.078	0.05
751.392	0.05
751.707	0.07
752.021	0.06
752.335	0.07
752.65	0.05
752.964	0.05
753.278	0.06
753.592	0.06
753.906	0.06
754.22	0.05
754.534	0.06
754.848	0.06
755.162	0.06
755.476	0.06
755.789	0.06
756.103	0.05
756.417	0.06
756.73	0.05
757.044	0.06
757.357	0.05
757.671	0.05
757.984	0.05
758.297	0.06
758.61	0.05
758.924	0.06
759.237	0.05
759.55	0.05
759.863	0.05
760.176	0.05
760.488	0.05
760.801	0.05
761.114	0.05
761.427	0.05
761.739	0.06
762.052	0.05
762.365	0.05
762.677	0.06
762.99	0.05
763.302	0.06
763.614	0.06
763.926	0.05
764.239	0.05
764.551	0.05
764.863	0.05
765.175	0.06
765.487	0.05
765.799	0.05
766.111	0.05
766.423	0.06
766.734	0.05
767.046	0.05
767.358	0.05
767.669	0.05
767.981	0.05
768.292	0.05
768.604	0.05
768.915	0.05
769.226	0.05
769.537	0.05
769.849	0.05
770.16	0.05
770.471	0.04
770.782	0.04
771.093	0.05
771.404	0.04
771.715	0.05
772.025	0.05
772.336	0.04
772.647	0.04
772.957	0.04
773.268	0.05
773.578	0.05
773.889	0.05
774.199	0.06
774.51	0.05
774.82	0.05
775.13	0.06
775.44	0.06
775.75	0.06
776.06	0.06
776.37	0.06
776.68	0.06
776.99	0.07
777.3	0.05
777.61	0.06
777.92	0.06
778.229	0.05
778.539	0.06
778.848	0.05
779.158	0.07
779.467	0.06
779.777	0.06
780.086	0.06
780.395	0.06
780.704	0.05
781.013	0.04
781.323	0.05
781.632	0.05
781.941	0.06
782.249	0.06
782.558	0.05
782.867	0.06
783.176	0.04
783.485	0.05
783.793	0.05
784.102	0.05
784.41	0.04
784.719	0.05
785.027	0.05
785.335	0.05
785.644	0.06
785.952	0.05
786.26	0.06
786.568	0.04
786.876	0.04
787.184	0.05
787.492	0.06
787.8	0.05
788.108	0.06
788.416	0.05
788.723	0.06
789.031	0.05
789.338	0.05
789.646	0.04
789.953	0.06
790.261	0.06
790.568	0.06
790.876	0.06
791.183	0.06
791.49	0.06
791.797	0.06
792.104	0.05
792.411	0.06
792.718	0.05
793.025	0.06
793.332	0.05
793.639	0.06
793.945	0.06
794.252	0.05
794.559	0.05
794.865	0.06
795.172	0.06
795.478	0.05
795.784	0.06
796.091	0.05
796.397	0.06
796.703	0.06
797.009	0.06
797.315	0.06
797.622	0.06
797.927	0.06
798.233	0.05
798.539	0.06
798.845	0.06
799.151	0.06
799.456	0.06
799.762	0.05
800.068	0.06
800.373	0.06
800.679	0.05
800.984	0.05
801.289	0.05
801.595	0.06
801.9	0.06
802.205	0.05
802.51	0.05
802.815	0.06
803.12	0.05
803.425	0.06
803.73	0.05
804.035	0.05
804.339	0.05
804.644	0.05
804.949	0.05
805.253	0.04
805.558	0.05
805.862	0.05
806.167	0.05
806.471	0.05
806.775	0.06
807.08	0.05
807.384	0.06
807.688	0.05
807.992	0.06
808.296	0.06
808.6	0.05
808.904	0.06
809.207	0.06
809.511	0.06
809.815	0.06
810.119	0.06
810.422	0.06
810.726	0.07
811.029	0.06
811.332	0.06
811.636	0.07
811.939	0.06
812.242	0.06
812.546	0.06
812.849	0.06
813.152	0.06
813.455	0.06
813.758	0.06
814.06	0.06
814.363	0.06
814.666	0.06
814.969	0.06
815.271	0.06
815.574	0.06
815.877	0.06
816.179	0.05
816.481	0.05
816.784	0.05
817.086	0.05
817.388	0.04
817.69	0.04
817.993	0.04
818.295	0.05
818.597	0.04
818.899	0.05
819.2	0.04
819.502	0.03
819.804	0.05
820.106	0.04
820.407	0.04
820.709	0.05
821.01	0.04
821.312	0.05
821.613	0.04
821.915	0.04
822.216	0.04
822.517	0.03
822.818	0.04
823.119	0.04
823.42	0.04
823.721	0.03
824.022	0.03
824.323	0.04
824.624	0.03
824.925	0.05
825.226	0.05
825.526	0.04
825.827	0.04
826.127	0.04
826.428	0.04
826.728	0.04
827.028	0.03
827.329	0.04
827.629	0.03
827.929	0.03
828.229	0.04
828.529	0.04
828.829	0.03
829.129	0.04
829.429	0.03
829.729	0.03
830.029	0.03
830.328	0.03
830.628	0.02
830.927	0.02
831.227	0.03
831.526	0.03
831.826	0.03
832.125	0.02
832.424	0.03
832.724	0.03
833.023	0.03
833.322	0.03
833.621	0.03
833.92	0.02
834.219	0.02
834.518	0.03
834.816	0.01
835.115	0.02
835.414	0.01
835.712	0.02
836.011	0.02
836.309	0.02
836.608	0.01
836.906	0.01
837.205	0.01
837.503	0.01
837.801	0
838.099	0
838.397	-0.01
838.695	-0.01
838.993	0
839.291	-0
839.589	-0.01
839.887	-0.01
840.184	-0.01
840.482	-0.02
840.78	-0.01
841.077	-0.01
841.375	-0.01
841.672	-0.01
841.969	-0.01
842.267	-0.01
842.564	-0.01
842.861	-0.01
843.158	-0.01
843.455	-0.02
843.752	-0.02
844.049	-0.02
844.346	-0.02
844.643	-0.02
844.94	-0.02
845.236	-0.02
845.533	-0.02
845.83	-0.01
846.126	-0.02
846.423	-0.03
846.719	-0.03
847.015	-0.02
847.312	-0.03
847.608	-0.03
847.904	-0.04
848.2	-0.04
848.496	-0.04
848.792	-0.04
849.088	-0.03
849.384	-0.04
849.68	-0.04
849.975	-0.05
850.271	-0.04
850.567	-0.05
850.862	-0.05
851.158	-0.06
851.453	-0.05
851.748	-0.07
852.044	-0.06
852.339	-0.05
852.634	-0.07
852.929	-0.05
853.224	-0.06
853.519	-0.07
853.814	-0.05
854.109	-0.06
854.404	-0.06
854.699	-0.07
854.994	-0.05
855.288	-0.05
855.583	-0.06
855.877	-0.06
856.172	-0.07
856.466	-0.06
856.76	-0.06
857.055	-0.06
857.349	-0.08
857.643	-0.07
857.937	-0.08
858.231	-0.07
858.525	-0.08
858.819	-0.08
859.113	-0.09
859.407	-0.09
859.701	-0.1
859.994	-0.1
860.288	-0.09
860.581	-0.09
860.875	-0.1
861.168	-0.1
861.462	-0.09
861.755	-0.1
862.048	-0.1
862.341	-0.11
862.634	-0.1
862.928	-0.11
863.221	-0.1
863.513	-0.12
863.806	-0.11
864.099	-0.11
864.392	-0.12
864.685	-0.11
864.977	-0.12
865.27	-0.11
865.562	-0.12
865.855	-0.1
866.147	-0.11
866.44	-0.11
866.732	-0.13
867.024	-0.12
867.316	-0.12
867.608	-0.13
867.9	-0.13
868.192	-0.12
868.484	-0.12
868.776	-0.13
869.068	-0.13
869.359	-0.13
869.651	-0.13
869.943	-0.14
870.234	-0.15
870.526	-0.14
870.817	-0.15
871.108	-0.14
871.4	-0.14
871.691	-0.14
871.982	-0.15
872.273	-0.16
872.564	-0.15
872.855	-0.15
873.146	-0.16
873.437	-0.15
873.728	-0.16
874.019	-0.15
874.309	-0.16
874.6	-0.15
874.89	-0.16
875.181	-0.15
875.471	-0.15
875.762	-0.15
876.052	-0.15
876.342	-0.15
876.632	-0.16
876.922	-0.16
877.213	-0.16
877.503	-0.16
877.792	-0.16
878.082	-0.16
878.372	-0.16
878.662	-0.18
878.952	-0.18
879.241	-0.17
879.531	-0.17
879.82	-0.17
880.11	-0.17
880.399	-0.17
880.688	-0.15
880.978	-0.15
881.267	-0.15
