Data from 12-12-AQDScycling_Absorbance__152__00152.txt Node

Date: Tue Dec 12 11:34:44 EST 2023
User: kyuminlee
Spectrometer: FLMS00943
Trigger mode: 0
Integration Time (sec): 1.000000E-1
Scans to average: 1
Electric dark correction enabled: true
Nonlinearity correction enabled: false
Boxcar width: 0
XAxis mode: Wavelengths
Number of Pixels in Spectrum: 2048
>>>>>Begin Spectral Data<<<<<
179.651	-0
180.037	-0
180.424	-0
180.81	1.98
181.197	0.45
181.583	-0
181.97	-0.52
182.356	-0
182.743	-0.92
183.129	0.52
183.515	0.52
183.901	-2.81
184.288	0.25
184.674	-0
185.06	0.26
185.446	-0.39
185.832	-0
186.218	0.44
186.604	-0
186.99	-0
187.376	-0
187.762	-0
188.148	0.07
188.534	-0.16
188.92	-0.04
189.305	0.03
189.691	0.24
190.077	0.07
190.463	0.06
190.848	0.02
191.234	0.15
191.619	0.09
192.005	0.18
192.391	0.16
192.776	0.23
193.161	0.12
193.547	0.11
193.932	0.09
194.318	0.06
194.703	0.09
195.088	0.12
195.473	0.28
195.859	0.17
196.244	0.31
196.629	0.02
197.014	0.14
197.399	0.19
197.784	0.1
198.169	0.28
198.554	0.15
198.939	0.15
199.324	0.05
199.709	0.05
200.094	0.07
200.478	0.11
200.863	0.11
201.248	0.18
201.633	0.12
202.017	0.09
202.402	0.27
202.787	0.17
203.171	0.17
203.556	0.11
203.94	0.08
204.325	0.17
204.709	0.15
205.093	0.03
205.478	0.17
205.862	-0.01
206.246	0.22
206.631	0.27
207.015	0.1
207.399	0.22
207.783	0.14
208.167	0.12
208.551	0.3
208.935	0.16
209.319	0.08
209.703	0.21
210.087	0.24
210.471	0.09
210.855	0.06
211.239	0.16
211.623	0.19
212.007	0.15
212.39	0.21
212.774	0.15
213.158	0.09
213.541	0.22
213.925	0.2
214.309	0.35
214.692	0.42
215.076	0.16
215.459	0.16
215.842	0.07
216.226	0.3
216.609	0.31
216.993	0.11
217.376	0.44
217.759	0.15
218.142	0.29
218.525	0.52
218.909	0.28
219.292	0.38
219.675	0.37
220.058	0.49
220.441	0.5
220.824	0.52
221.207	0.56
221.59	0.56
221.973	0.43
222.355	0.67
222.738	0.66
223.121	0.54
223.504	0.53
223.886	0.63
224.269	0.61
224.652	0.68
225.034	0.75
225.417	0.68
225.799	0.68
226.182	0.78
226.564	0.78
226.947	0.94
227.329	0.82
227.711	0.96
228.094	0.96
228.476	1.02
228.858	0.89
229.24	0.77
229.623	0.9
230.005	0.93
230.387	0.79
230.769	0.73
231.151	0.94
231.533	1
231.915	1.18
232.297	1.17
232.679	0.96
233.061	1.03
233.442	0.97
233.824	1.06
234.206	1.21
234.588	0.97
234.969	1.01
235.351	0.92
235.733	1.08
236.114	1.28
236.496	1.14
236.877	1.13
237.259	1.06
237.64	1.01
238.022	0.92
238.403	1
238.784	0.99
239.165	0.94
239.547	1.06
239.928	1.09
240.309	1.08
240.69	1.15
241.071	1.13
241.452	1.2
241.834	1.05
242.215	1.07
242.595	1.02
242.976	1.16
243.357	1.13
243.738	1.07
244.119	1.23
244.5	1.09
244.881	1.18
245.261	1.19
245.642	1.11
246.023	1.12
246.403	1.19
246.784	1.23
247.164	1.35
247.545	1.11
247.925	1.3
248.306	1.18
248.686	1.27
249.067	1.35
249.447	1.43
249.827	1.52
250.207	1.4
250.588	1.3
250.968	1.42
251.348	1.33
251.728	1.49
252.108	1.35
252.488	1.4
252.868	1.3
253.248	1.2
253.628	1.41
254.008	1.46
254.388	1.23
254.768	1.23
255.147	1.28
255.527	1.45
255.907	1.3
256.287	1.27
256.666	1.3
257.046	1.53
257.425	1.43
257.805	1.36
258.184	1.31
258.564	1.29
258.943	1.3
259.323	1.47
259.702	1.46
260.081	1.48
260.461	1.52
260.84	1.42
261.219	1.69
261.598	1.46
261.977	1.42
262.356	1.48
262.736	1.47
263.115	1.56
263.494	1.45
263.873	1.41
264.251	1.41
264.63	1.5
265.009	1.53
265.388	1.46
265.767	1.3
266.145	1.35
266.524	1.46
266.903	1.42
267.281	1.34
267.66	1.56
268.039	1.52
268.417	1.51
268.796	1.39
269.174	1.3
269.552	1.36
269.931	1.4
270.309	1.34
270.687	1.6
271.066	1.65
271.444	1.33
271.822	1.49
272.2	1.48
272.578	1.36
272.956	1.46
273.334	1.34
273.712	1.5
274.09	1.39
274.468	1.38
274.846	1.3
275.224	1.3
275.602	1.4
275.98	1.64
276.357	1.36
276.735	1.42
277.113	1.37
277.49	1.34
277.868	1.35
278.246	1.43
278.623	1.38
279.001	1.32
279.378	1.39
279.756	1.47
280.133	1.49
280.51	1.47
280.888	1.46
281.265	1.34
281.642	1.43
282.019	1.58
282.396	1.7
282.773	1.44
283.151	1.46
283.528	1.48
283.905	1.43
284.282	1.56
284.659	1.54
285.035	1.28
285.412	1.2
285.789	1.41
286.166	1.43
286.543	1.39
286.919	1.47
287.296	1.52
287.673	1.71
288.049	1.45
288.426	1.5
288.802	1.56
289.179	1.49
289.555	1.43
289.932	1.41
290.308	1.4
290.684	1.39
291.061	1.37
291.437	1.55
291.813	1.31
292.189	1.22
292.565	1.32
292.942	1.33
293.318	1.34
293.694	1.39
294.07	1.28
294.446	1.39
294.822	1.45
295.197	1.42
295.573	1.36
295.949	1.36
296.325	1.38
296.701	1.5
297.076	1.49
297.452	1.68
297.828	1.44
298.203	1.41
298.579	1.34
298.954	1.43
299.33	1.38
299.705	1.36
300.081	1.37
300.456	1.34
300.831	1.37
301.206	1.33
301.582	1.39
301.957	1.24
302.332	1.38
302.707	1.26
303.082	1.19
303.457	1.34
303.832	1.27
304.207	1.13
304.582	1.2
304.957	1.18
305.332	1.25
305.707	1.16
306.082	1.19
306.456	1.2
306.831	1.18
307.206	1.13
307.58	1.09
307.955	1.13
308.33	1.07
308.704	1.08
309.079	1.06
309.453	1.13
309.828	1.04
310.202	1.04
310.576	1.02
310.951	1.03
311.325	1
311.699	1
312.073	0.99
312.447	1.02
312.821	0.99
313.196	0.98
313.57	0.97
313.944	0.96
314.317	0.9
314.691	1
315.065	0.98
315.439	0.94
315.813	0.98
316.187	0.96
316.56	0.98
316.934	0.92
317.308	0.95
317.681	0.95
318.055	0.93
318.428	0.93
318.802	0.95
319.175	0.94
319.549	0.91
319.922	0.89
320.295	0.94
320.669	0.94
321.042	0.91
321.415	1.02
321.788	0.94
322.162	0.93
322.535	0.93
322.908	0.94
323.281	0.92
323.654	0.94
324.027	0.91
324.4	0.91
324.773	0.95
325.145	0.95
325.518	0.94
325.891	0.92
326.264	0.96
326.636	0.92
327.009	0.98
327.382	0.98
327.754	0.95
328.127	0.97
328.499	0.92
328.872	0.94
329.244	0.95
329.616	0.95
329.989	0.99
330.361	0.98
330.733	0.94
331.106	0.93
331.478	1
331.85	0.99
332.222	0.98
332.594	1.01
332.966	0.99
333.338	1.07
333.71	1.05
334.082	1.09
334.454	1
334.826	1.04
335.197	1.03
335.569	1.04
335.941	1.03
336.312	1.08
336.684	1.05
337.056	1.03
337.427	1.09
337.799	1.07
338.17	1.1
338.542	1.08
338.913	1.11
339.284	1.15
339.656	1.06
340.027	1.12
340.398	1.14
340.769	1.11
341.141	1.12
341.512	1.13
341.883	1.16
342.254	1.13
342.625	1.14
342.996	1.13
343.367	1.12
343.738	1.17
344.108	1.14
344.479	1.22
344.85	1.12
345.221	1.22
345.591	1.08
345.962	1.14
346.333	1.19
346.703	1.18
347.074	1.08
347.444	1.17
347.815	1.13
348.185	1.2
348.556	1.28
348.926	1.28
349.296	1.21
349.666	1.15
350.037	1.16
350.407	1.19
350.777	1.2
351.147	1.29
351.517	1.22
351.887	1.27
352.257	1.28
352.627	1.2
352.997	1.23
353.367	1.3
353.737	1.36
354.106	1.34
354.476	1.22
354.846	1.39
355.216	1.34
355.585	1.44
355.955	1.4
356.324	1.36
356.694	1.37
357.063	1.38
357.433	1.42
357.802	1.4
358.171	1.44
358.541	1.44
358.91	1.52
359.279	1.55
359.648	1.34
360.017	1.63
360.387	1.46
360.756	1.39
361.125	1.53
361.494	1.52
361.863	1.38
362.231	1.52
362.6	1.69
362.969	1.67
363.338	1.48
363.707	1.63
364.075	1.62
364.444	1.34
364.813	1.47
365.181	1.46
365.55	1.47
365.918	1.72
366.287	1.5
366.655	1.64
367.024	1.65
367.392	1.48
367.76	1.59
368.128	1.57
368.497	1.6
368.865	1.47
369.233	1.5
369.601	1.56
369.969	1.45
370.337	1.46
370.705	1.57
371.073	1.42
371.441	1.47
371.809	1.46
372.177	1.43
372.544	1.54
372.912	1.57
373.28	1.54
373.647	1.54
374.015	1.55
374.383	1.74
374.75	1.63
375.118	1.61
375.485	1.69
375.853	1.65
376.22	1.53
376.587	1.49
376.955	1.62
377.322	1.5
377.689	1.49
378.056	1.5
378.423	1.49
378.79	1.5
379.157	1.54
379.524	1.6
379.891	1.6
380.258	1.53
380.625	1.49
380.992	1.46
381.359	1.62
381.726	1.7
382.092	1.44
382.459	1.46
382.826	1.52
383.192	1.57
383.559	1.44
383.925	1.65
384.292	1.45
384.658	1.66
385.025	1.45
385.391	1.65
385.757	1.68
386.123	1.57
386.49	1.59
386.856	1.52
387.222	1.56
387.588	1.53
387.954	1.71
388.32	1.57
388.686	1.55
389.052	1.65
389.418	1.53
389.784	1.55
390.15	1.73
390.515	1.44
390.881	1.53
391.247	1.48
391.613	1.69
391.978	1.45
392.344	1.61
392.709	1.57
393.075	1.53
393.44	1.64
393.806	1.68
394.171	1.52
394.536	1.54
394.902	1.46
395.267	1.45
395.632	1.5
395.997	1.45
396.362	1.55
396.727	1.68
397.092	1.57
397.457	1.48
397.822	1.48
398.187	1.41
398.552	1.49
398.917	1.67
399.282	1.44
399.646	1.48
400.011	1.59
400.376	1.47
400.74	1.57
401.105	1.54
401.47	1.46
401.834	1.74
402.199	1.57
402.563	1.62
402.927	1.63
403.292	1.61
403.656	1.51
404.02	1.64
404.384	1.67
404.749	1.62
405.113	1.67
405.477	1.56
405.841	1.61
406.205	1.7
406.569	1.46
406.933	1.55
407.296	1.46
407.66	1.61
408.024	1.49
408.388	1.75
408.752	1.5
409.115	1.69
409.479	1.42
409.842	1.55
410.206	1.36
410.569	1.53
410.933	1.43
411.296	1.5
411.66	1.72
412.023	1.46
412.386	1.45
412.749	1.44
413.113	1.54
413.476	1.37
413.839	1.47
414.202	1.5
414.565	1.47
414.928	1.4
415.291	1.37
415.654	1.43
416.017	1.55
416.38	1.37
416.742	1.56
417.105	1.43
417.468	1.38
417.83	1.42
418.193	1.54
418.556	1.36
418.918	1.37
419.281	1.4
419.643	1.48
420.005	1.41
420.368	1.44
420.73	1.36
421.092	1.48
421.455	1.62
421.817	1.32
422.179	1.45
422.541	1.53
422.903	1.53
423.265	1.52
423.627	1.57
423.989	1.47
424.351	1.48
424.713	1.5
425.075	1.47
425.436	1.51
425.798	1.54
426.16	1.48
426.521	1.5
426.883	1.48
427.245	1.5
427.606	1.38
427.967	1.47
428.329	1.45
428.69	1.54
429.052	1.4
429.413	1.54
429.774	1.58
430.135	1.47
430.497	1.6
430.858	1.46
431.219	1.49
431.58	1.4
431.941	1.39
432.302	1.4
432.663	1.44
433.024	1.61
433.384	1.53
433.745	1.42
434.106	1.56
434.467	1.41
434.827	1.42
435.188	1.43
435.548	1.61
435.909	1.41
436.269	1.47
436.63	1.42
436.99	1.37
437.351	1.33
437.711	1.44
438.071	1.35
438.431	1.51
438.792	1.39
439.152	1.37
439.512	1.39
439.872	1.35
440.232	1.46
440.592	1.41
440.952	1.43
441.312	1.28
441.671	1.38
442.031	1.34
442.391	1.3
442.751	1.34
443.11	1.38
443.47	1.34
443.83	1.3
444.189	1.31
444.549	1.31
444.908	1.36
445.267	1.31
445.627	1.3
445.986	1.27
446.345	1.22
446.705	1.36
447.064	1.32
447.423	1.26
447.782	1.26
448.141	1.3
448.5	1.19
448.859	1.21
449.218	1.25
449.577	1.31
449.936	1.22
450.295	1.22
450.653	1.22
451.012	1.23
451.371	1.2
451.729	1.14
452.088	1.19
452.447	1.16
452.805	1.2
453.163	1.18
453.522	1.15
453.88	1.12
454.239	1.15
454.597	1.1
454.955	1.09
455.313	1.11
455.671	1.1
456.029	1.09
456.388	1.05
456.746	1.06
457.104	1.04
457.461	1.03
457.819	1.02
458.177	1
458.535	0.97
458.893	0.97
459.25	0.97
459.608	0.96
459.966	0.93
460.323	0.92
460.681	0.92
461.038	0.9
461.396	0.91
461.753	0.89
462.111	0.87
462.468	0.86
462.825	0.85
463.182	0.84
463.54	0.82
463.897	0.82
464.254	0.81
464.611	0.8
464.968	0.78
465.325	0.77
465.682	0.77
466.039	0.75
466.395	0.73
466.752	0.73
467.109	0.7
467.466	0.71
467.822	0.71
468.179	0.68
468.535	0.67
468.892	0.66
469.248	0.65
469.605	0.65
469.961	0.64
470.318	0.64
470.674	0.62
471.03	0.61
471.386	0.6
471.743	0.57
472.099	0.57
472.455	0.57
472.811	0.55
473.167	0.54
473.523	0.54
473.879	0.53
474.235	0.53
474.59	0.51
474.946	0.5
475.302	0.49
475.657	0.49
476.013	0.47
476.369	0.45
476.724	0.47
477.08	0.45
477.435	0.45
477.791	0.45
478.146	0.43
478.501	0.42
478.857	0.43
479.212	0.42
479.567	0.41
479.922	0.4
480.277	0.39
480.632	0.38
480.987	0.38
481.342	0.37
481.697	0.36
482.052	0.36
482.407	0.34
482.762	0.34
483.116	0.33
483.471	0.32
483.826	0.32
484.18	0.31
484.535	0.3
484.89	0.3
485.244	0.3
485.598	0.3
485.953	0.28
486.307	0.28
486.661	0.28
487.016	0.27
487.37	0.28
487.724	0.27
488.078	0.26
488.432	0.26
488.786	0.25
489.14	0.25
489.494	0.24
489.848	0.24
490.202	0.23
490.556	0.24
490.91	0.23
491.263	0.23
491.617	0.23
491.971	0.22
492.324	0.21
492.678	0.22
493.031	0.21
493.385	0.2
493.738	0.2
494.091	0.19
494.445	0.2
494.798	0.19
495.151	0.19
495.504	0.18
495.857	0.19
496.21	0.19
496.564	0.18
496.916	0.19
497.269	0.18
497.622	0.18
497.975	0.17
498.328	0.18
498.681	0.18
499.033	0.17
499.386	0.16
499.739	0.16
500.091	0.15
500.444	0.15
500.796	0.16
501.149	0.15
501.501	0.15
501.854	0.15
502.206	0.15
502.558	0.15
502.91	0.15
503.263	0.14
503.615	0.15
503.967	0.14
504.319	0.15
504.671	0.14
505.023	0.14
505.375	0.13
505.726	0.13
506.078	0.14
506.43	0.13
506.782	0.12
507.133	0.13
507.485	0.13
507.837	0.13
508.188	0.13
508.54	0.13
508.891	0.13
509.243	0.12
509.594	0.13
509.945	0.13
510.296	0.12
510.648	0.12
510.999	0.12
511.35	0.12
511.701	0.12
512.052	0.12
512.403	0.12
512.754	0.11
513.105	0.12
513.456	0.11
513.807	0.11
514.157	0.12
514.508	0.11
514.859	0.11
515.209	0.11
515.56	0.11
515.91	0.1
516.261	0.1
516.611	0.1
516.962	0.1
517.312	0.11
517.662	0.1
518.013	0.1
518.363	0.11
518.713	0.11
519.063	0.11
519.413	0.11
519.763	0.1
520.113	0.1
520.463	0.11
520.813	0.11
521.163	0.11
521.512	0.11
521.862	0.1
522.212	0.11
522.562	0.1
522.911	0.11
523.261	0.1
523.61	0.11
523.96	0.1
524.309	0.1
524.658	0.11
525.008	0.1
525.357	0.1
525.706	0.11
526.056	0.1
526.405	0.11
526.754	0.11
527.103	0.1
527.452	0.1
527.801	0.1
528.15	0.1
528.499	0.1
528.847	0.1
529.196	0.1
529.545	0.11
529.893	0.11
530.242	0.11
530.591	0.12
530.939	0.12
531.288	0.11
531.636	0.11
531.985	0.11
532.333	0.11
532.681	0.11
533.029	0.11
533.378	0.11
533.726	0.1
534.074	0.11
534.422	0.1
534.77	0.11
535.118	0.11
535.466	0.1
535.814	0.1
536.162	0.11
536.509	0.11
536.857	0.1
537.205	0.12
537.552	0.1
537.9	0.11
538.248	0.11
538.595	0.11
538.943	0.11
539.29	0.11
539.637	0.1
539.985	0.1
540.332	0.1
540.679	0.09
541.026	0.1
541.373	0.1
541.721	0.09
542.068	0.1
542.415	0.09
542.762	0.1
543.108	0.1
543.455	0.09
543.802	0.09
544.149	0.1
544.496	0.09
544.842	0.09
545.189	0.09
545.535	0.09
545.882	0.1
546.228	0.09
546.575	0.09
546.921	0.09
547.267	0.09
547.614	0.09
547.96	0.09
548.306	0.1
548.652	0.1
548.998	0.11
549.344	0.09
549.69	0.11
550.036	0.1
550.382	0.1
550.728	0.1
551.074	0.11
551.42	0.1
551.765	0.1
552.111	0.1
552.457	0.11
552.802	0.1
553.148	0.1
553.493	0.1
553.839	0.1
554.184	0.11
554.529	0.1
554.875	0.1
555.22	0.11
555.565	0.11
555.91	0.1
556.255	0.11
556.6	0.1
556.945	0.1
557.29	0.11
557.635	0.11
557.98	0.11
558.325	0.1
558.67	0.1
559.014	0.1
559.359	0.11
559.704	0.1
560.048	0.1
560.393	0.1
560.737	0.09
561.082	0.1
561.426	0.09
561.77	0.1
562.115	0.09
562.459	0.09
562.803	0.09
563.147	0.09
563.491	0.09
563.835	0.1
564.179	0.1
564.523	0.09
564.867	0.09
565.211	0.09
565.555	0.1
565.899	0.1
566.242	0.1
566.586	0.09
566.93	0.1
567.273	0.1
567.617	0.11
567.96	0.1
568.304	0.11
568.647	0.09
568.99	0.1
569.334	0.11
569.677	0.1
570.02	0.11
570.363	0.1
570.706	0.1
571.049	0.1
571.392	0.1
571.735	0.1
572.078	0.1
572.421	0.11
572.764	0.09
573.106	0.1
573.449	0.09
573.792	0.09
574.134	0.1
574.477	0.1
574.819	0.1
575.162	0.1
575.504	0.1
575.847	0.1
576.189	0.1
576.531	0.1
576.873	0.1
577.215	0.1
577.558	0.1
577.9	0.1
578.242	0.09
578.584	0.1
578.926	0.09
579.267	0.09
579.609	0.09
579.951	0.1
580.293	0.09
580.634	0.1
580.976	0.1
581.318	0.09
581.659	0.09
582.001	0.09
582.342	0.09
582.683	0.09
583.025	0.09
583.366	0.09
583.707	0.1
584.049	0.09
584.39	0.09
584.731	0.09
585.072	0.09
585.413	0.1
585.754	0.09
586.095	0.1
586.435	0.09
586.776	0.1
587.117	0.1
587.458	0.1
587.798	0.1
588.139	0.1
588.48	0.1
588.82	0.09
589.161	0.09
589.501	0.09
589.841	0.1
590.182	0.09
590.522	0.09
590.862	0.09
591.202	0.09
591.542	0.09
591.882	0.1
592.222	0.09
592.562	0.1
592.902	0.1
593.242	0.09
593.582	0.1
593.922	0.1
594.261	0.09
594.601	0.09
594.941	0.09
595.28	0.1
595.62	0.09
595.959	0.09
596.299	0.1
596.638	0.09
596.977	0.09
597.317	0.09
597.656	0.09
597.995	0.09
598.334	0.09
598.673	0.09
599.012	0.09
599.351	0.09
599.69	0.09
600.029	0.09
600.368	0.09
600.707	0.09
601.046	0.08
601.384	0.09
601.723	0.09
602.061	0.08
602.4	0.1
602.738	0.09
603.077	0.09
603.415	0.09
603.754	0.09
604.092	0.1
604.43	0.08
604.768	0.09
605.107	0.1
605.445	0.09
605.783	0.08
606.121	0.08
606.459	0.09
606.796	0.09
607.134	0.09
607.472	0.09
607.81	0.09
608.148	0.09
608.485	0.09
608.823	0.09
609.16	0.09
609.498	0.1
609.835	0.09
610.173	0.09
610.51	0.09
610.847	0.09
611.185	0.1
611.522	0.1
611.859	0.1
612.196	0.1
612.533	0.1
612.87	0.1
613.207	0.1
613.544	0.1
613.881	0.11
614.217	0.1
614.554	0.1
614.891	0.1
615.228	0.1
615.564	0.11
615.901	0.11
616.237	0.1
616.574	0.11
616.91	0.11
617.246	0.11
617.583	0.11
617.919	0.11
618.255	0.11
618.591	0.1
618.927	0.11
619.263	0.11
619.599	0.1
619.935	0.1
620.271	0.1
620.607	0.11
620.943	0.11
621.279	0.1
621.614	0.1
621.95	0.1
622.286	0.09
622.621	0.1
622.957	0.09
623.292	0.09
623.627	0.09
623.963	0.09
624.298	0.1
624.633	0.09
624.968	0.09
625.304	0.09
625.639	0.08
625.974	0.09
626.309	0.08
626.644	0.09
626.979	0.1
627.313	0.09
627.648	0.09
627.983	0.09
628.318	0.09
628.652	0.08
628.987	0.09
629.321	0.1
629.656	0.09
629.99	0.08
630.325	0.09
630.659	0.09
630.993	0.09
631.327	0.09
631.662	0.08
631.996	0.08
632.33	0.09
632.664	0.09
632.998	0.08
633.332	0.08
633.666	0.08
633.999	0.08
634.333	0.08
634.667	0.08
635.001	0.08
635.334	0.08
635.668	0.08
636.001	0.08
636.335	0.08
636.668	0.07
637.001	0.07
637.335	0.07
637.668	0.08
638.001	0.08
638.334	0.08
638.668	0.07
639.001	0.08
639.334	0.07
639.667	0.08
639.999	0.07
640.332	0.08
640.665	0.08
640.998	0.08
641.331	0.08
641.663	0.07
641.996	0.08
642.328	0.08
642.661	0.08
642.993	0.08
643.326	0.08
643.658	0.08
643.99	0.08
644.323	0.08
644.655	0.08
644.987	0.08
645.319	0.09
645.651	0.09
645.983	0.08
646.315	0.07
646.647	0.08
646.979	0.09
647.31	0.09
647.642	0.09
647.974	0.08
648.305	0.09
648.637	0.09
648.968	0.09
649.3	0.09
649.631	0.08
649.963	0.08
650.294	0.09
650.625	0.08
650.957	0.09
651.288	0.08
651.619	0.08
651.95	0.09
652.281	0.08
652.612	0.08
652.943	0.08
653.274	0.09
653.604	0.09
653.935	0.08
654.266	0.08
654.596	0.08
654.927	0.08
655.258	0.09
655.588	0.09
655.918	0.08
656.249	0.06
656.579	0.08
656.909	0.08
657.24	0.09
657.57	0.08
657.9	0.08
658.23	0.09
658.56	0.09
658.89	0.08
659.22	0.08
659.55	0.09
659.88	0.09
660.209	0.09
660.539	0.09
660.869	0.09
661.198	0.09
661.528	0.09
661.857	0.09
662.187	0.09
662.516	0.09
662.846	0.08
663.175	0.08
663.504	0.08
663.833	0.08
664.163	0.08
664.492	0.08
664.821	0.08
665.15	0.08
665.479	0.09
665.807	0.08
666.136	0.09
666.465	0.08
666.794	0.08
667.122	0.08
667.451	0.08
667.78	0.08
668.108	0.08
668.437	0.08
668.765	0.08
669.093	0.08
669.422	0.08
669.75	0.08
670.078	0.08
670.406	0.09
670.734	0.08
671.062	0.08
671.39	0.08
671.718	0.08
672.046	0.08
672.374	0.08
672.702	0.08
673.029	0.08
673.357	0.08
673.685	0.09
674.012	0.08
674.34	0.08
674.667	0.09
674.995	0.08
675.322	0.08
675.649	0.07
675.977	0.08
676.304	0.08
676.631	0.08
676.958	0.08
677.285	0.07
677.612	0.07
677.939	0.07
678.266	0.07
678.593	0.07
678.92	0.07
679.246	0.07
679.573	0.06
679.9	0.06
680.226	0.07
680.553	0.07
680.879	0.07
681.206	0.07
681.532	0.07
681.858	0.07
682.184	0.06
682.511	0.07
682.837	0.07
683.163	0.07
683.489	0.07
683.815	0.06
684.141	0.07
684.467	0.07
684.793	0.06
685.118	0.07
685.444	0.07
685.77	0.07
686.095	0.07
686.421	0.07
686.746	0.07
687.072	0.07
687.397	0.07
687.723	0.07
688.048	0.08
688.373	0.07
688.698	0.07
689.023	0.07
689.349	0.07
689.674	0.07
689.999	0.07
690.323	0.06
690.648	0.05
690.973	0.05
691.298	0.06
691.623	0.06
691.947	0.06
692.272	0.05
692.596	0.06
692.921	0.06
693.245	0.05
693.57	0.06
693.894	0.06
694.218	0.06
694.543	0.06
694.867	0.06
695.191	0.06
695.515	0.06
695.839	0.06
696.163	0.06
696.487	0.06
696.811	0.05
697.135	0.06
697.458	0.06
697.782	0.06
698.106	0.06
698.429	0.06
698.753	0.06
699.076	0.06
699.4	0.06
699.723	0.07
700.046	0.06
700.37	0.06
700.693	0.06
701.016	0.06
701.339	0.07
701.662	0.06
701.985	0.06
702.308	0.06
702.631	0.06
702.954	0.07
703.277	0.06
703.599	0.06
703.922	0.06
704.245	0.06
704.567	0.06
704.89	0.06
705.212	0.06
705.535	0.05
705.857	0.06
706.179	0.06
706.502	0.05
706.824	0.05
707.146	0.05
707.468	0.06
707.79	0.06
708.112	0.06
708.434	0.06
708.756	0.06
709.078	0.06
709.399	0.06
709.721	0.05
710.043	0.06
710.364	0.06
710.686	0.06
711.007	0.06
711.329	0.05
711.65	0.07
711.972	0.06
712.293	0.06
712.614	0.06
712.935	0.06
713.256	0.06
713.577	0.07
713.898	0.05
714.219	0.05
714.54	0.04
714.861	0.05
715.182	0.05
715.503	0.05
715.823	0.05
716.144	0.05
716.464	0.05
716.785	0.05
717.105	0.05
717.426	0.06
717.746	0.04
718.066	0.04
718.387	0.05
718.707	0.04
719.027	0.05
719.347	0.04
719.667	0.05
719.987	0.04
720.307	0.03
720.627	0.04
720.947	0.04
721.266	0.03
721.586	0.03
721.906	0.03
722.225	0.03
722.545	0.04
722.864	0.03
723.184	0.05
723.503	0.03
723.823	0.04
724.142	0.03
724.461	0.04
724.78	0.04
725.099	0.04
725.418	0.04
725.737	0.03
726.056	0.04
726.375	0.05
726.694	0.04
727.013	0.04
727.331	0.03
727.65	0.04
727.969	0.04
728.287	0.04
728.606	0.04
728.924	0.03
729.242	0.04
729.561	0.04
729.879	0.04
730.197	0.04
730.515	0.03
730.834	0.04
731.152	0.04
731.47	0.04
731.788	0.04
732.105	0.03
732.423	0.03
732.741	0.04
733.059	0.03
733.376	0.04
733.694	0.03
734.012	0.04
734.329	0.04
734.647	0.03
734.964	0.04
735.281	0.04
735.599	0.04
735.916	0.04
736.233	0.04
736.55	0.04
736.867	0.04
737.184	0.05
737.501	0.04
737.818	0.04
738.135	0.05
738.452	0.04
738.768	0.05
739.085	0.05
739.402	0.03
739.718	0.04
740.035	0.04
740.351	0.04
740.668	0.05
740.984	0.03
741.3	0.04
741.617	0.05
741.933	0.04
742.249	0.04
742.565	0.04
742.881	0.06
743.197	0.05
743.513	0.04
743.829	0.04
744.144	0.04
744.46	0.04
744.776	0.05
745.091	0.05
745.407	0.05
745.722	0.04
746.038	0.04
746.353	0.04
746.669	0.05
746.984	0.04
747.299	0.05
747.614	0.05
747.93	0.05
748.245	0.04
748.56	0.04
748.875	0.04
749.189	0.04
749.504	0.04
749.819	0.05
750.134	0.04
750.448	0.04
750.763	0.05
751.078	0.04
751.392	0.05
751.707	0.04
752.021	0.05
752.335	0.05
752.65	0.05
752.964	0.04
753.278	0.05
753.592	0.04
753.906	0.04
754.22	0.05
754.534	0.05
754.848	0.05
755.162	0.05
755.476	0.05
755.789	0.05
756.103	0.04
756.417	0.05
756.73	0.05
757.044	0.05
757.357	0.05
757.671	0.05
757.984	0.04
758.297	0.05
758.61	0.05
758.924	0.05
759.237	0.04
759.55	0.05
759.863	0.04
760.176	0.05
760.488	0.05
760.801	0.05
761.114	0.04
761.427	0.04
761.739	0.04
762.052	0.04
762.365	0.04
762.677	0.04
762.99	0.03
763.302	0.04
763.614	0.04
763.926	0.05
764.239	0.04
764.551	0.04
764.863	0.04
765.175	0.04
765.487	0.04
765.799	0.03
766.111	0.03
766.423	0.04
766.734	0.04
767.046	0.04
767.358	0.03
767.669	0.03
767.981	0.03
768.292	0.03
768.604	0.04
768.915	0.03
769.226	0.03
769.537	0.02
769.849	0.04
770.16	0.03
770.471	0.02
770.782	0.03
771.093	0.03
771.404	0.02
771.715	0.03
772.025	0.03
772.336	0.03
772.647	0.02
772.957	0.03
773.268	0.03
773.578	0.02
773.889	0.04
774.199	0.04
774.51	0.03
774.82	0.03
775.13	0.03
775.44	0.04
775.75	0.04
776.06	0.03
776.37	0.02
776.68	0.03
776.99	0.03
777.3	0.02
777.61	0.04
777.92	0.03
778.229	0.02
778.539	0.03
778.848	0.04
779.158	0.04
779.467	0.04
779.777	0.03
780.086	0.04
780.395	0.04
780.704	0.03
781.013	0.03
781.323	0.03
781.632	0.03
781.941	0.04
782.249	0.04
782.558	0.03
782.867	0.04
783.176	0.02
783.485	0.03
783.793	0.04
784.102	0.03
784.41	0.03
784.719	0.02
785.027	0.03
785.335	0.03
785.644	0.03
785.952	0.03
786.26	0.04
786.568	0.03
786.876	0.03
787.184	0.03
787.492	0.03
787.8	0.02
788.108	0.03
788.416	0.02
788.723	0.03
789.031	0.02
789.338	0.03
789.646	0.03
789.953	0.03
790.261	0.03
790.568	0.04
790.876	0.03
791.183	0.03
791.49	0.02
791.797	0.03
792.104	0.02
792.411	0.04
792.718	0.03
793.025	0.03
793.332	0.04
793.639	0.04
793.945	0.04
794.252	0.04
794.559	0.04
794.865	0.04
795.172	0.04
795.478	0.04
795.784	0.04
796.091	0.05
796.397	0.05
796.703	0.04
797.009	0.04
797.315	0.04
797.622	0.04
797.927	0.04
798.233	0.03
798.539	0.04
798.845	0.04
799.151	0.04
799.456	0.04
799.762	0.03
800.068	0.03
800.373	0.04
800.679	0.03
800.984	0.03
801.289	0.03
801.595	0.03
801.9	0.03
802.205	0.02
802.51	0.03
802.815	0.03
803.12	0.03
803.425	0.03
803.73	0.03
804.035	0.03
804.339	0.02
804.644	0.03
804.949	0.03
805.253	0.03
805.558	0.03
805.862	0.03
806.167	0.03
806.471	0.03
806.775	0.04
807.08	0.04
807.384	0.03
807.688	0.04
807.992	0.04
808.296	0.04
808.6	0.03
808.904	0.04
809.207	0.03
809.511	0.04
809.815	0.04
810.119	0.04
810.422	0.04
810.726	0.05
811.029	0.05
811.332	0.04
811.636	0.05
811.939	0.04
812.242	0.04
812.546	0.05
812.849	0.04
813.152	0.05
813.455	0.05
813.758	0.05
814.06	0.04
814.363	0.04
814.666	0.04
814.969	0.05
815.271	0.04
815.574	0.03
815.877	0.04
816.179	0.03
816.481	0.03
816.784	0.04
817.086	0.03
817.388	0.03
817.69	0.03
817.993	0.02
818.295	0.02
818.597	0.02
818.899	0.02
819.2	0.02
819.502	0.02
819.804	0.02
820.106	0.02
820.407	0.02
820.709	0.03
821.01	0.02
821.312	0.03
821.613	0.02
821.915	0.03
822.216	0.02
822.517	0.02
822.818	0.03
823.119	0.03
823.42	0.03
823.721	0.02
824.022	0.02
824.323	0.03
824.624	0.02
824.925	0.03
825.226	0.04
825.526	0.02
825.827	0.03
826.127	0.03
826.428	0.03
826.728	0.02
827.028	0.03
827.329	0.02
827.629	0.02
827.929	0.03
828.229	0.03
828.529	0.03
828.829	0.03
829.129	0.02
829.429	0.03
829.729	0.02
830.029	0.02
830.328	0.02
830.628	0.02
830.927	0.01
831.227	0.02
831.526	0.02
831.826	0.02
832.125	0.01
832.424	0.01
832.724	0.02
833.023	0.02
833.322	0.02
833.621	0.02
833.92	0.01
834.219	0.02
834.518	0.02
834.816	0.01
835.115	0.01
835.414	0.01
835.712	0.01
836.011	0.01
836.309	0.01
836.608	0.01
836.906	-0
837.205	0
837.503	0.01
837.801	0
838.099	-0
838.397	-0.01
838.695	-0.01
838.993	-0.01
839.291	-0.01
839.589	-0.01
839.887	-0.01
840.184	-0.02
840.482	-0.03
840.78	-0.02
841.077	-0.03
841.375	-0.03
841.672	-0.03
841.969	-0.04
842.267	-0.03
842.564	-0.03
842.861	-0.03
843.158	-0.04
843.455	-0.06
843.752	-0.05
844.049	-0.05
844.346	-0.04
844.643	-0.05
844.94	-0.05
845.236	-0.04
845.533	-0.04
845.83	-0.05
846.126	-0.05
846.423	-0.05
846.719	-0.06
847.015	-0.05
847.312	-0.06
847.608	-0.06
847.904	-0.06
848.2	-0.06
848.496	-0.06
848.792	-0.06
849.088	-0.05
849.384	-0.06
849.68	-0.07
849.975	-0.07
850.271	-0.07
850.567	-0.07
850.862	-0.07
851.158	-0.07
851.453	-0.07
851.748	-0.08
852.044	-0.07
852.339	-0.07
852.634	-0.09
852.929	-0.06
853.224	-0.08
853.519	-0.08
853.814	-0.08
854.109	-0.08
854.404	-0.08
854.699	-0.09
854.994	-0.09
855.288	-0.08
855.583	-0.08
855.877	-0.09
856.172	-0.08
856.466	-0.1
856.76	-0.09
857.055	-0.1
857.349	-0.1
857.643	-0.1
857.937	-0.11
858.231	-0.11
858.525	-0.11
858.819	-0.11
859.113	-0.11
859.407	-0.12
859.701	-0.12
859.994	-0.12
860.288	-0.1
860.581	-0.11
860.875	-0.11
861.168	-0.12
861.462	-0.13
861.755	-0.11
862.048	-0.12
862.341	-0.12
862.634	-0.13
862.928	-0.13
863.221	-0.12
863.513	-0.14
863.806	-0.13
864.099	-0.13
864.392	-0.13
864.685	-0.12
864.977	-0.12
865.27	-0.12
865.562	-0.14
865.855	-0.13
866.147	-0.13
866.44	-0.12
866.732	-0.13
867.024	-0.14
867.316	-0.14
867.608	-0.15
867.9	-0.14
868.192	-0.14
868.484	-0.14
868.776	-0.15
869.068	-0.16
869.359	-0.15
869.651	-0.15
869.943	-0.16
870.234	-0.16
870.526	-0.16
870.817	-0.15
871.108	-0.14
871.4	-0.15
871.691	-0.16
871.982	-0.16
872.273	-0.17
872.564	-0.15
872.855	-0.16
873.146	-0.16
873.437	-0.16
873.728	-0.18
874.019	-0.17
874.309	-0.17
874.6	-0.17
874.89	-0.18
875.181	-0.18
875.471	-0.17
875.762	-0.16
876.052	-0.17
876.342	-0.16
876.632	-0.18
876.922	-0.17
877.213	-0.18
877.503	-0.19
877.792	-0.18
878.082	-0.19
878.372	-0.17
878.662	-0.19
878.952	-0.19
879.241	-0.19
879.531	-0.18
879.82	-0.19
880.11	-0.17
880.399	-0.18
880.688	-0.17
880.978	-0.17
881.267	-0.17
