Data from 12-12-AQDScycling_Absorbance__732__00732.txt Node

Date: Tue Dec 12 13:59:44 EST 2023
User: kyuminlee
Spectrometer: FLMS00943
Trigger mode: 0
Integration Time (sec): 1.000000E-1
Scans to average: 1
Electric dark correction enabled: true
Nonlinearity correction enabled: false
Boxcar width: 0
XAxis mode: Wavelengths
Number of Pixels in Spectrum: 2048
>>>>>Begin Spectral Data<<<<<
179.651	-0
180.037	-0
180.424	-0
180.81	-0
181.197	0.28
181.583	-0
181.97	-0.2
182.356	-0
182.743	-0
183.129	0.22
183.515	0.19
183.901	-1.2
184.288	1.16
184.674	-0
185.06	0.01
185.446	-0.44
185.832	-0
186.218	0.43
186.604	-0.06
186.99	-0
187.376	0.98
187.762	-0
188.148	0.06
188.534	-0.04
188.92	0.19
189.305	0.17
189.691	0.17
190.077	0.27
190.463	0.14
190.848	0.02
191.234	0.04
191.619	0.04
192.005	0.14
192.391	0.13
192.776	0.14
193.161	0.19
193.547	0.25
193.932	0.03
194.318	0.05
194.703	0.27
195.088	0.24
195.473	0.18
195.859	0.2
196.244	0.09
196.629	0.17
197.014	0.21
197.399	0.13
197.784	0.25
198.169	0.05
198.554	0.22
198.939	0.11
199.324	0.05
199.709	0.01
200.094	0.1
200.478	0.11
200.863	0.22
201.248	0.15
201.633	0.06
202.017	0.19
202.402	0.38
202.787	0.22
203.171	0.36
203.556	0.15
203.94	0.13
204.325	0.38
204.709	0.14
205.093	0.22
205.478	0.2
205.862	0.15
206.246	0.13
206.631	0.21
207.015	0.16
207.399	0.33
207.783	0.24
208.167	0.17
208.551	0.21
208.935	0.16
209.319	0.13
209.703	0.09
210.087	0.37
210.471	0.07
210.855	0.16
211.239	0.17
211.623	0.25
212.007	0.33
212.39	0.28
212.774	0.18
213.158	0.15
213.541	0.27
213.925	0.34
214.309	0.35
214.692	0.18
215.076	0.27
215.459	0.16
215.842	0.07
216.226	0.2
216.609	0.36
216.993	0.2
217.376	0.43
217.759	0.24
218.142	0.33
218.525	0.88
218.909	0.26
219.292	0.29
219.675	0.6
220.058	0.36
220.441	0.42
220.824	0.58
221.207	0.44
221.59	0.55
221.973	0.56
222.355	0.68
222.738	0.65
223.121	0.64
223.504	0.56
223.886	0.78
224.269	0.64
224.652	0.73
225.034	0.83
225.417	0.67
225.799	0.73
226.182	0.9
226.564	0.79
226.947	0.68
227.329	0.89
227.711	1
228.094	0.9
228.476	0.96
228.858	0.73
229.24	0.75
229.623	0.88
230.005	0.89
230.387	0.86
230.769	0.8
231.151	0.93
231.533	0.93
231.915	0.89
232.297	0.91
232.679	0.95
233.061	1
233.442	1.14
233.824	1.13
234.206	1.16
234.588	1.01
234.969	1.2
235.351	0.96
235.733	1.07
236.114	1.17
236.496	1.06
236.877	1.11
237.259	0.89
237.64	1.1
238.022	1.03
238.403	1.03
238.784	0.92
239.165	0.88
239.547	1
239.928	1.17
240.309	1.07
240.69	1.07
241.071	1.12
241.452	1.09
241.834	0.92
242.215	1.03
242.595	1.09
242.976	1.11
243.357	1.3
243.738	1.03
244.119	1.32
244.5	1.16
244.881	1.17
245.261	1.25
245.642	1.26
246.023	1.23
246.403	1.25
246.784	1.38
247.164	1.18
247.545	1.4
247.925	1.28
248.306	1.29
248.686	1.35
249.067	1.28
249.447	1.48
249.827	1.59
250.207	1.42
250.588	1.19
250.968	1.34
251.348	1.33
251.728	1.46
252.108	1.46
252.488	1.47
252.868	1.34
253.248	1.54
253.628	1.32
254.008	1.44
254.388	1.27
254.768	1.32
255.147	1.41
255.527	1.39
255.907	1.3
256.287	1.42
256.666	1.39
257.046	1.52
257.425	1.47
257.805	1.35
258.184	1.31
258.564	1.43
258.943	1.38
259.323	1.43
259.702	1.45
260.081	1.42
260.461	1.39
260.84	1.42
261.219	1.63
261.598	1.58
261.977	1.47
262.356	1.63
262.736	1.46
263.115	1.58
263.494	1.35
263.873	1.4
264.251	1.38
264.63	1.49
265.009	1.42
265.388	1.42
265.767	1.41
266.145	1.42
266.524	1.5
266.903	1.44
267.281	1.33
267.66	1.65
268.039	1.51
268.417	1.45
268.796	1.26
269.174	1.5
269.552	1.46
269.931	1.46
270.309	1.52
270.687	1.52
271.066	1.61
271.444	1.4
271.822	1.44
272.2	1.45
272.578	1.4
272.956	1.42
273.334	1.39
273.712	1.52
274.09	1.64
274.468	1.36
274.846	1.43
275.224	1.44
275.602	1.47
275.98	1.68
276.357	1.44
276.735	1.38
277.113	1.42
277.49	1.41
277.868	1.36
278.246	1.49
278.623	1.29
279.001	1.35
279.378	1.44
279.756	1.38
280.133	1.5
280.51	1.34
280.888	1.48
281.265	1.35
281.642	1.34
282.019	1.54
282.396	1.53
282.773	1.39
283.151	1.57
283.528	1.51
283.905	1.49
284.282	1.61
284.659	1.73
285.035	1.26
285.412	1.29
285.789	1.48
286.166	1.5
286.543	1.47
286.919	1.54
287.296	1.46
287.673	1.73
288.049	1.52
288.426	1.72
288.802	1.5
289.179	1.49
289.555	1.63
289.932	1.41
290.308	1.4
290.684	1.38
291.061	1.45
291.437	1.53
291.813	1.28
292.189	1.36
292.565	1.27
292.942	1.35
293.318	1.32
293.694	1.48
294.07	1.36
294.446	1.49
294.822	1.55
295.197	1.44
295.573	1.46
295.949	1.49
296.325	1.48
296.701	1.55
297.076	1.6
297.452	1.58
297.828	1.58
298.203	1.62
298.579	1.43
298.954	1.5
299.33	1.4
299.705	1.39
300.081	1.37
300.456	1.57
300.831	1.58
301.206	1.37
301.582	1.56
301.957	1.53
302.332	1.61
302.707	1.45
303.082	1.42
303.457	1.56
303.832	1.5
304.207	1.48
304.582	1.57
304.957	1.45
305.332	1.51
305.707	1.55
306.082	1.52
306.456	1.62
306.831	1.38
307.206	1.57
307.58	1.42
307.955	1.45
308.33	1.51
308.704	1.49
309.079	1.44
309.453	1.66
309.828	1.53
310.202	1.58
310.576	1.37
310.951	1.53
311.325	1.44
311.699	1.53
312.073	1.41
312.447	1.52
312.821	1.45
313.196	1.57
313.57	1.42
313.944	1.48
314.317	1.45
314.691	1.68
315.065	1.48
315.439	1.63
315.813	1.49
316.187	1.39
316.56	1.7
316.934	1.6
317.308	1.49
317.681	1.46
318.055	1.54
318.428	1.59
318.802	1.55
319.175	1.49
319.549	1.58
319.922	1.38
320.295	1.52
320.669	1.7
321.042	1.48
321.415	1.83
321.788	1.56
322.162	1.56
322.535	1.75
322.908	1.57
323.281	1.54
323.654	1.7
324.027	1.43
324.4	1.53
324.773	1.53
325.145	1.57
325.518	1.37
325.891	1.4
326.264	1.5
326.636	1.56
327.009	1.39
327.382	1.45
327.754	1.55
328.127	1.44
328.499	1.57
328.872	1.5
329.244	1.59
329.616	1.48
329.989	1.44
330.361	1.59
330.733	1.5
331.106	1.38
331.478	1.48
331.85	1.5
332.222	1.47
332.594	1.46
332.966	1.57
333.338	1.67
333.71	1.46
334.082	1.66
334.454	1.43
334.826	1.55
335.197	1.6
335.569	1.43
335.941	1.52
336.312	1.4
336.684	1.63
337.056	1.57
337.427	1.51
337.799	1.61
338.17	1.53
338.542	1.46
338.913	1.46
339.284	1.62
339.656	1.52
340.027	1.56
340.398	1.62
340.769	1.59
341.141	1.66
341.512	1.48
341.883	1.65
342.254	1.46
342.625	1.47
342.996	1.42
343.367	1.5
343.738	1.6
344.108	1.41
344.479	1.55
344.85	1.36
345.221	1.57
345.591	1.38
345.962	1.43
346.333	1.73
346.703	1.29
347.074	1.35
347.444	1.32
347.815	1.36
348.185	1.32
348.556	1.36
348.926	1.4
349.296	1.46
349.666	1.3
350.037	1.35
350.407	1.25
350.777	1.36
351.147	1.36
351.517	1.35
351.887	1.33
352.257	1.46
352.627	1.26
352.997	1.31
353.367	1.37
353.737	1.39
354.106	1.39
354.476	1.29
354.846	1.49
355.216	1.33
355.585	1.38
355.955	1.36
356.324	1.33
356.694	1.3
357.063	1.28
357.433	1.31
357.802	1.36
358.171	1.3
358.541	1.29
358.91	1.29
359.279	1.3
359.648	1.25
360.017	1.3
360.387	1.25
360.756	1.15
361.125	1.26
361.494	1.24
361.863	1.13
362.231	1.15
362.6	1.18
362.969	1.15
363.338	1.13
363.707	1.12
364.075	1.16
364.444	1.03
364.813	1.07
365.181	1.03
365.55	1.07
365.918	1.11
366.287	1.04
366.655	1.07
367.024	1.02
367.392	1.05
367.76	1.02
368.128	1.03
368.497	1.01
368.865	1.01
369.233	1.02
369.601	0.98
369.969	0.96
370.337	1.02
370.705	0.95
371.073	0.99
371.441	0.98
371.809	0.95
372.177	0.97
372.544	0.96
372.912	0.96
373.28	0.98
373.647	0.95
374.015	0.98
374.383	0.98
374.75	1
375.118	0.97
375.485	0.98
375.853	0.93
376.22	0.94
376.587	0.93
376.955	0.94
377.322	0.95
377.689	0.92
378.056	0.92
378.423	0.93
378.79	0.97
379.157	0.94
379.524	0.97
379.891	0.96
380.258	0.97
380.625	0.93
380.992	0.96
381.359	0.96
381.726	0.98
382.092	0.94
382.459	0.94
382.826	1.01
383.192	0.97
383.559	0.98
383.925	0.96
384.292	0.97
384.658	1.05
385.025	0.98
385.391	1.04
385.757	1.05
386.123	1.01
386.49	1
386.856	1.02
387.222	1.08
387.588	1.03
387.954	1.04
388.32	1.1
388.686	1.03
389.052	1.02
389.418	1.02
389.784	1
390.15	1.04
390.515	0.98
390.881	1.11
391.247	1.06
391.613	1.08
391.978	1.01
392.344	1.07
392.709	1.03
393.075	1.07
393.44	1.08
393.806	1.06
394.171	1.06
394.536	1.02
394.902	1.06
395.267	1.02
395.632	0.97
395.997	1.02
396.362	0.96
396.727	1.03
397.092	1.03
397.457	1.01
397.822	1.01
398.187	0.97
398.552	0.98
398.917	0.96
399.282	0.95
399.646	0.94
400.011	1.02
400.376	0.99
400.74	0.97
401.105	0.98
401.47	0.94
401.834	0.97
402.199	0.9
402.563	0.94
402.927	0.88
403.292	0.91
403.656	0.9
404.02	0.93
404.384	0.91
404.749	0.86
405.113	0.89
405.477	0.91
405.841	0.86
406.205	0.87
406.569	0.86
406.933	0.81
407.296	0.86
407.66	0.83
408.024	0.85
408.388	0.87
408.752	0.79
409.115	0.82
409.479	0.83
409.842	0.77
410.206	0.8
410.569	0.81
410.933	0.8
411.296	0.77
411.66	0.78
412.023	0.74
412.386	0.74
412.749	0.75
413.113	0.77
413.476	0.75
413.839	0.76
414.202	0.75
414.565	0.72
414.928	0.73
415.291	0.74
415.654	0.72
416.017	0.73
416.38	0.74
416.742	0.69
417.105	0.69
417.468	0.71
417.83	0.73
418.193	0.7
418.556	0.7
418.918	0.71
419.281	0.73
419.643	0.71
420.005	0.69
420.368	0.72
420.73	0.68
421.092	0.71
421.455	0.69
421.817	0.67
422.179	0.66
422.541	0.69
422.903	0.67
423.265	0.68
423.627	0.68
423.989	0.65
424.351	0.65
424.713	0.66
425.075	0.66
425.436	0.65
425.798	0.64
426.16	0.64
426.521	0.65
426.883	0.66
427.245	0.65
427.606	0.66
427.967	0.63
428.329	0.65
428.69	0.66
429.052	0.64
429.413	0.64
429.774	0.63
430.135	0.6
430.497	0.62
430.858	0.61
431.219	0.61
431.58	0.62
431.941	0.6
432.302	0.61
432.663	0.6
433.024	0.63
433.384	0.62
433.745	0.59
434.106	0.59
434.467	0.61
434.827	0.61
435.188	0.62
435.548	0.61
435.909	0.59
436.269	0.6
436.63	0.58
436.99	0.58
437.351	0.57
437.711	0.6
438.071	0.59
438.431	0.57
438.792	0.58
439.152	0.56
439.512	0.56
439.872	0.56
440.232	0.58
440.592	0.58
440.952	0.57
441.312	0.56
441.671	0.56
442.031	0.54
442.391	0.56
442.751	0.57
443.11	0.55
443.47	0.52
443.83	0.55
444.189	0.53
444.549	0.53
444.908	0.53
445.267	0.52
445.627	0.52
445.986	0.52
446.345	0.51
446.705	0.52
447.064	0.52
447.423	0.51
447.782	0.5
448.141	0.51
448.5	0.48
448.859	0.51
449.218	0.48
449.577	0.49
449.936	0.5
450.295	0.49
450.653	0.49
451.012	0.49
451.371	0.5
451.729	0.49
452.088	0.48
452.447	0.48
452.805	0.48
453.163	0.48
453.522	0.48
453.88	0.47
454.239	0.46
454.597	0.45
454.955	0.45
455.313	0.45
455.671	0.45
456.029	0.44
456.388	0.44
456.746	0.43
457.104	0.42
457.461	0.42
457.819	0.42
458.177	0.41
458.535	0.41
458.893	0.41
459.25	0.41
459.608	0.4
459.966	0.39
460.323	0.38
460.681	0.38
461.038	0.39
461.396	0.38
461.753	0.39
462.111	0.38
462.468	0.36
462.825	0.37
463.182	0.35
463.54	0.36
463.897	0.36
464.254	0.35
464.611	0.35
464.968	0.34
465.325	0.34
465.682	0.33
466.039	0.34
466.395	0.33
466.752	0.33
467.109	0.33
467.466	0.33
467.822	0.33
468.179	0.31
468.535	0.32
468.892	0.31
469.248	0.3
469.605	0.3
469.961	0.3
470.318	0.31
470.674	0.3
471.03	0.29
471.386	0.29
471.743	0.28
472.099	0.28
472.455	0.28
472.811	0.28
473.167	0.27
473.523	0.28
473.879	0.27
474.235	0.27
474.59	0.27
474.946	0.26
475.302	0.26
475.657	0.25
476.013	0.25
476.369	0.24
476.724	0.25
477.08	0.25
477.435	0.24
477.791	0.24
478.146	0.24
478.501	0.24
478.857	0.24
479.212	0.23
479.567	0.23
479.922	0.22
480.277	0.22
480.632	0.21
480.987	0.21
481.342	0.21
481.697	0.21
482.052	0.2
482.407	0.21
482.762	0.2
483.116	0.19
483.471	0.19
483.826	0.19
484.18	0.19
484.535	0.18
484.89	0.18
485.244	0.19
485.598	0.19
485.953	0.18
486.307	0.18
486.661	0.18
487.016	0.18
487.37	0.18
487.724	0.17
488.078	0.17
488.432	0.17
488.786	0.17
489.14	0.17
489.494	0.16
489.848	0.17
490.202	0.16
490.556	0.16
490.91	0.17
491.263	0.16
491.617	0.16
491.971	0.16
492.324	0.15
492.678	0.16
493.031	0.16
493.385	0.15
493.738	0.16
494.091	0.15
494.445	0.15
494.798	0.15
495.151	0.15
495.504	0.15
495.857	0.15
496.21	0.15
496.564	0.14
496.916	0.15
497.269	0.14
497.622	0.14
497.975	0.14
498.328	0.15
498.681	0.14
499.033	0.14
499.386	0.13
499.739	0.13
500.091	0.13
500.444	0.13
500.796	0.13
501.149	0.13
501.501	0.13
501.854	0.13
502.206	0.13
502.558	0.13
502.91	0.13
503.263	0.14
503.615	0.13
503.967	0.12
504.319	0.13
504.671	0.13
505.023	0.13
505.375	0.13
505.726	0.13
506.078	0.13
506.43	0.13
506.782	0.12
507.133	0.13
507.485	0.14
507.837	0.14
508.188	0.12
508.54	0.12
508.891	0.14
509.243	0.12
509.594	0.13
509.945	0.12
510.296	0.12
510.648	0.12
510.999	0.12
511.35	0.13
511.701	0.13
512.052	0.13
512.403	0.13
512.754	0.13
513.105	0.12
513.456	0.13
513.807	0.12
514.157	0.13
514.508	0.13
514.859	0.12
515.209	0.12
515.56	0.13
515.91	0.12
516.261	0.12
516.611	0.12
516.962	0.12
517.312	0.12
517.662	0.12
518.013	0.12
518.363	0.13
518.713	0.12
519.063	0.13
519.413	0.13
519.763	0.12
520.113	0.13
520.463	0.13
520.813	0.13
521.163	0.13
521.512	0.13
521.862	0.12
522.212	0.13
522.562	0.13
522.911	0.13
523.261	0.13
523.61	0.13
523.96	0.13
524.309	0.13
524.658	0.13
525.008	0.12
525.357	0.12
525.706	0.12
526.056	0.12
526.405	0.12
526.754	0.12
527.103	0.12
527.452	0.12
527.801	0.13
528.15	0.13
528.499	0.12
528.847	0.13
529.196	0.13
529.545	0.14
529.893	0.14
530.242	0.13
530.591	0.14
530.939	0.14
531.288	0.13
531.636	0.13
531.985	0.13
532.333	0.13
532.681	0.13
533.029	0.13
533.378	0.13
533.726	0.14
534.074	0.14
534.422	0.13
534.77	0.14
535.118	0.14
535.466	0.14
535.814	0.13
536.162	0.13
536.509	0.14
536.857	0.13
537.205	0.14
537.552	0.14
537.9	0.14
538.248	0.13
538.595	0.13
538.943	0.14
539.29	0.14
539.637	0.14
539.985	0.13
540.332	0.14
540.679	0.13
541.026	0.13
541.373	0.14
541.721	0.13
542.068	0.14
542.415	0.13
542.762	0.13
543.108	0.13
543.455	0.13
543.802	0.13
544.149	0.13
544.496	0.13
544.842	0.13
545.189	0.12
545.535	0.12
545.882	0.12
546.228	0.12
546.575	0.11
546.921	0.12
547.267	0.12
547.614	0.13
547.96	0.12
548.306	0.13
548.652	0.12
548.998	0.14
549.344	0.13
549.69	0.12
550.036	0.12
550.382	0.12
550.728	0.13
551.074	0.14
551.42	0.13
551.765	0.13
552.111	0.13
552.457	0.13
552.802	0.13
553.148	0.13
553.493	0.13
553.839	0.14
554.184	0.13
554.529	0.13
554.875	0.13
555.22	0.14
555.565	0.13
555.91	0.12
556.255	0.14
556.6	0.14
556.945	0.13
557.29	0.13
557.635	0.14
557.98	0.13
558.325	0.13
558.67	0.13
559.014	0.14
559.359	0.14
559.704	0.14
560.048	0.13
560.393	0.14
560.737	0.11
561.082	0.14
561.426	0.12
561.77	0.13
562.115	0.12
562.459	0.13
562.803	0.13
563.147	0.13
563.491	0.13
563.835	0.14
564.179	0.13
564.523	0.13
564.867	0.13
565.211	0.13
565.555	0.13
565.899	0.14
566.242	0.13
566.586	0.13
566.93	0.13
567.273	0.14
567.617	0.14
567.96	0.13
568.304	0.14
568.647	0.14
568.99	0.13
569.334	0.14
569.677	0.13
570.02	0.14
570.363	0.14
570.706	0.13
571.049	0.14
571.392	0.14
571.735	0.13
572.078	0.14
572.421	0.15
572.764	0.14
573.106	0.13
573.449	0.13
573.792	0.14
574.134	0.13
574.477	0.13
574.819	0.13
575.162	0.13
575.504	0.13
575.847	0.13
576.189	0.13
576.531	0.14
576.873	0.13
577.215	0.14
577.558	0.14
577.9	0.13
578.242	0.13
578.584	0.14
578.926	0.13
579.267	0.13
579.609	0.13
579.951	0.14
580.293	0.14
580.634	0.14
580.976	0.13
581.318	0.13
581.659	0.13
582.001	0.14
582.342	0.13
582.683	0.13
583.025	0.13
583.366	0.13
583.707	0.13
584.049	0.13
584.39	0.13
584.731	0.12
585.072	0.13
585.413	0.13
585.754	0.14
586.095	0.13
586.435	0.14
586.776	0.14
587.117	0.13
587.458	0.13
587.798	0.13
588.139	0.14
588.48	0.13
588.82	0.13
589.161	0.12
589.501	0.13
589.841	0.13
590.182	0.13
590.522	0.13
590.862	0.13
591.202	0.13
591.542	0.13
591.882	0.13
592.222	0.13
592.562	0.13
592.902	0.13
593.242	0.13
593.582	0.13
593.922	0.14
594.261	0.12
594.601	0.13
594.941	0.13
595.28	0.13
595.62	0.13
595.959	0.12
596.299	0.12
596.638	0.13
596.977	0.13
597.317	0.14
597.656	0.13
597.995	0.13
598.334	0.14
598.673	0.13
599.012	0.13
599.351	0.13
599.69	0.14
600.029	0.14
600.368	0.14
600.707	0.14
601.046	0.14
601.384	0.14
601.723	0.13
602.061	0.13
602.4	0.14
602.738	0.14
603.077	0.13
603.415	0.13
603.754	0.13
604.092	0.13
604.43	0.13
604.768	0.14
605.107	0.13
605.445	0.13
605.783	0.13
606.121	0.13
606.459	0.13
606.796	0.13
607.134	0.13
607.472	0.13
607.81	0.13
608.148	0.13
608.485	0.13
608.823	0.13
609.16	0.14
609.498	0.13
609.835	0.13
610.173	0.12
610.51	0.13
610.847	0.13
611.185	0.13
611.522	0.13
611.859	0.13
612.196	0.13
612.533	0.13
612.87	0.14
613.207	0.13
613.544	0.13
613.881	0.14
614.217	0.13
614.554	0.13
614.891	0.13
615.228	0.14
615.564	0.14
615.901	0.13
616.237	0.14
616.574	0.13
616.91	0.14
617.246	0.14
617.583	0.14
617.919	0.14
618.255	0.13
618.591	0.14
618.927	0.13
619.263	0.14
619.599	0.14
619.935	0.14
620.271	0.14
620.607	0.13
620.943	0.13
621.279	0.14
621.614	0.14
621.95	0.14
622.286	0.13
622.621	0.13
622.957	0.13
623.292	0.13
623.627	0.14
623.963	0.13
624.298	0.14
624.633	0.13
624.968	0.12
625.304	0.14
625.639	0.13
625.974	0.13
626.309	0.13
626.644	0.13
626.979	0.13
627.313	0.14
627.648	0.13
627.983	0.13
628.318	0.13
628.652	0.13
628.987	0.13
629.321	0.13
629.656	0.12
629.99	0.12
630.325	0.13
630.659	0.12
630.993	0.11
631.327	0.12
631.662	0.11
631.996	0.11
632.33	0.11
632.664	0.11
632.998	0.11
633.332	0.12
633.666	0.12
633.999	0.12
634.333	0.12
634.667	0.12
635.001	0.11
635.334	0.11
635.668	0.11
636.001	0.11
636.335	0.12
636.668	0.12
637.001	0.11
637.335	0.11
637.668	0.12
638.001	0.12
638.334	0.11
638.668	0.11
639.001	0.11
639.334	0.11
639.667	0.11
639.999	0.11
640.332	0.12
640.665	0.12
640.998	0.12
641.331	0.12
641.663	0.11
641.996	0.12
642.328	0.11
642.661	0.12
642.993	0.12
643.326	0.12
643.658	0.12
643.99	0.12
644.323	0.12
644.655	0.12
644.987	0.12
645.319	0.12
645.651	0.12
645.983	0.12
646.315	0.11
646.647	0.12
646.979	0.12
647.31	0.12
647.642	0.12
647.974	0.11
648.305	0.12
648.637	0.12
648.968	0.12
649.3	0.11
649.631	0.11
649.963	0.11
650.294	0.12
650.625	0.11
650.957	0.12
651.288	0.12
651.619	0.12
651.95	0.12
652.281	0.12
652.612	0.12
652.943	0.12
653.274	0.13
653.604	0.12
653.935	0.12
654.266	0.12
654.596	0.11
654.927	0.12
655.258	0.12
655.588	0.12
655.918	0.12
656.249	0.1
656.579	0.11
656.909	0.11
657.24	0.11
657.57	0.12
657.9	0.12
658.23	0.11
658.56	0.11
658.89	0.12
659.22	0.11
659.55	0.12
659.88	0.11
660.209	0.11
660.539	0.12
660.869	0.12
661.198	0.12
661.528	0.11
661.857	0.11
662.187	0.11
662.516	0.11
662.846	0.1
663.175	0.11
663.504	0.1
663.833	0.1
664.163	0.11
664.492	0.11
664.821	0.11
665.15	0.11
665.479	0.11
665.807	0.1
666.136	0.11
666.465	0.11
666.794	0.12
667.122	0.11
667.451	0.11
667.78	0.12
668.108	0.12
668.437	0.11
668.765	0.11
669.093	0.12
669.422	0.11
669.75	0.11
670.078	0.11
670.406	0.12
670.734	0.12
671.062	0.11
671.39	0.11
671.718	0.12
672.046	0.12
672.374	0.11
672.702	0.11
673.029	0.1
673.357	0.11
673.685	0.11
674.012	0.11
674.34	0.11
674.667	0.11
674.995	0.11
675.322	0.11
675.649	0.1
675.977	0.11
676.304	0.11
676.631	0.1
676.958	0.1
677.285	0.1
677.612	0.1
677.939	0.1
678.266	0.1
678.593	0.1
678.92	0.11
679.246	0.11
679.573	0.1
679.9	0.1
680.226	0.1
680.553	0.1
680.879	0.11
681.206	0.11
681.532	0.1
681.858	0.11
682.184	0.11
682.511	0.11
682.837	0.1
683.163	0.11
683.489	0.11
683.815	0.11
684.141	0.11
684.467	0.11
684.793	0.1
685.118	0.1
685.444	0.1
685.77	0.11
686.095	0.1
686.421	0.11
686.746	0.1
687.072	0.1
687.397	0.1
687.723	0.1
688.048	0.11
688.373	0.09
688.698	0.1
689.023	0.09
689.349	0.1
689.674	0.1
689.999	0.09
690.323	0.09
690.648	0.09
690.973	0.08
691.298	0.09
691.623	0.09
691.947	0.1
692.272	0.09
692.596	0.1
692.921	0.1
693.245	0.09
693.57	0.1
693.894	0.1
694.218	0.1
694.543	0.1
694.867	0.1
695.191	0.09
695.515	0.1
695.839	0.09
696.163	0.1
696.487	0.1
696.811	0.1
697.135	0.1
697.458	0.1
697.782	0.1
698.106	0.1
698.429	0.09
698.753	0.1
699.076	0.1
699.4	0.09
699.723	0.1
700.046	0.09
700.37	0.1
700.693	0.1
701.016	0.1
701.339	0.1
701.662	0.1
701.985	0.1
702.308	0.09
702.631	0.09
702.954	0.09
703.277	0.09
703.599	0.1
703.922	0.09
704.245	0.09
704.567	0.09
704.89	0.09
705.212	0.08
705.535	0.08
705.857	0.08
706.179	0.08
706.502	0.08
706.824	0.08
707.146	0.09
707.468	0.09
707.79	0.08
708.112	0.09
708.434	0.09
708.756	0.09
709.078	0.09
709.399	0.08
709.721	0.09
710.043	0.09
710.364	0.09
710.686	0.09
711.007	0.09
711.329	0.1
711.65	0.09
711.972	0.09
712.293	0.1
712.614	0.09
712.935	0.08
713.256	0.1
713.577	0.09
713.898	0.09
714.219	0.08
714.54	0.08
714.861	0.08
715.182	0.09
715.503	0.09
715.823	0.08
716.144	0.08
716.464	0.08
716.785	0.08
717.105	0.07
717.426	0.09
717.746	0.08
718.066	0.07
718.387	0.08
718.707	0.07
719.027	0.08
719.347	0.07
719.667	0.08
719.987	0.07
720.307	0.07
720.627	0.07
720.947	0.08
721.266	0.08
721.586	0.07
721.906	0.08
722.225	0.07
722.545	0.07
722.864	0.07
723.184	0.09
723.503	0.08
723.823	0.08
724.142	0.07
724.461	0.07
724.78	0.08
725.099	0.07
725.418	0.07
725.737	0.08
726.056	0.08
726.375	0.08
726.694	0.08
727.013	0.08
727.331	0.07
727.65	0.07
727.969	0.07
728.287	0.08
728.606	0.08
728.924	0.07
729.242	0.08
729.561	0.07
729.879	0.08
730.197	0.07
730.515	0.07
730.834	0.07
731.152	0.07
731.47	0.08
731.788	0.07
732.105	0.08
732.423	0.08
732.741	0.08
733.059	0.08
733.376	0.08
733.694	0.07
734.012	0.07
734.329	0.08
734.647	0.07
734.964	0.08
735.281	0.08
735.599	0.08
735.916	0.08
736.233	0.08
736.55	0.08
736.867	0.08
737.184	0.08
737.501	0.07
737.818	0.08
738.135	0.09
738.452	0.08
738.768	0.08
739.085	0.08
739.402	0.07
739.718	0.07
740.035	0.07
740.351	0.08
740.668	0.07
740.984	0.07
741.3	0.06
741.617	0.07
741.933	0.07
742.249	0.08
742.565	0.07
742.881	0.08
743.197	0.08
743.513	0.07
743.829	0.07
744.144	0.07
744.46	0.07
744.776	0.08
745.091	0.07
745.407	0.07
745.722	0.07
746.038	0.07
746.353	0.06
746.669	0.07
746.984	0.06
747.299	0.07
747.614	0.07
747.93	0.07
748.245	0.06
748.56	0.06
748.875	0.06
749.189	0.06
749.504	0.07
749.819	0.07
750.134	0.06
750.448	0.07
750.763	0.06
751.078	0.05
751.392	0.06
751.707	0.07
752.021	0.07
752.335	0.07
752.65	0.07
752.964	0.07
753.278	0.07
753.592	0.06
753.906	0.06
754.22	0.07
754.534	0.06
754.848	0.07
755.162	0.07
755.476	0.07
755.789	0.07
756.103	0.07
756.417	0.07
756.73	0.07
757.044	0.07
757.357	0.07
757.671	0.07
757.984	0.07
758.297	0.07
758.61	0.07
758.924	0.07
759.237	0.06
759.55	0.06
759.863	0.07
760.176	0.07
760.488	0.06
760.801	0.06
761.114	0.06
761.427	0.06
761.739	0.07
762.052	0.06
762.365	0.06
762.677	0.06
762.99	0.05
763.302	0.05
763.614	0.06
763.926	0.07
764.239	0.06
764.551	0.05
764.863	0.06
765.175	0.07
765.487	0.07
765.799	0.06
766.111	0.06
766.423	0.06
766.734	0.06
767.046	0.06
767.358	0.06
767.669	0.06
767.981	0.07
768.292	0.06
768.604	0.06
768.915	0.06
769.226	0.06
769.537	0.05
769.849	0.06
770.16	0.06
770.471	0.06
770.782	0.06
771.093	0.06
771.404	0.05
771.715	0.05
772.025	0.05
772.336	0.05
772.647	0.05
772.957	0.06
773.268	0.06
773.578	0.06
773.889	0.06
774.199	0.07
774.51	0.05
774.82	0.05
775.13	0.06
775.44	0.06
775.75	0.07
776.06	0.07
776.37	0.06
776.68	0.06
776.99	0.06
777.3	0.06
777.61	0.08
777.92	0.07
778.229	0.06
778.539	0.06
778.848	0.06
779.158	0.07
779.467	0.07
779.777	0.06
780.086	0.06
780.395	0.06
780.704	0.05
781.013	0.05
781.323	0.06
781.632	0.05
781.941	0.06
782.249	0.06
782.558	0.05
782.867	0.06
783.176	0.05
783.485	0.06
783.793	0.06
784.102	0.06
784.41	0.05
784.719	0.05
785.027	0.05
785.335	0.06
785.644	0.06
785.952	0.06
786.26	0.05
786.568	0.05
786.876	0.05
787.184	0.05
787.492	0.05
787.8	0.06
788.108	0.06
788.416	0.05
788.723	0.06
789.031	0.06
789.338	0.05
789.646	0.06
789.953	0.06
790.261	0.05
790.568	0.06
790.876	0.05
791.183	0.06
791.49	0.04
791.797	0.06
792.104	0.05
792.411	0.06
792.718	0.05
793.025	0.06
793.332	0.06
793.639	0.07
793.945	0.07
794.252	0.06
794.559	0.06
794.865	0.06
795.172	0.07
795.478	0.06
795.784	0.06
796.091	0.06
796.397	0.06
796.703	0.06
797.009	0.07
797.315	0.07
797.622	0.06
797.927	0.06
798.233	0.06
798.539	0.07
798.845	0.07
799.151	0.07
799.456	0.06
799.762	0.06
800.068	0.07
800.373	0.07
800.679	0.06
800.984	0.06
801.289	0.06
801.595	0.06
801.9	0.06
802.205	0.06
802.51	0.06
802.815	0.06
803.12	0.06
803.425	0.07
803.73	0.06
804.035	0.07
804.339	0.06
804.644	0.06
804.949	0.06
805.253	0.06
805.558	0.06
805.862	0.05
806.167	0.06
806.471	0.06
806.775	0.06
807.08	0.06
807.384	0.06
807.688	0.06
807.992	0.06
808.296	0.06
808.6	0.06
808.904	0.06
809.207	0.06
809.511	0.07
809.815	0.06
810.119	0.06
810.422	0.06
810.726	0.07
811.029	0.07
811.332	0.07
811.636	0.07
811.939	0.06
812.242	0.06
812.546	0.07
812.849	0.06
813.152	0.07
813.455	0.08
813.758	0.08
814.06	0.06
814.363	0.07
814.666	0.07
814.969	0.07
815.271	0.07
815.574	0.07
815.877	0.07
816.179	0.06
816.481	0.06
816.784	0.06
817.086	0.05
817.388	0.05
817.69	0.04
817.993	0.05
818.295	0.05
818.597	0.05
818.899	0.05
819.2	0.05
819.502	0.05
819.804	0.05
820.106	0.04
820.407	0.04
820.709	0.05
821.01	0.05
821.312	0.04
821.613	0.04
821.915	0.04
822.216	0.04
822.517	0.03
822.818	0.04
823.119	0.05
823.42	0.06
823.721	0.04
824.022	0.04
824.323	0.05
824.624	0.05
824.925	0.05
825.226	0.05
825.526	0.05
825.827	0.04
826.127	0.04
826.428	0.05
826.728	0.04
827.028	0.04
827.329	0.04
827.629	0.03
827.929	0.04
828.229	0.04
828.529	0.04
828.829	0.04
829.129	0.04
829.429	0.04
829.729	0.04
830.029	0.03
830.328	0.04
830.628	0.04
830.927	0.02
831.227	0.04
831.526	0.04
831.826	0.04
832.125	0.03
832.424	0.02
832.724	0.03
833.023	0.04
833.322	0.04
833.621	0.03
833.92	0.02
834.219	0.03
834.518	0.03
834.816	0.02
835.115	0.03
835.414	0.02
835.712	0.02
836.011	0.01
836.309	0.02
836.608	0.02
836.906	0.01
837.205	0.01
837.503	0
837.801	0
838.099	0
838.397	-0.01
838.695	-0.01
838.993	-0.01
839.291	-0.01
839.589	-0
839.887	0
840.184	-0.01
840.482	-0.01
840.78	-0.01
841.077	-0.01
841.375	-0
841.672	-0.01
841.969	-0.01
842.267	-0.01
842.564	-0
842.861	0
843.158	-0.01
843.455	-0.03
843.752	-0.02
844.049	-0.01
844.346	-0.02
844.643	-0.02
844.94	-0.03
845.236	-0.01
845.533	-0.02
845.83	-0.02
846.126	-0.02
846.423	-0.02
846.719	-0.03
847.015	-0.03
847.312	-0.03
847.608	-0.03
847.904	-0.03
848.2	-0.04
848.496	-0.03
848.792	-0.02
849.088	-0.02
849.384	-0.03
849.68	-0.04
849.975	-0.03
850.271	-0.04
850.567	-0.04
850.862	-0.03
851.158	-0.04
851.453	-0.04
851.748	-0.05
852.044	-0.04
852.339	-0.04
852.634	-0.06
852.929	-0.04
853.224	-0.05
853.519	-0.05
853.814	-0.05
854.109	-0.05
854.404	-0.05
854.699	-0.05
854.994	-0.05
855.288	-0.06
855.583	-0.04
855.877	-0.06
856.172	-0.06
856.466	-0.06
856.76	-0.06
857.055	-0.05
857.349	-0.07
857.643	-0.08
857.937	-0.08
858.231	-0.07
858.525	-0.08
858.819	-0.08
859.113	-0.09
859.407	-0.09
859.701	-0.09
859.994	-0.1
860.288	-0.08
860.581	-0.09
860.875	-0.1
861.168	-0.1
861.462	-0.1
861.755	-0.1
862.048	-0.11
862.341	-0.11
862.634	-0.1
862.928	-0.1
863.221	-0.1
863.513	-0.11
863.806	-0.11
864.099	-0.11
864.392	-0.11
864.685	-0.1
864.977	-0.11
865.27	-0.11
865.562	-0.11
865.855	-0.11
866.147	-0.11
866.44	-0.1
866.732	-0.11
867.024	-0.13
867.316	-0.12
867.608	-0.12
867.9	-0.12
868.192	-0.12
868.484	-0.12
868.776	-0.13
869.068	-0.12
869.359	-0.13
869.651	-0.13
869.943	-0.14
870.234	-0.14
870.526	-0.15
870.817	-0.14
871.108	-0.12
871.4	-0.13
871.691	-0.14
871.982	-0.15
872.273	-0.15
872.564	-0.15
872.855	-0.15
873.146	-0.16
873.437	-0.15
873.728	-0.16
874.019	-0.16
874.309	-0.16
874.6	-0.15
874.89	-0.16
875.181	-0.15
875.471	-0.16
875.762	-0.17
876.052	-0.15
876.342	-0.14
876.632	-0.16
876.922	-0.17
877.213	-0.16
877.503	-0.18
877.792	-0.16
878.082	-0.17
878.372	-0.16
878.662	-0.18
878.952	-0.17
879.241	-0.16
879.531	-0.15
879.82	-0.16
880.11	-0.15
880.399	-0.16
880.688	-0.14
880.978	-0.14
881.267	-0.14
