Data from 12-12-AQDScycling_Absorbance__657__00657.txt Node

Date: Tue Dec 12 13:40:59 EST 2023
User: kyuminlee
Spectrometer: FLMS00943
Trigger mode: 0
Integration Time (sec): 1.000000E-1
Scans to average: 1
Electric dark correction enabled: true
Nonlinearity correction enabled: false
Boxcar width: 0
XAxis mode: Wavelengths
Number of Pixels in Spectrum: 2048
>>>>>Begin Spectral Data<<<<<
179.651	-0.24
180.037	-0.24
180.424	-0.24
180.81	-0
181.197	0.28
181.583	-0
181.97	-0.43
182.356	-0
182.743	-0
183.129	-0
183.515	-0
183.901	-1.71
184.288	0.11
184.674	-0
185.06	-0
185.446	-0.38
185.832	-0.86
186.218	0.05
186.604	-0
186.99	-0
187.376	-0
187.762	-0
188.148	0.32
188.534	-0.07
188.92	0.05
189.305	0.11
189.691	0.35
190.077	0.17
190.463	0.07
190.848	0.09
191.234	0.11
191.619	-0.03
192.005	0.14
192.391	0.17
192.776	0.19
193.161	0.1
193.547	0.13
193.932	0.13
194.318	0.06
194.703	0.35
195.088	0.07
195.473	0.21
195.859	0.13
196.244	0.21
196.629	0.09
197.014	0.16
197.399	0.31
197.784	0.42
198.169	0.2
198.554	0.27
198.939	0.16
199.324	0.29
199.709	0.06
200.094	0.12
200.478	0.32
200.863	0.08
201.248	0.12
201.633	0.2
202.017	0.2
202.402	0.23
202.787	0.12
203.171	0.13
203.556	0.33
203.94	0.16
204.325	0.28
204.709	0.26
205.093	0.18
205.478	0.11
205.862	0.09
206.246	0.29
206.631	0.33
207.015	0.21
207.399	0.38
207.783	0.28
208.167	0.14
208.551	0.28
208.935	0.21
209.319	0.19
209.703	0.24
210.087	0.4
210.471	0.11
210.855	0.13
211.239	0.25
211.623	0.29
212.007	0.18
212.39	0.35
212.774	0.33
213.158	0.21
213.541	0.36
213.925	0.16
214.309	0.29
214.692	0.38
215.076	0.25
215.459	0.23
215.842	0.18
216.226	0.36
216.609	0.33
216.993	0.16
217.376	0.57
217.759	0.24
218.142	0.54
218.525	0.62
218.909	0.28
219.292	0.34
219.675	0.33
220.058	0.46
220.441	0.59
220.824	0.54
221.207	0.65
221.59	0.49
221.973	0.51
222.355	0.75
222.738	0.74
223.121	0.58
223.504	0.62
223.886	0.63
224.269	0.78
224.652	0.75
225.034	0.94
225.417	0.85
225.799	0.8
226.182	0.88
226.564	0.79
226.947	0.85
227.329	0.89
227.711	0.88
228.094	0.92
228.476	0.92
228.858	0.84
229.24	0.83
229.623	0.88
230.005	0.92
230.387	0.97
230.769	0.91
231.151	1.02
231.533	0.95
231.915	0.95
232.297	1.04
232.679	0.99
233.061	0.83
233.442	0.96
233.824	1.06
234.206	1.09
234.588	1.18
234.969	1.05
235.351	1
235.733	1.07
236.114	1.1
236.496	0.97
236.877	1.07
237.259	1.17
237.64	1.12
238.022	1.15
238.403	1.02
238.784	0.98
239.165	0.95
239.547	1.07
239.928	1.05
240.309	1.02
240.69	1.14
241.071	1.17
241.452	1.48
241.834	0.99
242.215	1.12
242.595	1.07
242.976	1.16
243.357	1.16
243.738	1.1
244.119	1.35
244.5	1.18
244.881	1.3
245.261	1.33
245.642	1.31
246.023	1.16
246.403	1.28
246.784	1.31
247.164	1.35
247.545	1.31
247.925	1.36
248.306	1.19
248.686	1.46
249.067	1.21
249.447	1.38
249.827	1.44
250.207	1.58
250.588	1.43
250.968	1.45
251.348	1.29
251.728	1.53
252.108	1.39
252.488	1.4
252.868	1.4
253.248	1.35
253.628	1.39
254.008	1.4
254.388	1.27
254.768	1.37
255.147	1.34
255.527	1.52
255.907	1.32
256.287	1.31
256.666	1.51
257.046	1.38
257.425	1.53
257.805	1.32
258.184	1.36
258.564	1.37
258.943	1.31
259.323	1.52
259.702	1.47
260.081	1.46
260.461	1.37
260.84	1.57
261.219	1.65
261.598	1.6
261.977	1.46
262.356	1.55
262.736	1.6
263.115	1.56
263.494	1.45
263.873	1.45
264.251	1.57
264.63	1.58
265.009	1.43
265.388	1.43
265.767	1.39
266.145	1.51
266.524	1.39
266.903	1.41
267.281	1.5
267.66	1.49
268.039	1.42
268.417	1.39
268.796	1.32
269.174	1.35
269.552	1.23
269.931	1.41
270.309	1.43
270.687	1.66
271.066	1.59
271.444	1.25
271.822	1.53
272.2	1.58
272.578	1.43
272.956	1.43
273.334	1.31
273.712	1.43
274.09	1.44
274.468	1.45
274.846	1.29
275.224	1.58
275.602	1.57
275.98	1.49
276.357	1.42
276.735	1.51
277.113	1.59
277.49	1.3
277.868	1.24
278.246	1.42
278.623	1.28
279.001	1.41
279.378	1.42
279.756	1.57
280.133	1.42
280.51	1.46
280.888	1.52
281.265	1.39
281.642	1.47
282.019	1.86
282.396	1.69
282.773	1.4
283.151	1.46
283.528	1.58
283.905	1.4
284.282	1.6
284.659	1.56
285.035	1.42
285.412	1.37
285.789	1.48
286.166	1.54
286.543	1.41
286.919	1.5
287.296	1.46
287.673	1.74
288.049	1.48
288.426	1.61
288.802	1.61
289.179	1.42
289.555	1.58
289.932	1.7
290.308	1.33
290.684	1.39
291.061	1.44
291.437	1.52
291.813	1.56
292.189	1.29
292.565	1.38
292.942	1.37
293.318	1.34
293.694	1.38
294.07	1.37
294.446	1.38
294.822	1.65
295.197	1.49
295.573	1.42
295.949	1.46
296.325	1.51
296.701	1.45
297.076	1.65
297.452	1.56
297.828	1.48
298.203	1.52
298.579	1.35
298.954	1.54
299.33	1.44
299.705	1.47
300.081	1.62
300.456	1.51
300.831	1.41
301.206	1.51
301.582	1.51
301.957	1.45
302.332	1.74
302.707	1.38
303.082	1.37
303.457	1.41
303.832	1.52
304.207	1.32
304.582	1.41
304.957	1.44
305.332	1.39
305.707	1.46
306.082	1.47
306.456	1.49
306.831	1.35
307.206	1.47
307.58	1.42
307.955	1.4
308.33	1.4
308.704	1.42
309.079	1.36
309.453	1.52
309.828	1.38
310.202	1.43
310.576	1.35
310.951	1.48
311.325	1.37
311.699	1.5
312.073	1.32
312.447	1.48
312.821	1.4
313.196	1.5
313.57	1.34
313.944	1.27
314.317	1.36
314.691	1.37
315.065	1.4
315.439	1.45
315.813	1.4
316.187	1.39
316.56	1.62
316.934	1.45
317.308	1.38
317.681	1.4
318.055	1.38
318.428	1.34
318.802	1.44
319.175	1.41
319.549	1.44
319.922	1.29
320.295	1.36
320.669	1.47
321.042	1.56
321.415	1.58
321.788	1.46
322.162	1.46
322.535	1.49
322.908	1.53
323.281	1.41
323.654	1.52
324.027	1.47
324.4	1.44
324.773	1.45
325.145	1.49
325.518	1.3
325.891	1.54
326.264	1.58
326.636	1.34
327.009	1.41
327.382	1.43
327.754	1.62
328.127	1.43
328.499	1.4
328.872	1.43
329.244	1.48
329.616	1.4
329.989	1.51
330.361	1.38
330.733	1.56
331.106	1.39
331.478	1.47
331.85	1.43
332.222	1.49
332.594	1.47
332.966	1.51
333.338	1.77
333.71	1.52
334.082	1.62
334.454	1.54
334.826	1.44
335.197	1.69
335.569	1.4
335.941	1.36
336.312	1.52
336.684	1.4
337.056	1.39
337.427	1.54
337.799	1.55
338.17	1.51
338.542	1.41
338.913	1.65
339.284	1.57
339.656	1.46
340.027	1.47
340.398	1.61
340.769	1.51
341.141	1.69
341.512	1.45
341.883	1.49
342.254	1.46
342.625	1.47
342.996	1.51
343.367	1.61
343.738	1.43
344.108	1.58
344.479	1.57
344.85	1.36
345.221	1.63
345.591	1.35
345.962	1.65
346.333	1.49
346.703	1.33
347.074	1.38
347.444	1.43
347.815	1.42
348.185	1.36
348.556	1.32
348.926	1.37
349.296	1.27
349.666	1.33
350.037	1.41
350.407	1.23
350.777	1.31
351.147	1.39
351.517	1.34
351.887	1.41
352.257	1.41
352.627	1.25
352.997	1.34
353.367	1.33
353.737	1.48
354.106	1.41
354.476	1.32
354.846	1.42
355.216	1.37
355.585	1.39
355.955	1.38
356.324	1.38
356.694	1.42
357.063	1.42
357.433	1.33
357.802	1.39
358.171	1.4
358.541	1.44
358.91	1.57
359.279	1.41
359.648	1.4
360.017	1.41
360.387	1.35
360.756	1.33
361.125	1.33
361.494	1.36
361.863	1.39
362.231	1.35
362.6	1.43
362.969	1.4
363.338	1.39
363.707	1.53
364.075	1.4
364.444	1.26
364.813	1.32
365.181	1.34
365.55	1.29
365.918	1.5
366.287	1.46
366.655	1.51
367.024	1.37
367.392	1.42
367.76	1.44
368.128	1.34
368.497	1.42
368.865	1.49
369.233	1.48
369.601	1.43
369.969	1.37
370.337	1.5
370.705	1.42
371.073	1.34
371.441	1.42
371.809	1.41
372.177	1.3
372.544	1.34
372.912	1.38
373.28	1.36
373.647	1.42
374.015	1.49
374.383	1.57
374.75	1.63
375.118	1.45
375.485	1.42
375.853	1.5
376.22	1.35
376.587	1.4
376.955	1.52
377.322	1.51
377.689	1.46
378.056	1.38
378.423	1.37
378.79	1.44
379.157	1.37
379.524	1.45
379.891	1.38
380.258	1.52
380.625	1.6
380.992	1.43
381.359	1.48
381.726	1.68
382.092	1.38
382.459	1.53
382.826	1.5
383.192	1.48
383.559	1.51
383.925	1.42
384.292	1.46
384.658	1.56
385.025	1.65
385.391	1.71
385.757	1.55
386.123	1.48
386.49	1.49
386.856	1.58
387.222	1.66
387.588	1.55
387.954	1.88
388.32	1.63
388.686	1.67
389.052	1.51
389.418	1.6
389.784	1.47
390.15	1.62
390.515	1.38
390.881	1.59
391.247	1.5
391.613	1.65
391.978	1.47
392.344	1.71
392.709	1.57
393.075	1.55
393.44	1.48
393.806	1.59
394.171	1.52
394.536	1.49
394.902	1.56
395.267	1.54
395.632	1.41
395.997	1.6
396.362	1.4
396.727	1.5
397.092	1.44
397.457	1.56
397.822	1.51
398.187	1.65
398.552	1.54
398.917	1.53
399.282	1.42
399.646	1.39
400.011	1.61
400.376	1.46
400.74	1.48
401.105	1.46
401.47	1.44
401.834	1.49
402.199	1.5
402.563	1.55
402.927	1.56
403.292	1.62
403.656	1.45
404.02	1.54
404.384	1.62
404.749	1.46
405.113	1.48
405.477	1.63
405.841	1.5
406.205	1.48
406.569	1.38
406.933	1.33
407.296	1.42
407.66	1.48
408.024	1.45
408.388	1.47
408.752	1.43
409.115	1.45
409.479	1.52
409.842	1.43
410.206	1.32
410.569	1.37
410.933	1.38
411.296	1.28
411.66	1.39
412.023	1.29
412.386	1.34
412.749	1.32
413.113	1.36
413.476	1.26
413.839	1.27
414.202	1.36
414.565	1.33
414.928	1.4
415.291	1.17
415.654	1.28
416.017	1.29
416.38	1.27
416.742	1.25
417.105	1.29
417.468	1.24
417.83	1.31
418.193	1.34
418.556	1.23
418.918	1.21
419.281	1.23
419.643	1.32
420.005	1.28
420.368	1.29
420.73	1.19
421.092	1.31
421.455	1.24
421.817	1.17
422.179	1.24
422.541	1.24
422.903	1.31
423.265	1.3
423.627	1.22
423.989	1.22
424.351	1.18
424.713	1.25
425.075	1.2
425.436	1.23
425.798	1.21
426.16	1.22
426.521	1.21
426.883	1.21
427.245	1.19
427.606	1.25
427.967	1.13
428.329	1.14
428.69	1.24
429.052	1.16
429.413	1.21
429.774	1.23
430.135	1.24
430.497	1.21
430.858	1.2
431.219	1.2
431.58	1.14
431.941	1.14
432.302	1.17
432.663	1.21
433.024	1.23
433.384	1.15
433.745	1.11
434.106	1.16
434.467	1.16
434.827	1.15
435.188	1.13
435.548	1.12
435.909	1.13
436.269	1.16
436.63	1.07
436.99	1.11
437.351	1.05
437.711	1.14
438.071	1.1
438.431	1.09
438.792	1.05
439.152	1.04
439.512	1.04
439.872	1.06
440.232	1.08
440.592	1.06
440.952	1.08
441.312	0.99
441.671	1.03
442.031	1.04
442.391	1.03
442.751	1.06
443.11	1.02
443.47	0.99
443.83	0.99
444.189	0.98
444.549	0.97
444.908	0.96
445.267	1.02
445.627	0.98
445.986	0.96
446.345	0.93
446.705	0.93
447.064	0.95
447.423	0.96
447.782	0.92
448.141	0.9
448.5	0.91
448.859	0.93
449.218	0.9
449.577	0.92
449.936	0.9
450.295	0.91
450.653	0.92
451.012	0.9
451.371	0.87
451.729	0.89
452.088	0.89
452.447	0.87
452.805	0.87
453.163	0.87
453.522	0.87
453.88	0.85
454.239	0.85
454.597	0.82
454.955	0.81
455.313	0.81
455.671	0.82
456.029	0.8
456.388	0.8
456.746	0.78
457.104	0.79
457.461	0.76
457.819	0.76
458.177	0.75
458.535	0.73
458.893	0.73
459.25	0.73
459.608	0.74
459.966	0.71
460.323	0.69
460.681	0.69
461.038	0.69
461.396	0.68
461.753	0.67
462.111	0.67
462.468	0.64
462.825	0.64
463.182	0.63
463.54	0.63
463.897	0.63
464.254	0.62
464.611	0.62
464.968	0.6
465.325	0.61
465.682	0.59
466.039	0.58
466.395	0.57
466.752	0.58
467.109	0.56
467.466	0.55
467.822	0.56
468.179	0.55
468.535	0.53
468.892	0.53
469.248	0.51
469.605	0.52
469.961	0.51
470.318	0.52
470.674	0.51
471.03	0.49
471.386	0.49
471.743	0.47
472.099	0.47
472.455	0.46
472.811	0.47
473.167	0.46
473.523	0.44
473.879	0.44
474.235	0.44
474.59	0.43
474.946	0.42
475.302	0.42
475.657	0.41
476.013	0.41
476.369	0.39
476.724	0.4
477.08	0.4
477.435	0.38
477.791	0.38
478.146	0.38
478.501	0.37
478.857	0.37
479.212	0.37
479.567	0.36
479.922	0.34
480.277	0.35
480.632	0.33
480.987	0.34
481.342	0.34
481.697	0.33
482.052	0.32
482.407	0.32
482.762	0.31
483.116	0.31
483.471	0.3
483.826	0.3
484.18	0.3
484.535	0.29
484.89	0.28
485.244	0.29
485.598	0.29
485.953	0.28
486.307	0.28
486.661	0.28
487.016	0.27
487.37	0.28
487.724	0.26
488.078	0.26
488.432	0.27
488.786	0.26
489.14	0.25
489.494	0.25
489.848	0.25
490.202	0.24
490.556	0.24
490.91	0.24
491.263	0.24
491.617	0.23
491.971	0.23
492.324	0.23
492.678	0.24
493.031	0.24
493.385	0.23
493.738	0.22
494.091	0.22
494.445	0.22
494.798	0.23
495.151	0.22
495.504	0.22
495.857	0.21
496.21	0.22
496.564	0.21
496.916	0.22
497.269	0.2
497.622	0.21
497.975	0.2
498.328	0.2
498.681	0.2
499.033	0.2
499.386	0.2
499.739	0.19
500.091	0.19
500.444	0.19
500.796	0.2
501.149	0.19
501.501	0.19
501.854	0.2
502.206	0.19
502.558	0.2
502.91	0.2
503.263	0.19
503.615	0.2
503.967	0.18
504.319	0.19
504.671	0.19
505.023	0.18
505.375	0.19
505.726	0.19
506.078	0.18
506.43	0.18
506.782	0.18
507.133	0.19
507.485	0.18
507.837	0.19
508.188	0.19
508.54	0.18
508.891	0.19
509.243	0.18
509.594	0.18
509.945	0.18
510.296	0.18
510.648	0.18
510.999	0.17
511.35	0.18
511.701	0.18
512.052	0.18
512.403	0.18
512.754	0.18
513.105	0.17
513.456	0.17
513.807	0.17
514.157	0.18
514.508	0.18
514.859	0.17
515.209	0.17
515.56	0.18
515.91	0.17
516.261	0.17
516.611	0.17
516.962	0.17
517.312	0.18
517.662	0.17
518.013	0.18
518.363	0.18
518.713	0.18
519.063	0.19
519.413	0.18
519.763	0.18
520.113	0.18
520.463	0.18
520.813	0.18
521.163	0.19
521.512	0.18
521.862	0.18
522.212	0.18
522.562	0.18
522.911	0.18
523.261	0.18
523.61	0.18
523.96	0.18
524.309	0.18
524.658	0.18
525.008	0.18
525.357	0.17
525.706	0.18
526.056	0.18
526.405	0.18
526.754	0.18
527.103	0.17
527.452	0.18
527.801	0.18
528.15	0.18
528.499	0.18
528.847	0.18
529.196	0.18
529.545	0.18
529.893	0.19
530.242	0.18
530.591	0.19
530.939	0.19
531.288	0.19
531.636	0.19
531.985	0.19
532.333	0.19
532.681	0.19
533.029	0.19
533.378	0.18
533.726	0.19
534.074	0.2
534.422	0.19
534.77	0.19
535.118	0.19
535.466	0.19
535.814	0.19
536.162	0.19
536.509	0.19
536.857	0.19
537.205	0.2
537.552	0.19
537.9	0.18
538.248	0.18
538.595	0.2
538.943	0.19
539.29	0.19
539.637	0.19
539.985	0.2
540.332	0.19
540.679	0.19
541.026	0.18
541.373	0.19
541.721	0.18
542.068	0.19
542.415	0.19
542.762	0.19
543.108	0.18
543.455	0.18
543.802	0.18
544.149	0.18
544.496	0.18
544.842	0.17
545.189	0.17
545.535	0.18
545.882	0.19
546.228	0.18
546.575	0.18
546.921	0.17
547.267	0.18
547.614	0.18
547.96	0.18
548.306	0.18
548.652	0.18
548.998	0.19
549.344	0.18
549.69	0.19
550.036	0.18
550.382	0.18
550.728	0.18
551.074	0.19
551.42	0.19
551.765	0.19
552.111	0.19
552.457	0.19
552.802	0.19
553.148	0.18
553.493	0.18
553.839	0.19
554.184	0.19
554.529	0.18
554.875	0.19
555.22	0.19
555.565	0.2
555.91	0.18
556.255	0.2
556.6	0.19
556.945	0.19
557.29	0.18
557.635	0.19
557.98	0.19
558.325	0.2
558.67	0.19
559.014	0.19
559.359	0.19
559.704	0.19
560.048	0.19
560.393	0.19
560.737	0.18
561.082	0.18
561.426	0.18
561.77	0.18
562.115	0.18
562.459	0.19
562.803	0.18
563.147	0.2
563.491	0.2
563.835	0.19
564.179	0.19
564.523	0.19
564.867	0.18
565.211	0.18
565.555	0.19
565.899	0.2
566.242	0.19
566.586	0.18
566.93	0.19
567.273	0.19
567.617	0.19
567.96	0.19
568.304	0.2
568.647	0.19
568.99	0.2
569.334	0.2
569.677	0.19
570.02	0.2
570.363	0.2
570.706	0.2
571.049	0.19
571.392	0.2
571.735	0.19
572.078	0.2
572.421	0.2
572.764	0.19
573.106	0.2
573.449	0.19
573.792	0.19
574.134	0.19
574.477	0.19
574.819	0.2
575.162	0.19
575.504	0.19
575.847	0.19
576.189	0.2
576.531	0.19
576.873	0.19
577.215	0.19
577.558	0.19
577.9	0.18
578.242	0.19
578.584	0.19
578.926	0.19
579.267	0.19
579.609	0.19
579.951	0.19
580.293	0.19
580.634	0.19
580.976	0.2
581.318	0.19
581.659	0.19
582.001	0.19
582.342	0.19
582.683	0.19
583.025	0.19
583.366	0.18
583.707	0.19
584.049	0.19
584.39	0.19
584.731	0.18
585.072	0.18
585.413	0.2
585.754	0.19
586.095	0.2
586.435	0.19
586.776	0.19
587.117	0.19
587.458	0.19
587.798	0.19
588.139	0.19
588.48	0.19
588.82	0.18
589.161	0.19
589.501	0.18
589.841	0.19
590.182	0.19
590.522	0.18
590.862	0.2
591.202	0.18
591.542	0.18
591.882	0.18
592.222	0.18
592.562	0.19
592.902	0.18
593.242	0.18
593.582	0.2
593.922	0.19
594.261	0.18
594.601	0.18
594.941	0.18
595.28	0.19
595.62	0.19
595.959	0.18
596.299	0.18
596.638	0.18
596.977	0.19
597.317	0.19
597.656	0.19
597.995	0.19
598.334	0.19
598.673	0.18
599.012	0.19
599.351	0.19
599.69	0.19
600.029	0.19
600.368	0.2
600.707	0.19
601.046	0.19
601.384	0.2
601.723	0.19
602.061	0.18
602.4	0.19
602.738	0.19
603.077	0.19
603.415	0.18
603.754	0.19
604.092	0.19
604.43	0.19
604.768	0.19
605.107	0.19
605.445	0.19
605.783	0.19
606.121	0.18
606.459	0.18
606.796	0.18
607.134	0.18
607.472	0.18
607.81	0.19
608.148	0.19
608.485	0.18
608.823	0.18
609.16	0.18
609.498	0.18
609.835	0.18
610.173	0.18
610.51	0.18
610.847	0.18
611.185	0.19
611.522	0.18
611.859	0.18
612.196	0.18
612.533	0.19
612.87	0.19
613.207	0.19
613.544	0.19
613.881	0.2
614.217	0.19
614.554	0.19
614.891	0.2
615.228	0.19
615.564	0.19
615.901	0.19
616.237	0.19
616.574	0.19
616.91	0.2
617.246	0.19
617.583	0.19
617.919	0.19
618.255	0.19
618.591	0.18
618.927	0.19
619.263	0.19
619.599	0.19
619.935	0.18
620.271	0.19
620.607	0.18
620.943	0.19
621.279	0.19
621.614	0.19
621.95	0.19
622.286	0.19
622.621	0.19
622.957	0.18
623.292	0.18
623.627	0.18
623.963	0.18
624.298	0.18
624.633	0.18
624.968	0.18
625.304	0.18
625.639	0.18
625.974	0.18
626.309	0.18
626.644	0.18
626.979	0.18
627.313	0.19
627.648	0.18
627.983	0.18
628.318	0.17
628.652	0.17
628.987	0.18
629.321	0.18
629.656	0.17
629.99	0.17
630.325	0.17
630.659	0.17
630.993	0.16
631.327	0.17
631.662	0.15
631.996	0.16
632.33	0.16
632.664	0.16
632.998	0.16
633.332	0.17
633.666	0.17
633.999	0.17
634.333	0.16
634.667	0.16
635.001	0.16
635.334	0.16
635.668	0.16
636.001	0.16
636.335	0.16
636.668	0.16
637.001	0.16
637.335	0.16
637.668	0.16
638.001	0.15
638.334	0.16
638.668	0.16
639.001	0.15
639.334	0.15
639.667	0.15
639.999	0.16
640.332	0.16
640.665	0.15
640.998	0.17
641.331	0.16
641.663	0.16
641.996	0.16
642.328	0.16
642.661	0.16
642.993	0.16
643.326	0.16
643.658	0.16
643.99	0.15
644.323	0.15
644.655	0.15
644.987	0.16
645.319	0.16
645.651	0.16
645.983	0.15
646.315	0.16
646.647	0.15
646.979	0.16
647.31	0.16
647.642	0.16
647.974	0.16
648.305	0.16
648.637	0.16
648.968	0.15
649.3	0.16
649.631	0.16
649.963	0.16
650.294	0.16
650.625	0.16
650.957	0.16
651.288	0.16
651.619	0.16
651.95	0.17
652.281	0.15
652.612	0.16
652.943	0.16
653.274	0.16
653.604	0.16
653.935	0.16
654.266	0.16
654.596	0.16
654.927	0.15
655.258	0.16
655.588	0.17
655.918	0.15
656.249	0.13
656.579	0.15
656.909	0.15
657.24	0.15
657.57	0.15
657.9	0.15
658.23	0.15
658.56	0.15
658.89	0.16
659.22	0.15
659.55	0.15
659.88	0.15
660.209	0.15
660.539	0.16
660.869	0.16
661.198	0.15
661.528	0.15
661.857	0.15
662.187	0.15
662.516	0.15
662.846	0.15
663.175	0.15
663.504	0.14
663.833	0.14
664.163	0.14
664.492	0.14
664.821	0.15
665.15	0.14
665.479	0.14
665.807	0.14
666.136	0.15
666.465	0.14
666.794	0.15
667.122	0.14
667.451	0.15
667.78	0.15
668.108	0.15
668.437	0.15
668.765	0.15
669.093	0.15
669.422	0.15
669.75	0.15
670.078	0.15
670.406	0.15
670.734	0.15
671.062	0.14
671.39	0.14
671.718	0.14
672.046	0.14
672.374	0.14
672.702	0.14
673.029	0.14
673.357	0.14
673.685	0.15
674.012	0.14
674.34	0.14
674.667	0.15
674.995	0.14
675.322	0.14
675.649	0.13
675.977	0.14
676.304	0.14
676.631	0.14
676.958	0.14
677.285	0.13
677.612	0.13
677.939	0.13
678.266	0.14
678.593	0.14
678.92	0.13
679.246	0.13
679.573	0.14
679.9	0.13
680.226	0.13
680.553	0.13
680.879	0.13
681.206	0.13
681.532	0.13
681.858	0.13
682.184	0.13
682.511	0.13
682.837	0.13
683.163	0.14
683.489	0.13
683.815	0.13
684.141	0.13
684.467	0.13
684.793	0.13
685.118	0.13
685.444	0.13
685.77	0.13
686.095	0.13
686.421	0.13
686.746	0.13
687.072	0.13
687.397	0.13
687.723	0.13
688.048	0.13
688.373	0.12
688.698	0.12
689.023	0.12
689.349	0.12
689.674	0.12
689.999	0.13
690.323	0.12
690.648	0.12
690.973	0.12
691.298	0.12
691.623	0.12
691.947	0.12
692.272	0.12
692.596	0.12
692.921	0.13
693.245	0.12
693.57	0.13
693.894	0.13
694.218	0.12
694.543	0.13
694.867	0.13
695.191	0.12
695.515	0.13
695.839	0.12
696.163	0.12
696.487	0.12
696.811	0.12
697.135	0.12
697.458	0.13
697.782	0.12
698.106	0.12
698.429	0.12
698.753	0.12
699.076	0.12
699.4	0.12
699.723	0.12
700.046	0.11
700.37	0.12
700.693	0.13
701.016	0.12
701.339	0.12
701.662	0.13
701.985	0.12
702.308	0.12
702.631	0.12
702.954	0.12
703.277	0.12
703.599	0.12
703.922	0.11
704.245	0.11
704.567	0.11
704.89	0.11
705.212	0.11
705.535	0.11
705.857	0.11
706.179	0.1
706.502	0.11
706.824	0.11
707.146	0.1
707.468	0.11
707.79	0.11
708.112	0.11
708.434	0.11
708.756	0.11
709.078	0.11
709.399	0.11
709.721	0.11
710.043	0.11
710.364	0.11
710.686	0.12
711.007	0.11
711.329	0.12
711.65	0.11
711.972	0.11
712.293	0.12
712.614	0.12
712.935	0.11
713.256	0.11
713.577	0.11
713.898	0.11
714.219	0.11
714.54	0.11
714.861	0.1
715.182	0.11
715.503	0.1
715.823	0.11
716.144	0.1
716.464	0.1
716.785	0.1
717.105	0.1
717.426	0.1
717.746	0.09
718.066	0.09
718.387	0.09
718.707	0.09
719.027	0.1
719.347	0.09
719.667	0.11
719.987	0.08
720.307	0.09
720.627	0.09
720.947	0.09
721.266	0.09
721.586	0.09
721.906	0.1
722.225	0.09
722.545	0.1
722.864	0.09
723.184	0.1
723.503	0.09
723.823	0.1
724.142	0.09
724.461	0.1
724.78	0.09
725.099	0.1
725.418	0.1
725.737	0.09
726.056	0.1
726.375	0.1
726.694	0.09
727.013	0.1
727.331	0.09
727.65	0.09
727.969	0.09
728.287	0.1
728.606	0.09
728.924	0.08
729.242	0.09
729.561	0.1
729.879	0.09
730.197	0.1
730.515	0.09
730.834	0.09
731.152	0.09
731.47	0.09
731.788	0.09
732.105	0.09
732.423	0.09
732.741	0.09
733.059	0.09
733.376	0.1
733.694	0.09
734.012	0.09
734.329	0.1
734.647	0.09
734.964	0.09
735.281	0.1
735.599	0.1
735.916	0.09
736.233	0.09
736.55	0.09
736.867	0.09
737.184	0.1
737.501	0.09
737.818	0.09
738.135	0.1
738.452	0.09
738.768	0.09
739.085	0.09
739.402	0.08
739.718	0.09
740.035	0.09
740.351	0.09
740.668	0.09
740.984	0.09
741.3	0.09
741.617	0.09
741.933	0.08
742.249	0.09
742.565	0.09
742.881	0.09
743.197	0.08
743.513	0.08
743.829	0.08
744.144	0.09
744.46	0.08
744.776	0.09
745.091	0.08
745.407	0.08
745.722	0.07
746.038	0.08
746.353	0.07
746.669	0.08
746.984	0.07
747.299	0.07
747.614	0.08
747.93	0.08
748.245	0.07
748.56	0.08
748.875	0.06
749.189	0.08
749.504	0.07
749.819	0.08
750.134	0.07
750.448	0.07
750.763	0.07
751.078	0.06
751.392	0.07
751.707	0.08
752.021	0.09
752.335	0.08
752.65	0.08
752.964	0.08
753.278	0.08
753.592	0.08
753.906	0.07
754.22	0.08
754.534	0.08
754.848	0.07
755.162	0.08
755.476	0.08
755.789	0.08
756.103	0.08
756.417	0.09
756.73	0.08
757.044	0.08
757.357	0.08
757.671	0.08
757.984	0.08
758.297	0.08
758.61	0.08
758.924	0.08
759.237	0.08
759.55	0.08
759.863	0.08
760.176	0.08
760.488	0.08
760.801	0.07
761.114	0.08
761.427	0.07
761.739	0.08
762.052	0.07
762.365	0.07
762.677	0.07
762.99	0.07
763.302	0.07
763.614	0.06
763.926	0.08
764.239	0.07
764.551	0.06
764.863	0.08
765.175	0.07
765.487	0.07
765.799	0.06
766.111	0.06
766.423	0.08
766.734	0.07
767.046	0.07
767.358	0.07
767.669	0.08
767.981	0.07
768.292	0.07
768.604	0.07
768.915	0.07
769.226	0.07
769.537	0.06
769.849	0.07
770.16	0.07
770.471	0.06
770.782	0.06
771.093	0.07
771.404	0.06
771.715	0.06
772.025	0.06
772.336	0.07
772.647	0.06
772.957	0.07
773.268	0.06
773.578	0.07
773.889	0.08
774.199	0.07
774.51	0.07
774.82	0.07
775.13	0.07
775.44	0.08
775.75	0.08
776.06	0.07
776.37	0.06
776.68	0.08
776.99	0.08
777.3	0.06
777.61	0.08
777.92	0.07
778.229	0.07
778.539	0.07
778.848	0.07
779.158	0.07
779.467	0.06
779.777	0.06
780.086	0.07
780.395	0.07
780.704	0.06
781.013	0.05
781.323	0.05
781.632	0.05
781.941	0.06
782.249	0.06
782.558	0.05
782.867	0.06
783.176	0.05
783.485	0.06
783.793	0.06
784.102	0.06
784.41	0.06
784.719	0.06
785.027	0.06
785.335	0.06
785.644	0.06
785.952	0.05
786.26	0.06
786.568	0.05
786.876	0.05
787.184	0.06
787.492	0.06
787.8	0.06
788.108	0.06
788.416	0.06
788.723	0.06
789.031	0.05
789.338	0.06
789.646	0.06
789.953	0.06
790.261	0.06
790.568	0.06
790.876	0.06
791.183	0.07
791.49	0.06
791.797	0.06
792.104	0.05
792.411	0.06
792.718	0.06
793.025	0.06
793.332	0.05
793.639	0.06
793.945	0.07
794.252	0.06
794.559	0.07
794.865	0.07
795.172	0.07
795.478	0.06
795.784	0.06
796.091	0.07
796.397	0.07
796.703	0.07
797.009	0.07
797.315	0.07
797.622	0.07
797.927	0.07
798.233	0.06
798.539	0.07
798.845	0.08
799.151	0.07
799.456	0.07
799.762	0.06
800.068	0.07
800.373	0.08
800.679	0.07
800.984	0.07
801.289	0.07
801.595	0.07
801.9	0.07
802.205	0.06
802.51	0.07
802.815	0.07
803.12	0.07
803.425	0.06
803.73	0.07
804.035	0.07
804.339	0.07
804.644	0.06
804.949	0.06
805.253	0.06
805.558	0.07
805.862	0.06
806.167	0.07
806.471	0.06
806.775	0.06
807.08	0.06
807.384	0.06
807.688	0.06
807.992	0.06
808.296	0.06
808.6	0.07
808.904	0.06
809.207	0.07
809.511	0.07
809.815	0.07
810.119	0.07
810.422	0.07
810.726	0.07
811.029	0.08
811.332	0.07
811.636	0.07
811.939	0.07
812.242	0.07
812.546	0.07
812.849	0.07
813.152	0.08
813.455	0.08
813.758	0.08
814.06	0.07
814.363	0.08
814.666	0.08
814.969	0.08
815.271	0.08
815.574	0.07
815.877	0.07
816.179	0.07
816.481	0.07
816.784	0.07
817.086	0.06
817.388	0.06
817.69	0.06
817.993	0.06
818.295	0.06
818.597	0.06
818.899	0.05
819.2	0.05
819.502	0.06
819.804	0.06
820.106	0.05
820.407	0.05
820.709	0.05
821.01	0.05
821.312	0.06
821.613	0.04
821.915	0.05
822.216	0.05
822.517	0.04
822.818	0.05
823.119	0.05
823.42	0.04
823.721	0.04
824.022	0.04
824.323	0.05
824.624	0.04
824.925	0.05
825.226	0.05
825.526	0.04
825.827	0.04
826.127	0.05
826.428	0.05
826.728	0.04
827.028	0.04
827.329	0.04
827.629	0.04
827.929	0.04
828.229	0.05
828.529	0.04
828.829	0.04
829.129	0.05
829.429	0.04
829.729	0.05
830.029	0.05
830.328	0.04
830.628	0.04
830.927	0.04
831.227	0.04
831.526	0.04
831.826	0.03
832.125	0.04
832.424	0.04
832.724	0.04
833.023	0.04
833.322	0.04
833.621	0.03
833.92	0.03
834.219	0.04
834.518	0.03
834.816	0.02
835.115	0.03
835.414	0.02
835.712	0.03
836.011	0.03
836.309	0.02
836.608	0.01
836.906	0.02
837.205	0.01
837.503	0.01
837.801	0.01
838.099	0
838.397	-0
838.695	0
838.993	0.01
839.291	-0
839.589	-0
839.887	-0.01
840.184	-0.01
840.482	-0
840.78	-0
841.077	-0.01
841.375	-0.01
841.672	-0
841.969	-0.01
842.267	-0
842.564	-0
842.861	-0
843.158	-0
843.455	-0.02
843.752	-0.01
844.049	-0.01
844.346	-0.01
844.643	-0.02
844.94	-0.02
845.236	0
845.533	-0.01
845.83	-0.02
846.126	-0.02
846.423	-0.02
846.719	-0.03
847.015	-0.02
847.312	-0.02
847.608	-0.03
847.904	-0.03
848.2	-0.03
848.496	-0.03
848.792	-0.02
849.088	-0.02
849.384	-0.03
849.68	-0.03
849.975	-0.03
850.271	-0.03
850.567	-0.04
850.862	-0.04
851.158	-0.04
851.453	-0.03
851.748	-0.05
852.044	-0.04
852.339	-0.04
852.634	-0.05
852.929	-0.04
853.224	-0.05
853.519	-0.05
853.814	-0.04
854.109	-0.06
854.404	-0.05
854.699	-0.05
854.994	-0.05
855.288	-0.05
855.583	-0.05
855.877	-0.06
856.172	-0.05
856.466	-0.06
856.76	-0.06
857.055	-0.06
857.349	-0.06
857.643	-0.07
857.937	-0.08
858.231	-0.07
858.525	-0.09
858.819	-0.09
859.113	-0.1
859.407	-0.1
859.701	-0.1
859.994	-0.1
860.288	-0.09
860.581	-0.09
860.875	-0.09
861.168	-0.1
861.462	-0.1
861.755	-0.1
862.048	-0.1
862.341	-0.11
862.634	-0.1
862.928	-0.11
863.221	-0.1
863.513	-0.12
863.806	-0.1
864.099	-0.11
864.392	-0.11
864.685	-0.1
864.977	-0.11
865.27	-0.11
865.562	-0.11
865.855	-0.1
866.147	-0.12
866.44	-0.12
866.732	-0.12
867.024	-0.12
867.316	-0.12
867.608	-0.12
867.9	-0.12
868.192	-0.11
868.484	-0.12
868.776	-0.12
869.068	-0.12
869.359	-0.12
869.651	-0.12
869.943	-0.13
870.234	-0.13
870.526	-0.14
870.817	-0.14
871.108	-0.13
871.4	-0.13
871.691	-0.15
871.982	-0.14
872.273	-0.16
872.564	-0.15
872.855	-0.15
873.146	-0.15
873.437	-0.15
873.728	-0.16
874.019	-0.15
874.309	-0.16
874.6	-0.16
874.89	-0.15
875.181	-0.15
875.471	-0.15
875.762	-0.16
876.052	-0.15
876.342	-0.14
876.632	-0.15
876.922	-0.17
877.213	-0.16
877.503	-0.17
877.792	-0.16
878.082	-0.17
878.372	-0.17
878.662	-0.18
878.952	-0.17
879.241	-0.16
879.531	-0.15
879.82	-0.16
880.11	-0.16
880.399	-0.16
880.688	-0.15
880.978	-0.15
881.267	-0.15
