Data from 12-12-AQDScycling_Absorbance__468__00468.txt Node

Date: Tue Dec 12 12:53:44 EST 2023
User: kyuminlee
Spectrometer: FLMS00943
Trigger mode: 0
Integration Time (sec): 1.000000E-1
Scans to average: 1
Electric dark correction enabled: true
Nonlinearity correction enabled: false
Boxcar width: 0
XAxis mode: Wavelengths
Number of Pixels in Spectrum: 2048
>>>>>Begin Spectral Data<<<<<
179.651	-0
180.037	-0
180.424	-0
180.81	-0.31
181.197	0.13
181.583	-0.33
181.97	-0.28
182.356	-0.66
182.743	-0
183.129	0.28
183.515	1.23
183.901	-0
184.288	0.43
184.674	1.44
185.06	-1.11
185.446	-0
185.832	-1.03
186.218	0.67
186.604	-0
186.99	-0
187.376	-0
187.762	-0.35
188.148	0.22
188.534	-0.18
188.92	0.09
189.305	0.06
189.691	0.38
190.077	0.21
190.463	0.04
190.848	-0.01
191.234	0.21
191.619	0.06
192.005	0.13
192.391	0.13
192.776	0.12
193.161	0.3
193.547	0.12
193.932	0
194.318	0.05
194.703	0.28
195.088	0.01
195.473	0.11
195.859	0.32
196.244	0.21
196.629	0.1
197.014	0.03
197.399	0.18
197.784	0.23
198.169	0.06
198.554	0.14
198.939	0.13
199.324	-0.02
199.709	-0.02
200.094	0.09
200.478	0.06
200.863	0.25
201.248	0.1
201.633	0.17
202.017	0.04
202.402	0.25
202.787	0.16
203.171	0.05
203.556	0.18
203.94	0.06
204.325	0.13
204.709	0.17
205.093	0.19
205.478	0.07
205.862	0.08
206.246	0.05
206.631	0.07
207.015	0.12
207.399	0.2
207.783	0.06
208.167	0.1
208.551	0.16
208.935	0.08
209.319	0.17
209.703	0.12
210.087	0.19
210.471	0.03
210.855	0.08
211.239	0.17
211.623	0.19
212.007	0.05
212.39	0.33
212.774	0.2
213.158	0.16
213.541	0.23
213.925	0.23
214.309	0.36
214.692	0.44
215.076	0.11
215.459	0.08
215.842	0.14
216.226	0.28
216.609	0.23
216.993	0.24
217.376	0.36
217.759	0.24
218.142	0.26
218.525	0.43
218.909	0.32
219.292	0.35
219.675	0.45
220.058	0.31
220.441	0.39
220.824	0.4
221.207	0.6
221.59	0.44
221.973	0.51
222.355	0.56
222.738	0.59
223.121	0.58
223.504	0.62
223.886	0.67
224.269	0.69
224.652	0.63
225.034	0.69
225.417	0.65
225.799	0.66
226.182	0.74
226.564	0.91
226.947	0.78
227.329	0.76
227.711	0.89
228.094	0.84
228.476	0.8
228.858	0.77
229.24	0.77
229.623	0.9
230.005	0.8
230.387	0.89
230.769	0.91
231.151	1.06
231.533	0.92
231.915	1.01
232.297	1.14
232.679	0.89
233.061	0.9
233.442	1.12
233.824	1.07
234.206	1.1
234.588	1.08
234.969	1.05
235.351	0.94
235.733	1.06
236.114	1.11
236.496	1.02
236.877	0.99
237.259	0.93
237.64	1.02
238.022	0.89
238.403	1.03
238.784	1.1
239.165	1.02
239.547	1.11
239.928	1.09
240.309	0.95
240.69	0.94
241.071	1.12
241.452	1.19
241.834	0.92
242.215	1.13
242.595	1.07
242.976	1.06
243.357	0.99
243.738	1.1
244.119	1.2
244.5	1.07
244.881	1.21
245.261	1.15
245.642	1.18
246.023	1.13
246.403	1.08
246.784	1.32
247.164	1.31
247.545	1.22
247.925	1.28
248.306	1.26
248.686	1.33
249.067	1.23
249.447	1.35
249.827	1.38
250.207	1.41
250.588	1.22
250.968	1.41
251.348	1.21
251.728	1.31
252.108	1.33
252.488	1.28
252.868	1.39
253.248	1.22
253.628	1.46
254.008	1.4
254.388	1.24
254.768	1.39
255.147	1.37
255.527	1.41
255.907	1.29
256.287	1.31
256.666	1.44
257.046	1.43
257.425	1.5
257.805	1.24
258.184	1.25
258.564	1.38
258.943	1.32
259.323	1.57
259.702	1.39
260.081	1.49
260.461	1.31
260.84	1.44
261.219	1.58
261.598	1.55
261.977	1.35
262.356	1.7
262.736	1.37
263.115	1.44
263.494	1.37
263.873	1.43
264.251	1.53
264.63	1.65
265.009	1.35
265.388	1.44
265.767	1.37
266.145	1.38
266.524	1.35
266.903	1.42
267.281	1.3
267.66	1.39
268.039	1.41
268.417	1.33
268.796	1.42
269.174	1.43
269.552	1.28
269.931	1.37
270.309	1.42
270.687	1.51
271.066	1.54
271.444	1.34
271.822	1.39
272.2	1.51
272.578	1.35
272.956	1.33
273.334	1.32
273.712	1.39
274.09	1.35
274.468	1.47
274.846	1.31
275.224	1.22
275.602	1.37
275.98	1.45
276.357	1.3
276.735	1.33
277.113	1.35
277.49	1.38
277.868	1.25
278.246	1.42
278.623	1.25
279.001	1.23
279.378	1.34
279.756	1.48
280.133	1.57
280.51	1.34
280.888	1.38
281.265	1.27
281.642	1.4
282.019	1.5
282.396	1.54
282.773	1.4
283.151	1.58
283.528	1.5
283.905	1.33
284.282	1.47
284.659	1.51
285.035	1.39
285.412	1.31
285.789	1.49
286.166	1.51
286.543	1.55
286.919	1.49
287.296	1.39
287.673	1.61
288.049	1.49
288.426	1.49
288.802	1.42
289.179	1.5
289.555	1.65
289.932	1.42
290.308	1.29
290.684	1.31
291.061	1.46
291.437	1.65
291.813	1.47
292.189	1.27
292.565	1.31
292.942	1.27
293.318	1.36
293.694	1.43
294.07	1.35
294.446	1.35
294.822	1.52
295.197	1.4
295.573	1.49
295.949	1.42
296.325	1.52
296.701	1.44
297.076	1.56
297.452	1.5
297.828	1.46
298.203	1.45
298.579	1.42
298.954	1.4
299.33	1.43
299.705	1.45
300.081	1.51
300.456	1.59
300.831	1.44
301.206	1.47
301.582	1.63
301.957	1.45
302.332	1.52
302.707	1.55
303.082	1.44
303.457	1.43
303.832	1.45
304.207	1.42
304.582	1.51
304.957	1.61
305.332	1.62
305.707	1.41
306.082	1.48
306.456	1.61
306.831	1.4
307.206	1.48
307.58	1.66
307.955	1.47
308.33	1.57
308.704	1.51
309.079	1.47
309.453	1.71
309.828	1.49
310.202	1.43
310.576	1.51
310.951	1.51
311.325	1.51
311.699	1.48
312.073	1.41
312.447	1.43
312.821	1.44
313.196	1.51
313.57	1.36
313.944	1.53
314.317	1.46
314.691	1.53
315.065	1.59
315.439	1.44
315.813	1.43
316.187	1.45
316.56	1.72
316.934	1.69
317.308	1.62
317.681	1.54
318.055	1.54
318.428	1.48
318.802	1.64
319.175	1.42
319.549	1.5
319.922	1.38
320.295	1.45
320.669	1.82
321.042	1.54
321.415	1.79
321.788	1.49
322.162	1.42
322.535	1.64
322.908	1.73
323.281	1.47
323.654	1.68
324.027	1.54
324.4	1.37
324.773	1.63
325.145	1.55
325.518	1.48
325.891	1.55
326.264	1.62
326.636	1.47
327.009	1.47
327.382	1.41
327.754	1.65
328.127	1.55
328.499	1.42
328.872	1.45
329.244	1.51
329.616	1.45
329.989	1.44
330.361	1.49
330.733	1.41
331.106	1.43
331.478	1.56
331.85	1.54
332.222	1.35
332.594	1.54
332.966	1.47
333.338	1.64
333.71	1.65
334.082	1.53
334.454	1.37
334.826	1.44
335.197	1.55
335.569	1.43
335.941	1.38
336.312	1.48
336.684	1.37
337.056	1.45
337.427	1.49
337.799	1.57
338.17	1.66
338.542	1.42
338.913	1.58
339.284	1.54
339.656	1.46
340.027	1.46
340.398	1.54
340.769	1.59
341.141	1.77
341.512	1.57
341.883	1.52
342.254	1.43
342.625	1.48
342.996	1.5
343.367	1.43
343.738	1.43
344.108	1.46
344.479	1.61
344.85	1.4
345.221	1.57
345.591	1.37
345.962	1.4
346.333	1.5
346.703	1.26
347.074	1.36
347.444	1.23
347.815	1.36
348.185	1.45
348.556	1.25
348.926	1.37
349.296	1.26
349.666	1.33
350.037	1.34
350.407	1.22
350.777	1.36
351.147	1.29
351.517	1.39
351.887	1.34
352.257	1.46
352.627	1.2
352.997	1.35
353.367	1.34
353.737	1.31
354.106	1.35
354.476	1.29
354.846	1.38
355.216	1.34
355.585	1.28
355.955	1.19
356.324	1.26
356.694	1.26
357.063	1.2
357.433	1.16
357.802	1.19
358.171	1.26
358.541	1.17
358.91	1.17
359.279	1.13
359.648	1.09
360.017	1.05
360.387	1.1
360.756	1.01
361.125	1
361.494	0.97
361.863	0.96
362.231	0.94
362.6	0.94
362.969	0.93
363.338	0.85
363.707	0.89
364.075	0.89
364.444	0.79
364.813	0.8
365.181	0.8
365.55	0.76
365.918	0.76
366.287	0.73
366.655	0.72
367.024	0.7
367.392	0.7
367.76	0.66
368.128	0.65
368.497	0.64
368.865	0.61
369.233	0.61
369.601	0.59
369.969	0.59
370.337	0.56
370.705	0.54
371.073	0.56
371.441	0.52
371.809	0.5
372.177	0.49
372.544	0.51
372.912	0.47
373.28	0.47
373.647	0.48
374.015	0.47
374.383	0.45
374.75	0.44
375.118	0.42
375.485	0.4
375.853	0.44
376.22	0.38
376.587	0.39
376.955	0.38
377.322	0.37
377.689	0.37
378.056	0.35
378.423	0.35
378.79	0.36
379.157	0.35
379.524	0.33
379.891	0.34
380.258	0.34
380.625	0.31
380.992	0.33
381.359	0.31
381.726	0.32
382.092	0.3
382.459	0.31
382.826	0.3
383.192	0.3
383.559	0.29
383.925	0.28
384.292	0.28
384.658	0.27
385.025	0.27
385.391	0.28
385.757	0.27
386.123	0.27
386.49	0.27
386.856	0.28
387.222	0.26
387.588	0.26
387.954	0.25
388.32	0.27
388.686	0.24
389.052	0.23
389.418	0.25
389.784	0.25
390.15	0.25
390.515	0.25
390.881	0.24
391.247	0.25
391.613	0.25
391.978	0.23
392.344	0.24
392.709	0.23
393.075	0.23
393.44	0.21
393.806	0.22
394.171	0.23
394.536	0.22
394.902	0.21
395.267	0.2
395.632	0.2
395.997	0.23
396.362	0.21
396.727	0.22
397.092	0.22
397.457	0.21
397.822	0.22
398.187	0.22
398.552	0.2
398.917	0.19
399.282	0.21
399.646	0.2
400.011	0.21
400.376	0.2
400.74	0.22
401.105	0.22
401.47	0.22
401.834	0.2
402.199	0.2
402.563	0.18
402.927	0.18
403.292	0.2
403.656	0.2
404.02	0.21
404.384	0.2
404.749	0.19
405.113	0.21
405.477	0.19
405.841	0.17
406.205	0.19
406.569	0.18
406.933	0.18
407.296	0.19
407.66	0.19
408.024	0.19
408.388	0.2
408.752	0.18
409.115	0.18
409.479	0.17
409.842	0.17
410.206	0.16
410.569	0.17
410.933	0.19
411.296	0.18
411.66	0.16
412.023	0.17
412.386	0.16
412.749	0.17
413.113	0.15
413.476	0.15
413.839	0.16
414.202	0.15
414.565	0.14
414.928	0.16
415.291	0.13
415.654	0.15
416.017	0.15
416.38	0.14
416.742	0.14
417.105	0.12
417.468	0.16
417.83	0.15
418.193	0.14
418.556	0.14
418.918	0.15
419.281	0.14
419.643	0.15
420.005	0.14
420.368	0.15
420.73	0.14
421.092	0.15
421.455	0.13
421.817	0.13
422.179	0.13
422.541	0.13
422.903	0.13
423.265	0.13
423.627	0.11
423.989	0.12
424.351	0.12
424.713	0.12
425.075	0.11
425.436	0.1
425.798	0.11
426.16	0.12
426.521	0.12
426.883	0.14
427.245	0.12
427.606	0.11
427.967	0.12
428.329	0.12
428.69	0.13
429.052	0.12
429.413	0.12
429.774	0.12
430.135	0.1
430.497	0.09
430.858	0.1
431.219	0.1
431.58	0.11
431.941	0.11
432.302	0.12
432.663	0.11
433.024	0.12
433.384	0.12
433.745	0.09
434.106	0.1
434.467	0.11
434.827	0.12
435.188	0.12
435.548	0.11
435.909	0.1
436.269	0.13
436.63	0.09
436.99	0.11
437.351	0.11
437.711	0.11
438.071	0.1
438.431	0.11
438.792	0.1
439.152	0.1
439.512	0.11
439.872	0.11
440.232	0.12
440.592	0.11
440.952	0.11
441.312	0.1
441.671	0.08
442.031	0.09
442.391	0.09
442.751	0.09
443.11	0.09
443.47	0.09
443.83	0.09
444.189	0.09
444.549	0.1
444.908	0.1
445.267	0.09
445.627	0.09
445.986	0.08
446.345	0.08
446.705	0.09
447.064	0.09
447.423	0.09
447.782	0.09
448.141	0.1
448.5	0.08
448.859	0.1
449.218	0.09
449.577	0.08
449.936	0.09
450.295	0.09
450.653	0.09
451.012	0.09
451.371	0.1
451.729	0.1
452.088	0.1
452.447	0.09
452.805	0.1
453.163	0.1
453.522	0.1
453.88	0.08
454.239	0.09
454.597	0.09
454.955	0.09
455.313	0.08
455.671	0.09
456.029	0.08
456.388	0.09
456.746	0.08
457.104	0.08
457.461	0.07
457.819	0.09
458.177	0.07
458.535	0.07
458.893	0.08
459.25	0.07
459.608	0.07
459.966	0.07
460.323	0.07
460.681	0.06
461.038	0.07
461.396	0.07
461.753	0.06
462.111	0.06
462.468	0.06
462.825	0.07
463.182	0.06
463.54	0.06
463.897	0.07
464.254	0.07
464.611	0.07
464.968	0.06
465.325	0.07
465.682	0.07
466.039	0.08
466.395	0.06
466.752	0.07
467.109	0.06
467.466	0.07
467.822	0.07
468.179	0.06
468.535	0.06
468.892	0.06
469.248	0.06
469.605	0.05
469.961	0.06
470.318	0.07
470.674	0.06
471.03	0.06
471.386	0.06
471.743	0.06
472.099	0.06
472.455	0.06
472.811	0.06
473.167	0.06
473.523	0.06
473.879	0.05
474.235	0.05
474.59	0.05
474.946	0.05
475.302	0.06
475.657	0.05
476.013	0.05
476.369	0.05
476.724	0.06
477.08	0.05
477.435	0.05
477.791	0.06
478.146	0.06
478.501	0.05
478.857	0.06
479.212	0.06
479.567	0.05
479.922	0.05
480.277	0.06
480.632	0.05
480.987	0.05
481.342	0.05
481.697	0.05
482.052	0.05
482.407	0.05
482.762	0.05
483.116	0.05
483.471	0.05
483.826	0.04
484.18	0.04
484.535	0.04
484.89	0.04
485.244	0.05
485.598	0.05
485.953	0.04
486.307	0.05
486.661	0.05
487.016	0.05
487.37	0.05
487.724	0.04
488.078	0.04
488.432	0.05
488.786	0.05
489.14	0.05
489.494	0.04
489.848	0.04
490.202	0.04
490.556	0.04
490.91	0.05
491.263	0.04
491.617	0.04
491.971	0.05
492.324	0.05
492.678	0.05
493.031	0.05
493.385	0.05
493.738	0.04
494.091	0.05
494.445	0.05
494.798	0.04
495.151	0.04
495.504	0.04
495.857	0.04
496.21	0.04
496.564	0.04
496.916	0.04
497.269	0.04
497.622	0.05
497.975	0.04
498.328	0.05
498.681	0.04
499.033	0.04
499.386	0.05
499.739	0.04
500.091	0.04
500.444	0.04
500.796	0.03
501.149	0.04
501.501	0.04
501.854	0.04
502.206	0.04
502.558	0.04
502.91	0.04
503.263	0.04
503.615	0.04
503.967	0.04
504.319	0.05
504.671	0.04
505.023	0.04
505.375	0.04
505.726	0.04
506.078	0.04
506.43	0.03
506.782	0.03
507.133	0.04
507.485	0.04
507.837	0.04
508.188	0.04
508.54	0.04
508.891	0.04
509.243	0.03
509.594	0.04
509.945	0.04
510.296	0.03
510.648	0.03
510.999	0.03
511.35	0.04
511.701	0.04
512.052	0.04
512.403	0.04
512.754	0.04
513.105	0.03
513.456	0.03
513.807	0.04
514.157	0.04
514.508	0.04
514.859	0.03
515.209	0.03
515.56	0.04
515.91	0.04
516.261	0.04
516.611	0.04
516.962	0.03
517.312	0.04
517.662	0.04
518.013	0.03
518.363	0.04
518.713	0.04
519.063	0.04
519.413	0.04
519.763	0.04
520.113	0.04
520.463	0.05
520.813	0.04
521.163	0.04
521.512	0.04
521.862	0.03
522.212	0.04
522.562	0.04
522.911	0.04
523.261	0.03
523.61	0.04
523.96	0.04
524.309	0.04
524.658	0.04
525.008	0.03
525.357	0.04
525.706	0.04
526.056	0.04
526.405	0.04
526.754	0.04
527.103	0.03
527.452	0.04
527.801	0.04
528.15	0.04
528.499	0.04
528.847	0.03
529.196	0.04
529.545	0.04
529.893	0.04
530.242	0.04
530.591	0.04
530.939	0.05
531.288	0.04
531.636	0.05
531.985	0.05
532.333	0.04
532.681	0.04
533.029	0.04
533.378	0.04
533.726	0.04
534.074	0.05
534.422	0.04
534.77	0.05
535.118	0.04
535.466	0.04
535.814	0.03
536.162	0.04
536.509	0.05
536.857	0.04
537.205	0.05
537.552	0.04
537.9	0.04
538.248	0.03
538.595	0.04
538.943	0.04
539.29	0.04
539.637	0.04
539.985	0.04
540.332	0.04
540.679	0.04
541.026	0.03
541.373	0.04
541.721	0.03
542.068	0.04
542.415	0.04
542.762	0.03
543.108	0.03
543.455	0.03
543.802	0.03
544.149	0.02
544.496	0.02
544.842	0.03
545.189	0.02
545.535	0.03
545.882	0.03
546.228	0.02
546.575	0.02
546.921	0.02
547.267	0.02
547.614	0.03
547.96	0.02
548.306	0.03
548.652	0.02
548.998	0.03
549.344	0.02
549.69	0.02
550.036	0.03
550.382	0.03
550.728	0.02
551.074	0.03
551.42	0.03
551.765	0.03
552.111	0.03
552.457	0.04
552.802	0.03
553.148	0.02
553.493	0.02
553.839	0.03
554.184	0.03
554.529	0.02
554.875	0.03
555.22	0.03
555.565	0.03
555.91	0.03
556.255	0.04
556.6	0.03
556.945	0.02
557.29	0.03
557.635	0.03
557.98	0.03
558.325	0.02
558.67	0.03
559.014	0.03
559.359	0.03
559.704	0.03
560.048	0.02
560.393	0.02
560.737	0.03
561.082	0.03
561.426	0.02
561.77	0.03
562.115	0.03
562.459	0.03
562.803	0.03
563.147	0.02
563.491	0.03
563.835	0.03
564.179	0.03
564.523	0.02
564.867	0.03
565.211	0.03
565.555	0.03
565.899	0.04
566.242	0.03
566.586	0.02
566.93	0.03
567.273	0.03
567.617	0.04
567.96	0.03
568.304	0.04
568.647	0.03
568.99	0.03
569.334	0.03
569.677	0.03
570.02	0.03
570.363	0.04
570.706	0.04
571.049	0.03
571.392	0.04
571.735	0.03
572.078	0.03
572.421	0.03
572.764	0.03
573.106	0.03
573.449	0.03
573.792	0.03
574.134	0.02
574.477	0.03
574.819	0.02
575.162	0.03
575.504	0.02
575.847	0.03
576.189	0.03
576.531	0.03
576.873	0.03
577.215	0.03
577.558	0.03
577.9	0.01
578.242	0.03
578.584	0.03
578.926	0.03
579.267	0.03
579.609	0.03
579.951	0.02
580.293	0.03
580.634	0.03
580.976	0.03
581.318	0.02
581.659	0.02
582.001	0.03
582.342	0.02
582.683	0.03
583.025	0.02
583.366	0.02
583.707	0.02
584.049	0.03
584.39	0.02
584.731	0.02
585.072	0.02
585.413	0.03
585.754	0.02
586.095	0.03
586.435	0.02
586.776	0.03
587.117	0.03
587.458	0.02
587.798	0.03
588.139	0.03
588.48	0.02
588.82	0.02
589.161	0.02
589.501	0.02
589.841	0.02
590.182	0.02
590.522	0.02
590.862	0.03
591.202	0.02
591.542	0.02
591.882	0.02
592.222	0.03
592.562	0.02
592.902	0.03
593.242	0.02
593.582	0.03
593.922	0.02
594.261	0.02
594.601	0.03
594.941	0.03
595.28	0.03
595.62	0.03
595.959	0.03
596.299	0.03
596.638	0.03
596.977	0.03
597.317	0.04
597.656	0.03
597.995	0.03
598.334	0.04
598.673	0.03
599.012	0.03
599.351	0.04
599.69	0.03
600.029	0.03
600.368	0.03
600.707	0.03
601.046	0.03
601.384	0.03
601.723	0.03
602.061	0.03
602.4	0.03
602.738	0.04
603.077	0.03
603.415	0.03
603.754	0.03
604.092	0.03
604.43	0.02
604.768	0.03
605.107	0.03
605.445	0.02
605.783	0.02
606.121	0.02
606.459	0.03
606.796	0.03
607.134	0.02
607.472	0.02
607.81	0.03
608.148	0.03
608.485	0.03
608.823	0.02
609.16	0.02
609.498	0.02
609.835	0.02
610.173	0.02
610.51	0.03
610.847	0.03
611.185	0.03
611.522	0.04
611.859	0.03
612.196	0.03
612.533	0.04
612.87	0.04
613.207	0.04
613.544	0.04
613.881	0.04
614.217	0.04
614.554	0.04
614.891	0.04
615.228	0.04
615.564	0.04
615.901	0.03
616.237	0.04
616.574	0.04
616.91	0.04
617.246	0.04
617.583	0.04
617.919	0.04
618.255	0.04
618.591	0.04
618.927	0.04
619.263	0.05
619.599	0.04
619.935	0.04
620.271	0.04
620.607	0.04
620.943	0.03
621.279	0.04
621.614	0.04
621.95	0.04
622.286	0.04
622.621	0.04
622.957	0.04
623.292	0.03
623.627	0.04
623.963	0.03
624.298	0.04
624.633	0.03
624.968	0.03
625.304	0.03
625.639	0.03
625.974	0.03
626.309	0.03
626.644	0.03
626.979	0.03
627.313	0.03
627.648	0.03
627.983	0.04
628.318	0.03
628.652	0.02
628.987	0.03
629.321	0.03
629.656	0.02
629.99	0.02
630.325	0.03
630.659	0.03
630.993	0.02
631.327	0.03
631.662	0.02
631.996	0.03
632.33	0.02
632.664	0.03
632.998	0.03
633.332	0.03
633.666	0.03
633.999	0.03
634.333	0.03
634.667	0.03
635.001	0.02
635.334	0.03
635.668	0.02
636.001	0.02
636.335	0.03
636.668	0.03
637.001	0.02
637.335	0.03
637.668	0.03
638.001	0.02
638.334	0.03
638.668	0.03
639.001	0.02
639.334	0.02
639.667	0.02
639.999	0.03
640.332	0.03
640.665	0.03
640.998	0.03
641.331	0.03
641.663	0.02
641.996	0.03
642.328	0.03
642.661	0.02
642.993	0.02
643.326	0.03
643.658	0.02
643.99	0.02
644.323	0.02
644.655	0.02
644.987	0.02
645.319	0.03
645.651	0.03
645.983	0.02
646.315	0.02
646.647	0.02
646.979	0.03
647.31	0.03
647.642	0.02
647.974	0.02
648.305	0.04
648.637	0.03
648.968	0.03
649.3	0.03
649.631	0.03
649.963	0.03
650.294	0.04
650.625	0.03
650.957	0.03
651.288	0.03
651.619	0.03
651.95	0.03
652.281	0.04
652.612	0.04
652.943	0.03
653.274	0.04
653.604	0.03
653.935	0.03
654.266	0.03
654.596	0.03
654.927	0.03
655.258	0.03
655.588	0.04
655.918	0.04
656.249	0.02
656.579	0.03
656.909	0.03
657.24	0.03
657.57	0.04
657.9	0.04
658.23	0.04
658.56	0.04
658.89	0.04
659.22	0.03
659.55	0.04
659.88	0.04
660.209	0.04
660.539	0.05
660.869	0.04
661.198	0.04
661.528	0.04
661.857	0.04
662.187	0.04
662.516	0.04
662.846	0.03
663.175	0.04
663.504	0.04
663.833	0.03
664.163	0.04
664.492	0.03
664.821	0.04
665.15	0.03
665.479	0.04
665.807	0.04
666.136	0.04
666.465	0.04
666.794	0.03
667.122	0.03
667.451	0.03
667.78	0.03
668.108	0.04
668.437	0.03
668.765	0.04
669.093	0.04
669.422	0.03
669.75	0.03
670.078	0.04
670.406	0.04
670.734	0.04
671.062	0.04
671.39	0.03
671.718	0.04
672.046	0.03
672.374	0.03
672.702	0.03
673.029	0.03
673.357	0.04
673.685	0.04
674.012	0.04
674.34	0.03
674.667	0.04
674.995	0.04
675.322	0.04
675.649	0.03
675.977	0.05
676.304	0.04
676.631	0.04
676.958	0.04
677.285	0.03
677.612	0.03
677.939	0.03
678.266	0.04
678.593	0.04
678.92	0.04
679.246	0.04
679.573	0.04
679.9	0.04
680.226	0.03
680.553	0.03
680.879	0.04
681.206	0.04
681.532	0.03
681.858	0.04
682.184	0.03
682.511	0.04
682.837	0.04
683.163	0.04
683.489	0.04
683.815	0.03
684.141	0.04
684.467	0.04
684.793	0.03
685.118	0.03
685.444	0.03
685.77	0.03
686.095	0.04
686.421	0.04
686.746	0.03
687.072	0.04
687.397	0.04
687.723	0.05
688.048	0.04
688.373	0.04
688.698	0.04
689.023	0.04
689.349	0.04
689.674	0.04
689.999	0.03
690.323	0.03
690.648	0.04
690.973	0.04
691.298	0.04
691.623	0.04
691.947	0.04
692.272	0.04
692.596	0.04
692.921	0.04
693.245	0.04
693.57	0.04
693.894	0.04
694.218	0.04
694.543	0.04
694.867	0.04
695.191	0.03
695.515	0.04
695.839	0.03
696.163	0.04
696.487	0.04
696.811	0.04
697.135	0.04
697.458	0.04
697.782	0.03
698.106	0.03
698.429	0.04
698.753	0.03
699.076	0.04
699.4	0.04
699.723	0.04
700.046	0.03
700.37	0.04
700.693	0.04
701.016	0.04
701.339	0.04
701.662	0.04
701.985	0.04
702.308	0.04
702.631	0.04
702.954	0.04
703.277	0.04
703.599	0.04
703.922	0.03
704.245	0.03
704.567	0.04
704.89	0.03
705.212	0.03
705.535	0.03
705.857	0.02
706.179	0.03
706.502	0.03
706.824	0.02
707.146	0.03
707.468	0.03
707.79	0.03
708.112	0.04
708.434	0.04
708.756	0.04
709.078	0.04
709.399	0.04
709.721	0.03
710.043	0.04
710.364	0.04
710.686	0.03
711.007	0.03
711.329	0.04
711.65	0.04
711.972	0.03
712.293	0.04
712.614	0.04
712.935	0.04
713.256	0.04
713.577	0.05
713.898	0.04
714.219	0.04
714.54	0.04
714.861	0.03
715.182	0.03
715.503	0.03
715.823	0.03
716.144	0.03
716.464	0.02
716.785	0.03
717.105	0.03
717.426	0.03
717.746	0.03
718.066	0.03
718.387	0.03
718.707	0.02
719.027	0.03
719.347	0.02
719.667	0.03
719.987	0.03
720.307	0.03
720.627	0.02
720.947	0.03
721.266	0.03
721.586	0.03
721.906	0.03
722.225	0.02
722.545	0.03
722.864	0.02
723.184	0.03
723.503	0.03
723.823	0.03
724.142	0.03
724.461	0.03
724.78	0.03
725.099	0.03
725.418	0.02
725.737	0.03
726.056	0.03
726.375	0.03
726.694	0.03
727.013	0.03
727.331	0.02
727.65	0.03
727.969	0.03
728.287	0.04
728.606	0.03
728.924	0.04
729.242	0.03
729.561	0.03
729.879	0.03
730.197	0.03
730.515	0.03
730.834	0.03
731.152	0.03
731.47	0.03
731.788	0.03
732.105	0.02
732.423	0.03
732.741	0.03
733.059	0.03
733.376	0.03
733.694	0.03
734.012	0.03
734.329	0.04
734.647	0.03
734.964	0.04
735.281	0.04
735.599	0.04
735.916	0.04
736.233	0.03
736.55	0.03
736.867	0.03
737.184	0.04
737.501	0.04
737.818	0.04
738.135	0.04
738.452	0.03
738.768	0.04
739.085	0.03
739.402	0.02
739.718	0.03
740.035	0.03
740.351	0.04
740.668	0.04
740.984	0.03
741.3	0.04
741.617	0.04
741.933	0.03
742.249	0.04
742.565	0.04
742.881	0.04
743.197	0.04
743.513	0.03
743.829	0.03
744.144	0.03
744.46	0.03
744.776	0.04
745.091	0.03
745.407	0.03
745.722	0.03
746.038	0.03
746.353	0.03
746.669	0.03
746.984	0.02
747.299	0.02
747.614	0.03
747.93	0.04
748.245	0.02
748.56	0.03
748.875	0.03
749.189	0.02
749.504	0.03
749.819	0.03
750.134	0.03
750.448	0.04
750.763	0.03
751.078	0.03
751.392	0.03
751.707	0.04
752.021	0.04
752.335	0.04
752.65	0.04
752.964	0.04
753.278	0.04
753.592	0.03
753.906	0.03
754.22	0.03
754.534	0.04
754.848	0.04
755.162	0.03
755.476	0.04
755.789	0.04
756.103	0.03
756.417	0.04
756.73	0.04
757.044	0.04
757.357	0.04
757.671	0.05
757.984	0.04
758.297	0.05
758.61	0.04
758.924	0.04
759.237	0.04
759.55	0.04
759.863	0.04
760.176	0.04
760.488	0.03
760.801	0.04
761.114	0.04
761.427	0.03
761.739	0.04
762.052	0.04
762.365	0.03
762.677	0.04
762.99	0.03
763.302	0.03
763.614	0.03
763.926	0.04
764.239	0.03
764.551	0.03
764.863	0.04
765.175	0.04
765.487	0.03
765.799	0.02
766.111	0.03
766.423	0.03
766.734	0.04
767.046	0.03
767.358	0.03
767.669	0.04
767.981	0.03
768.292	0.04
768.604	0.04
768.915	0.03
769.226	0.03
769.537	0.02
769.849	0.04
770.16	0.03
770.471	0.03
770.782	0.03
771.093	0.03
771.404	0.02
771.715	0.02
772.025	0.02
772.336	0.03
772.647	0.03
772.957	0.03
773.268	0.03
773.578	0.02
773.889	0.03
774.199	0.03
774.51	0.04
774.82	0.02
775.13	0.03
775.44	0.03
775.75	0.04
776.06	0.04
776.37	0.03
776.68	0.04
776.99	0.04
777.3	0.04
777.61	0.04
777.92	0.03
778.229	0.03
778.539	0.03
778.848	0.03
779.158	0.04
779.467	0.04
779.777	0.04
780.086	0.04
780.395	0.03
780.704	0.04
781.013	0.03
781.323	0.03
781.632	0.03
781.941	0.03
782.249	0.03
782.558	0.02
782.867	0.03
783.176	0.03
783.485	0.03
783.793	0.03
784.102	0.03
784.41	0.03
784.719	0.03
785.027	0.02
785.335	0.03
785.644	0.03
785.952	0.03
786.26	0.03
786.568	0.02
786.876	0.02
787.184	0.03
787.492	0.03
787.8	0.03
788.108	0.03
788.416	0.03
788.723	0.03
789.031	0.02
789.338	0.03
789.646	0.03
789.953	0.04
790.261	0.03
790.568	0.04
790.876	0.03
791.183	0.04
791.49	0.03
791.797	0.03
792.104	0.03
792.411	0.04
792.718	0.03
793.025	0.04
793.332	0.03
793.639	0.04
793.945	0.04
794.252	0.05
794.559	0.03
794.865	0.05
795.172	0.03
795.478	0.04
795.784	0.04
796.091	0.05
796.397	0.05
796.703	0.04
797.009	0.05
797.315	0.05
797.622	0.04
797.927	0.04
798.233	0.04
798.539	0.05
798.845	0.05
799.151	0.05
799.456	0.05
799.762	0.05
800.068	0.05
800.373	0.05
800.679	0.05
800.984	0.04
801.289	0.04
801.595	0.04
801.9	0.04
802.205	0.04
802.51	0.04
802.815	0.05
803.12	0.04
803.425	0.04
803.73	0.04
804.035	0.04
804.339	0.04
804.644	0.04
804.949	0.05
805.253	0.03
805.558	0.04
805.862	0.03
806.167	0.04
806.471	0.04
806.775	0.03
807.08	0.04
807.384	0.04
807.688	0.03
807.992	0.04
808.296	0.04
808.6	0.04
808.904	0.04
809.207	0.04
809.511	0.05
809.815	0.05
810.119	0.04
810.422	0.05
810.726	0.06
811.029	0.06
811.332	0.05
811.636	0.06
811.939	0.05
812.242	0.05
812.546	0.06
812.849	0.05
813.152	0.07
813.455	0.06
813.758	0.06
814.06	0.06
814.363	0.05
814.666	0.06
814.969	0.06
815.271	0.05
815.574	0.05
815.877	0.05
816.179	0.05
816.481	0.05
816.784	0.05
817.086	0.04
817.388	0.04
817.69	0.04
817.993	0.03
818.295	0.04
818.597	0.04
818.899	0.03
819.2	0.04
819.502	0.03
819.804	0.04
820.106	0.04
820.407	0.03
820.709	0.03
821.01	0.04
821.312	0.04
821.613	0.03
821.915	0.03
822.216	0.03
822.517	0.02
822.818	0.03
823.119	0.03
823.42	0.03
823.721	0.02
824.022	0.03
824.323	0.03
824.624	0.03
824.925	0.03
825.226	0.03
825.526	0.02
825.827	0.03
826.127	0.04
826.428	0.03
826.728	0.03
827.028	0.03
827.329	0.03
827.629	0.02
827.929	0.03
828.229	0.03
828.529	0.03
828.829	0.03
829.129	0.03
829.429	0.02
829.729	0.02
830.029	0.02
830.328	0.03
830.628	0.02
830.927	0.01
831.227	0.02
831.526	0.03
831.826	0.02
832.125	0.03
832.424	0.02
832.724	0.02
833.023	0.02
833.322	0.02
833.621	0.02
833.92	0.01
834.219	0.02
834.518	0.02
834.816	0.01
835.115	0.01
835.414	0.01
835.712	0.01
836.011	0.01
836.309	0.01
836.608	0
836.906	0
837.205	0
837.503	0
837.801	-0
838.099	-0
838.397	-0.01
838.695	-0.01
838.993	-0
839.291	-0.01
839.589	-0.01
839.887	-0.01
840.184	-0.02
840.482	-0.01
840.78	-0.01
841.077	-0.02
841.375	-0.02
841.672	-0.02
841.969	-0.02
842.267	-0.02
842.564	-0.02
842.861	-0.01
843.158	-0.02
843.455	-0.04
843.752	-0.03
844.049	-0.03
844.346	-0.03
844.643	-0.04
844.94	-0.03
845.236	-0.01
845.533	-0.03
845.83	-0.03
846.126	-0.03
846.423	-0.03
846.719	-0.05
847.015	-0.04
847.312	-0.04
847.608	-0.04
847.904	-0.05
848.2	-0.05
848.496	-0.04
848.792	-0.04
849.088	-0.03
849.384	-0.05
849.68	-0.05
849.975	-0.05
850.271	-0.05
850.567	-0.06
850.862	-0.05
851.158	-0.05
851.453	-0.05
851.748	-0.06
852.044	-0.06
852.339	-0.06
852.634	-0.08
852.929	-0.06
853.224	-0.07
853.519	-0.06
853.814	-0.06
854.109	-0.07
854.404	-0.06
854.699	-0.07
854.994	-0.05
855.288	-0.06
855.583	-0.07
855.877	-0.07
856.172	-0.07
856.466	-0.08
856.76	-0.07
857.055	-0.08
857.349	-0.09
857.643	-0.1
857.937	-0.11
858.231	-0.1
858.525	-0.1
858.819	-0.1
859.113	-0.11
859.407	-0.11
859.701	-0.12
859.994	-0.11
860.288	-0.09
860.581	-0.11
860.875	-0.11
861.168	-0.12
861.462	-0.11
861.755	-0.1
862.048	-0.11
862.341	-0.11
862.634	-0.11
862.928	-0.11
863.221	-0.1
863.513	-0.12
863.806	-0.12
864.099	-0.12
864.392	-0.12
864.685	-0.11
864.977	-0.11
865.27	-0.12
865.562	-0.12
865.855	-0.13
866.147	-0.12
866.44	-0.12
866.732	-0.12
867.024	-0.13
867.316	-0.12
867.608	-0.12
867.9	-0.13
868.192	-0.13
868.484	-0.13
868.776	-0.13
869.068	-0.13
869.359	-0.13
869.651	-0.14
869.943	-0.15
870.234	-0.15
870.526	-0.15
870.817	-0.15
871.108	-0.14
871.4	-0.14
871.691	-0.15
871.982	-0.16
872.273	-0.17
872.564	-0.16
872.855	-0.16
873.146	-0.16
873.437	-0.16
873.728	-0.18
874.019	-0.15
874.309	-0.17
874.6	-0.17
874.89	-0.17
875.181	-0.18
875.471	-0.16
875.762	-0.15
876.052	-0.17
876.342	-0.16
876.632	-0.16
876.922	-0.18
877.213	-0.17
877.503	-0.18
877.792	-0.17
878.082	-0.18
878.372	-0.16
878.662	-0.18
878.952	-0.18
879.241	-0.16
879.531	-0.17
879.82	-0.16
880.11	-0.17
880.399	-0.16
880.688	-0.14
880.978	-0.14
881.267	-0.14
