Data from 12-12-AQDScycling_Absorbance__779__00779.txt Node

Date: Tue Dec 12 14:11:29 EST 2023
User: kyuminlee
Spectrometer: FLMS00943
Trigger mode: 0
Integration Time (sec): 1.000000E-1
Scans to average: 1
Electric dark correction enabled: true
Nonlinearity correction enabled: false
Boxcar width: 0
XAxis mode: Wavelengths
Number of Pixels in Spectrum: 2048
>>>>>Begin Spectral Data<<<<<
179.651	0.26
180.037	0.26
180.424	0.26
180.81	0.46
181.197	0.11
181.583	-0.18
181.97	-0.3
182.356	-0
182.743	-0
183.129	0.35
183.515	0.42
183.901	-1.71
184.288	0.59
184.674	-0
185.06	-1.03
185.446	0.39
185.832	-0.97
186.218	0.75
186.604	-0
186.99	-0.26
187.376	-0
187.762	0.7
188.148	-0
188.534	-0.1
188.92	0.09
189.305	0.12
189.691	0.12
190.077	0.23
190.463	0.17
190.848	0.23
191.234	0.12
191.619	0.14
192.005	0.08
192.391	0.26
192.776	0.2
193.161	0.15
193.547	0.12
193.932	0.11
194.318	0.02
194.703	0.12
195.088	0.28
195.473	0.17
195.859	0.18
196.244	0.06
196.629	0.18
197.014	0.05
197.399	0.26
197.784	0.17
198.169	0.23
198.554	0.16
198.939	0.08
199.324	0.17
199.709	0.04
200.094	0.02
200.478	0.17
200.863	0.26
201.248	0.1
201.633	0.06
202.017	0.11
202.402	0.21
202.787	0.07
203.171	0.13
203.556	0.13
203.94	0.16
204.325	0.31
204.709	0.22
205.093	0.09
205.478	0.1
205.862	0.09
206.246	0.31
206.631	0.15
207.015	0.19
207.399	0.33
207.783	0.14
208.167	0.16
208.551	0.32
208.935	0.15
209.319	0.13
209.703	0.14
210.087	0.33
210.471	0.29
210.855	0.24
211.239	0.38
211.623	0.25
212.007	0.25
212.39	0.56
212.774	0.14
213.158	0.06
213.541	0.28
213.925	0.36
214.309	0.29
214.692	0.41
215.076	0.2
215.459	0.08
215.842	0.23
216.226	0.21
216.609	0.22
216.993	0.14
217.376	0.42
217.759	0.13
218.142	0.22
218.525	0.45
218.909	0.29
219.292	0.27
219.675	0.39
220.058	0.31
220.441	0.48
220.824	0.46
221.207	0.72
221.59	0.51
221.973	0.41
222.355	0.61
222.738	0.68
223.121	0.55
223.504	0.57
223.886	0.62
224.269	0.72
224.652	0.64
225.034	0.65
225.417	0.81
225.799	0.85
226.182	0.85
226.564	1.06
226.947	0.84
227.329	0.77
227.711	0.99
228.094	0.94
228.476	0.88
228.858	0.81
229.24	0.82
229.623	0.81
230.005	0.95
230.387	0.96
230.769	0.8
231.151	0.88
231.533	1.02
231.915	0.93
232.297	1.07
232.679	0.99
233.061	1.11
233.442	0.94
233.824	1.08
234.206	1.01
234.588	1.14
234.969	1.06
235.351	1
235.733	1.08
236.114	1.16
236.496	1.15
236.877	1.11
237.259	1.06
237.64	1.2
238.022	1.25
238.403	1
238.784	0.97
239.165	0.99
239.547	1.01
239.928	1.1
240.309	1.04
240.69	1.09
241.071	1.12
241.452	1.23
241.834	1.02
242.215	1.08
242.595	1.18
242.976	1.19
243.357	1.1
243.738	1.05
244.119	1.22
244.5	1.1
244.881	1.23
245.261	1.3
245.642	1.24
246.023	1.19
246.403	1.2
246.784	1.2
247.164	1.38
247.545	1.17
247.925	1.29
248.306	1.25
248.686	1.3
249.067	1.19
249.447	1.42
249.827	1.54
250.207	1.46
250.588	1.35
250.968	1.28
251.348	1.32
251.728	1.46
252.108	1.38
252.488	1.34
252.868	1.28
253.248	1.28
253.628	1.41
254.008	1.49
254.388	1.32
254.768	1.42
255.147	1.37
255.527	1.48
255.907	1.37
256.287	1.23
256.666	1.46
257.046	1.57
257.425	1.61
257.805	1.43
258.184	1.36
258.564	1.3
258.943	1.37
259.323	1.48
259.702	1.43
260.081	1.53
260.461	1.5
260.84	1.45
261.219	1.55
261.598	1.46
261.977	1.48
262.356	1.47
262.736	1.42
263.115	1.6
263.494	1.6
263.873	1.34
264.251	1.51
264.63	1.56
265.009	1.5
265.388	1.46
265.767	1.32
266.145	1.36
266.524	1.41
266.903	1.49
267.281	1.51
267.66	1.49
268.039	1.49
268.417	1.45
268.796	1.35
269.174	1.45
269.552	1.26
269.931	1.43
270.309	1.52
270.687	1.47
271.066	1.54
271.444	1.52
271.822	1.72
272.2	1.4
272.578	1.36
272.956	1.42
273.334	1.37
273.712	1.55
274.09	1.63
274.468	1.46
274.846	1.3
275.224	1.35
275.602	1.56
275.98	1.55
276.357	1.52
276.735	1.55
277.113	1.59
277.49	1.33
277.868	1.35
278.246	1.59
278.623	1.33
279.001	1.37
279.378	1.32
279.756	1.54
280.133	1.56
280.51	1.35
280.888	1.37
281.265	1.36
281.642	1.53
282.019	1.37
282.396	1.5
282.773	1.41
283.151	1.38
283.528	1.82
283.905	1.5
284.282	1.41
284.659	1.71
285.035	1.38
285.412	1.39
285.789	1.75
286.166	1.53
286.543	1.53
286.919	1.52
287.296	1.43
287.673	1.58
288.049	1.53
288.426	1.51
288.802	1.58
289.179	1.47
289.555	1.62
289.932	1.36
290.308	1.31
290.684	1.53
291.061	1.38
291.437	1.57
291.813	1.47
292.189	1.26
292.565	1.33
292.942	1.3
293.318	1.45
293.694	1.43
294.07	1.35
294.446	1.47
294.822	1.62
295.197	1.37
295.573	1.35
295.949	1.44
296.325	1.45
296.701	1.51
297.076	1.46
297.452	1.63
297.828	1.52
298.203	1.67
298.579	1.4
298.954	1.49
299.33	1.44
299.705	1.49
300.081	1.42
300.456	1.4
300.831	1.43
301.206	1.41
301.582	1.39
301.957	1.43
302.332	1.45
302.707	1.29
303.082	1.29
303.457	1.41
303.832	1.33
304.207	1.35
304.582	1.26
304.957	1.4
305.332	1.3
305.707	1.3
306.082	1.31
306.456	1.36
306.831	1.42
307.206	1.32
307.58	1.26
307.955	1.27
308.33	1.32
308.704	1.26
309.079	1.14
309.453	1.31
309.828	1.32
310.202	1.25
310.576	1.24
310.951	1.26
311.325	1.32
311.699	1.19
312.073	1.15
312.447	1.19
312.821	1.13
313.196	1.24
313.57	1.1
313.944	1.12
314.317	1.18
314.691	1.26
315.065	1.21
315.439	1.22
315.813	1.24
316.187	1.2
316.56	1.21
316.934	1.19
317.308	1.18
317.681	1.11
318.055	1.23
318.428	1.2
318.802	1.24
319.175	1.23
319.549	1.2
319.922	1.18
320.295	1.2
320.669	1.3
321.042	1.21
321.415	1.25
321.788	1.24
322.162	1.13
322.535	1.25
322.908	1.22
323.281	1.15
323.654	1.27
324.027	1.2
324.4	1.19
324.773	1.21
325.145	1.26
325.518	1.18
325.891	1.19
326.264	1.22
326.636	1.17
327.009	1.18
327.382	1.24
327.754	1.36
328.127	1.21
328.499	1.23
328.872	1.26
329.244	1.29
329.616	1.19
329.989	1.22
330.361	1.18
330.733	1.17
331.106	1.23
331.478	1.26
331.85	1.19
332.222	1.23
332.594	1.33
332.966	1.31
333.338	1.35
333.71	1.31
334.082	1.44
334.454	1.25
334.826	1.2
335.197	1.22
335.569	1.23
335.941	1.25
336.312	1.28
336.684	1.26
337.056	1.23
337.427	1.4
337.799	1.36
338.17	1.3
338.542	1.21
338.913	1.31
339.284	1.37
339.656	1.25
340.027	1.36
340.398	1.39
340.769	1.33
341.141	1.36
341.512	1.29
341.883	1.32
342.254	1.3
342.625	1.33
342.996	1.32
343.367	1.33
343.738	1.33
344.108	1.29
344.479	1.44
344.85	1.24
345.221	1.52
345.591	1.27
345.962	1.3
346.333	1.3
346.703	1.24
347.074	1.27
347.444	1.18
347.815	1.36
348.185	1.21
348.556	1.31
348.926	1.28
349.296	1.26
349.666	1.2
350.037	1.21
350.407	1.19
350.777	1.23
351.147	1.26
351.517	1.28
351.887	1.29
352.257	1.34
352.627	1.25
352.997	1.32
353.367	1.36
353.737	1.34
354.106	1.38
354.476	1.34
354.846	1.39
355.216	1.46
355.585	1.54
355.955	1.41
356.324	1.43
356.694	1.36
357.063	1.39
357.433	1.43
357.802	1.36
358.171	1.51
358.541	1.34
358.91	1.38
359.279	1.43
359.648	1.37
360.017	1.46
360.387	1.49
360.756	1.42
361.125	1.4
361.494	1.49
361.863	1.43
362.231	1.4
362.6	1.41
362.969	1.49
363.338	1.45
363.707	1.5
364.075	1.47
364.444	1.3
364.813	1.39
365.181	1.54
365.55	1.52
365.918	1.58
366.287	1.56
366.655	1.51
367.024	1.53
367.392	1.57
367.76	1.6
368.128	1.47
368.497	1.53
368.865	1.46
369.233	1.59
369.601	1.58
369.969	1.52
370.337	1.51
370.705	1.39
371.073	1.56
371.441	1.43
371.809	1.53
372.177	1.56
372.544	1.6
372.912	1.48
373.28	1.56
373.647	1.69
374.015	1.73
374.383	1.74
374.75	1.71
375.118	1.54
375.485	1.7
375.853	1.58
376.22	1.48
376.587	1.57
376.955	1.7
377.322	1.51
377.689	1.56
378.056	1.57
378.423	1.53
378.79	1.5
379.157	1.65
379.524	1.53
379.891	1.54
380.258	1.72
380.625	1.71
380.992	1.45
381.359	1.73
381.726	1.82
382.092	1.46
382.459	1.63
382.826	1.58
383.192	1.97
383.559	1.6
383.925	1.73
384.292	1.43
384.658	1.63
385.025	1.53
385.391	1.76
385.757	1.58
386.123	1.56
386.49	1.51
386.856	1.63
387.222	1.6
387.588	1.59
387.954	1.65
388.32	1.61
388.686	1.69
389.052	1.48
389.418	1.73
389.784	1.51
390.15	1.71
390.515	1.46
390.881	1.64
391.247	1.57
391.613	1.88
391.978	1.47
392.344	1.56
392.709	1.7
393.075	1.62
393.44	1.59
393.806	1.57
394.171	1.47
394.536	1.48
394.902	1.69
395.267	1.51
395.632	1.43
395.997	1.63
396.362	1.44
396.727	1.57
397.092	1.6
397.457	1.51
397.822	1.55
398.187	1.53
398.552	1.57
398.917	1.7
399.282	1.39
399.646	1.57
400.011	1.6
400.376	1.49
400.74	1.57
401.105	1.44
401.47	1.58
401.834	1.49
402.199	1.52
402.563	1.6
402.927	1.66
403.292	1.56
403.656	1.62
404.02	1.5
404.384	1.6
404.749	1.51
405.113	1.58
405.477	1.56
405.841	1.52
406.205	1.64
406.569	1.55
406.933	1.57
407.296	1.52
407.66	1.49
408.024	1.66
408.388	1.77
408.752	1.6
409.115	1.57
409.479	1.5
409.842	1.43
410.206	1.6
410.569	1.51
410.933	1.49
411.296	1.41
411.66	1.59
412.023	1.42
412.386	1.51
412.749	1.37
413.113	1.48
413.476	1.37
413.839	1.47
414.202	1.49
414.565	1.32
414.928	1.41
415.291	1.41
415.654	1.43
416.017	1.55
416.38	1.43
416.742	1.38
417.105	1.39
417.468	1.53
417.83	1.42
418.193	1.6
418.556	1.37
418.918	1.41
419.281	1.48
419.643	1.41
420.005	1.53
420.368	1.46
420.73	1.39
421.092	1.48
421.455	1.6
421.817	1.35
422.179	1.49
422.541	1.46
422.903	1.72
423.265	1.47
423.627	1.46
423.989	1.44
424.351	1.48
424.713	1.42
425.075	1.39
425.436	1.41
425.798	1.49
426.16	1.5
426.521	1.39
426.883	1.45
427.245	1.42
427.606	1.36
427.967	1.32
428.329	1.35
428.69	1.45
429.052	1.36
429.413	1.47
429.774	1.43
430.135	1.4
430.497	1.38
430.858	1.36
431.219	1.41
431.58	1.32
431.941	1.34
432.302	1.42
432.663	1.38
433.024	1.43
433.384	1.51
433.745	1.35
434.106	1.51
434.467	1.35
434.827	1.37
435.188	1.4
435.548	1.48
435.909	1.4
436.269	1.38
436.63	1.39
436.99	1.34
437.351	1.32
437.711	1.3
438.071	1.27
438.431	1.29
438.792	1.37
439.152	1.31
439.512	1.25
439.872	1.25
440.232	1.32
440.592	1.31
440.952	1.3
441.312	1.23
441.671	1.31
442.031	1.28
442.391	1.3
442.751	1.3
443.11	1.26
443.47	1.24
443.83	1.16
444.189	1.22
444.549	1.21
444.908	1.19
445.267	1.21
445.627	1.22
445.986	1.15
446.345	1.14
446.705	1.18
447.064	1.16
447.423	1.16
447.782	1.17
448.141	1.14
448.5	1.11
448.859	1.17
449.218	1.15
449.577	1.14
449.936	1.1
450.295	1.12
450.653	1.08
451.012	1.1
451.371	1.09
451.729	1.11
452.088	1.12
452.447	1.11
452.805	1.1
453.163	1.09
453.522	1.04
453.88	1.04
454.239	1.04
454.597	1.01
454.955	1.01
455.313	0.99
455.671	1
456.029	1.01
456.388	0.96
456.746	0.97
457.104	0.95
457.461	0.93
457.819	0.95
458.177	0.91
458.535	0.9
458.893	0.9
459.25	0.9
459.608	0.89
459.966	0.86
460.323	0.86
460.681	0.84
461.038	0.85
461.396	0.82
461.753	0.82
462.111	0.8
462.468	0.81
462.825	0.78
463.182	0.77
463.54	0.76
463.897	0.76
464.254	0.76
464.611	0.75
464.968	0.73
465.325	0.72
465.682	0.7
466.039	0.7
466.395	0.69
466.752	0.68
467.109	0.67
467.466	0.67
467.822	0.66
468.179	0.64
468.535	0.65
468.892	0.62
469.248	0.62
469.605	0.6
469.961	0.6
470.318	0.61
470.674	0.59
471.03	0.57
471.386	0.56
471.743	0.56
472.099	0.54
472.455	0.54
472.811	0.54
473.167	0.53
473.523	0.52
473.879	0.51
474.235	0.52
474.59	0.5
474.946	0.49
475.302	0.48
475.657	0.47
476.013	0.47
476.369	0.45
476.724	0.46
477.08	0.46
477.435	0.44
477.791	0.44
478.146	0.43
478.501	0.42
478.857	0.42
479.212	0.41
479.567	0.4
479.922	0.39
480.277	0.39
480.632	0.38
480.987	0.38
481.342	0.37
481.697	0.36
482.052	0.36
482.407	0.36
482.762	0.35
483.116	0.34
483.471	0.33
483.826	0.33
484.18	0.32
484.535	0.32
484.89	0.31
485.244	0.31
485.598	0.31
485.953	0.3
486.307	0.29
486.661	0.3
487.016	0.28
487.37	0.29
487.724	0.28
488.078	0.28
488.432	0.28
488.786	0.28
489.14	0.27
489.494	0.26
489.848	0.26
490.202	0.26
490.556	0.25
490.91	0.25
491.263	0.25
491.617	0.25
491.971	0.24
492.324	0.24
492.678	0.24
493.031	0.24
493.385	0.23
493.738	0.23
494.091	0.23
494.445	0.23
494.798	0.22
495.151	0.22
495.504	0.21
495.857	0.22
496.21	0.22
496.564	0.21
496.916	0.22
497.269	0.21
497.622	0.21
497.975	0.21
498.328	0.2
498.681	0.2
499.033	0.2
499.386	0.19
499.739	0.19
500.091	0.19
500.444	0.19
500.796	0.19
501.149	0.18
501.501	0.18
501.854	0.19
502.206	0.18
502.558	0.19
502.91	0.18
503.263	0.18
503.615	0.18
503.967	0.18
504.319	0.18
504.671	0.17
505.023	0.17
505.375	0.17
505.726	0.17
506.078	0.17
506.43	0.17
506.782	0.17
507.133	0.17
507.485	0.18
507.837	0.18
508.188	0.18
508.54	0.17
508.891	0.18
509.243	0.16
509.594	0.17
509.945	0.16
510.296	0.17
510.648	0.16
510.999	0.16
511.35	0.16
511.701	0.16
512.052	0.16
512.403	0.17
512.754	0.17
513.105	0.16
513.456	0.16
513.807	0.16
514.157	0.17
514.508	0.16
514.859	0.16
515.209	0.16
515.56	0.16
515.91	0.16
516.261	0.16
516.611	0.15
516.962	0.16
517.312	0.16
517.662	0.16
518.013	0.16
518.363	0.17
518.713	0.16
519.063	0.17
519.413	0.16
519.763	0.16
520.113	0.16
520.463	0.16
520.813	0.17
521.163	0.17
521.512	0.16
521.862	0.16
522.212	0.16
522.562	0.16
522.911	0.16
523.261	0.16
523.61	0.16
523.96	0.16
524.309	0.17
524.658	0.17
525.008	0.15
525.357	0.16
525.706	0.16
526.056	0.16
526.405	0.16
526.754	0.16
527.103	0.15
527.452	0.16
527.801	0.16
528.15	0.16
528.499	0.16
528.847	0.16
529.196	0.17
529.545	0.17
529.893	0.17
530.242	0.16
530.591	0.17
530.939	0.18
531.288	0.16
531.636	0.17
531.985	0.16
532.333	0.17
532.681	0.17
533.029	0.17
533.378	0.16
533.726	0.17
534.074	0.17
534.422	0.16
534.77	0.17
535.118	0.17
535.466	0.16
535.814	0.16
536.162	0.17
536.509	0.16
536.857	0.16
537.205	0.18
537.552	0.17
537.9	0.17
538.248	0.16
538.595	0.18
538.943	0.17
539.29	0.17
539.637	0.17
539.985	0.17
540.332	0.17
540.679	0.17
541.026	0.16
541.373	0.17
541.721	0.16
542.068	0.17
542.415	0.16
542.762	0.17
543.108	0.16
543.455	0.16
543.802	0.16
544.149	0.16
544.496	0.16
544.842	0.16
545.189	0.15
545.535	0.15
545.882	0.15
546.228	0.15
546.575	0.15
546.921	0.15
547.267	0.15
547.614	0.16
547.96	0.15
548.306	0.15
548.652	0.16
548.998	0.16
549.344	0.16
549.69	0.15
550.036	0.16
550.382	0.16
550.728	0.16
551.074	0.16
551.42	0.16
551.765	0.17
552.111	0.17
552.457	0.17
552.802	0.16
553.148	0.16
553.493	0.16
553.839	0.17
554.184	0.17
554.529	0.16
554.875	0.17
555.22	0.17
555.565	0.18
555.91	0.16
556.255	0.17
556.6	0.17
556.945	0.16
557.29	0.16
557.635	0.17
557.98	0.17
558.325	0.17
558.67	0.17
559.014	0.17
559.359	0.17
559.704	0.17
560.048	0.16
560.393	0.17
560.737	0.16
561.082	0.17
561.426	0.15
561.77	0.16
562.115	0.16
562.459	0.16
562.803	0.16
563.147	0.16
563.491	0.17
563.835	0.17
564.179	0.17
564.523	0.16
564.867	0.16
565.211	0.16
565.555	0.16
565.899	0.17
566.242	0.17
566.586	0.16
566.93	0.17
567.273	0.17
567.617	0.16
567.96	0.18
568.304	0.17
568.647	0.17
568.99	0.17
569.334	0.17
569.677	0.17
570.02	0.17
570.363	0.18
570.706	0.17
571.049	0.17
571.392	0.17
571.735	0.17
572.078	0.17
572.421	0.17
572.764	0.17
573.106	0.17
573.449	0.17
573.792	0.16
574.134	0.17
574.477	0.17
574.819	0.16
575.162	0.16
575.504	0.16
575.847	0.17
576.189	0.17
576.531	0.16
576.873	0.16
577.215	0.17
577.558	0.17
577.9	0.16
578.242	0.17
578.584	0.17
578.926	0.17
579.267	0.17
579.609	0.16
579.951	0.16
580.293	0.16
580.634	0.17
580.976	0.17
581.318	0.17
581.659	0.17
582.001	0.17
582.342	0.16
582.683	0.17
583.025	0.16
583.366	0.16
583.707	0.16
584.049	0.16
584.39	0.17
584.731	0.15
585.072	0.16
585.413	0.17
585.754	0.16
586.095	0.17
586.435	0.17
586.776	0.17
587.117	0.16
587.458	0.16
587.798	0.16
588.139	0.16
588.48	0.16
588.82	0.16
589.161	0.16
589.501	0.15
589.841	0.16
590.182	0.15
590.522	0.16
590.862	0.16
591.202	0.16
591.542	0.16
591.882	0.16
592.222	0.16
592.562	0.16
592.902	0.16
593.242	0.15
593.582	0.16
593.922	0.16
594.261	0.15
594.601	0.16
594.941	0.15
595.28	0.16
595.62	0.16
595.959	0.16
596.299	0.15
596.638	0.16
596.977	0.15
597.317	0.16
597.656	0.17
597.995	0.17
598.334	0.17
598.673	0.16
599.012	0.17
599.351	0.17
599.69	0.16
600.029	0.17
600.368	0.17
600.707	0.17
601.046	0.16
601.384	0.17
601.723	0.17
602.061	0.16
602.4	0.17
602.738	0.17
603.077	0.16
603.415	0.16
603.754	0.17
604.092	0.16
604.43	0.17
604.768	0.16
605.107	0.17
605.445	0.16
605.783	0.15
606.121	0.16
606.459	0.16
606.796	0.16
607.134	0.15
607.472	0.16
607.81	0.16
608.148	0.16
608.485	0.16
608.823	0.16
609.16	0.16
609.498	0.16
609.835	0.15
610.173	0.16
610.51	0.16
610.847	0.16
611.185	0.16
611.522	0.16
611.859	0.16
612.196	0.16
612.533	0.16
612.87	0.16
613.207	0.16
613.544	0.16
613.881	0.17
614.217	0.16
614.554	0.16
614.891	0.16
615.228	0.17
615.564	0.16
615.901	0.17
616.237	0.17
616.574	0.16
616.91	0.16
617.246	0.17
617.583	0.17
617.919	0.16
618.255	0.17
618.591	0.16
618.927	0.16
619.263	0.17
619.599	0.16
619.935	0.16
620.271	0.17
620.607	0.17
620.943	0.17
621.279	0.16
621.614	0.16
621.95	0.16
622.286	0.16
622.621	0.16
622.957	0.16
623.292	0.16
623.627	0.16
623.963	0.15
624.298	0.16
624.633	0.16
624.968	0.16
625.304	0.16
625.639	0.15
625.974	0.15
626.309	0.15
626.644	0.15
626.979	0.16
627.313	0.16
627.648	0.15
627.983	0.15
628.318	0.15
628.652	0.15
628.987	0.15
629.321	0.15
629.656	0.15
629.99	0.14
630.325	0.15
630.659	0.14
630.993	0.14
631.327	0.14
631.662	0.13
631.996	0.13
632.33	0.14
632.664	0.14
632.998	0.14
633.332	0.14
633.666	0.14
633.999	0.14
634.333	0.14
634.667	0.14
635.001	0.13
635.334	0.14
635.668	0.13
636.001	0.14
636.335	0.13
636.668	0.14
637.001	0.13
637.335	0.14
637.668	0.13
638.001	0.13
638.334	0.13
638.668	0.13
639.001	0.13
639.334	0.13
639.667	0.13
639.999	0.13
640.332	0.14
640.665	0.13
640.998	0.14
641.331	0.14
641.663	0.13
641.996	0.13
642.328	0.14
642.661	0.14
642.993	0.14
643.326	0.14
643.658	0.13
643.99	0.13
644.323	0.14
644.655	0.14
644.987	0.14
645.319	0.15
645.651	0.14
645.983	0.14
646.315	0.13
646.647	0.14
646.979	0.15
647.31	0.15
647.642	0.14
647.974	0.14
648.305	0.14
648.637	0.14
648.968	0.14
649.3	0.14
649.631	0.14
649.963	0.14
650.294	0.14
650.625	0.13
650.957	0.14
651.288	0.13
651.619	0.14
651.95	0.13
652.281	0.14
652.612	0.13
652.943	0.14
653.274	0.14
653.604	0.14
653.935	0.13
654.266	0.13
654.596	0.13
654.927	0.13
655.258	0.13
655.588	0.14
655.918	0.14
656.249	0.12
656.579	0.13
656.909	0.13
657.24	0.13
657.57	0.13
657.9	0.14
658.23	0.13
658.56	0.14
658.89	0.14
659.22	0.12
659.55	0.13
659.88	0.13
660.209	0.12
660.539	0.14
660.869	0.13
661.198	0.14
661.528	0.13
661.857	0.13
662.187	0.13
662.516	0.12
662.846	0.13
663.175	0.13
663.504	0.13
663.833	0.13
664.163	0.13
664.492	0.13
664.821	0.12
665.15	0.13
665.479	0.12
665.807	0.12
666.136	0.13
666.465	0.13
666.794	0.12
667.122	0.13
667.451	0.12
667.78	0.13
668.108	0.13
668.437	0.13
668.765	0.12
669.093	0.14
669.422	0.14
669.75	0.14
670.078	0.13
670.406	0.13
670.734	0.13
671.062	0.13
671.39	0.13
671.718	0.13
672.046	0.12
672.374	0.12
672.702	0.12
673.029	0.11
673.357	0.13
673.685	0.13
674.012	0.12
674.34	0.12
674.667	0.13
674.995	0.13
675.322	0.13
675.649	0.11
675.977	0.13
676.304	0.12
676.631	0.12
676.958	0.12
677.285	0.11
677.612	0.12
677.939	0.12
678.266	0.12
678.593	0.12
678.92	0.12
679.246	0.12
679.573	0.12
679.9	0.11
680.226	0.11
680.553	0.11
680.879	0.12
681.206	0.12
681.532	0.11
681.858	0.12
682.184	0.12
682.511	0.12
682.837	0.12
683.163	0.12
683.489	0.12
683.815	0.12
684.141	0.12
684.467	0.12
684.793	0.12
685.118	0.12
685.444	0.13
685.77	0.12
686.095	0.12
686.421	0.11
686.746	0.12
687.072	0.12
687.397	0.12
687.723	0.12
688.048	0.12
688.373	0.1
688.698	0.11
689.023	0.11
689.349	0.1
689.674	0.11
689.999	0.1
690.323	0.1
690.648	0.1
690.973	0.1
691.298	0.11
691.623	0.1
691.947	0.1
692.272	0.1
692.596	0.1
692.921	0.11
693.245	0.1
693.57	0.11
693.894	0.11
694.218	0.12
694.543	0.1
694.867	0.11
695.191	0.11
695.515	0.11
695.839	0.11
696.163	0.11
696.487	0.11
696.811	0.11
697.135	0.11
697.458	0.1
697.782	0.11
698.106	0.11
698.429	0.11
698.753	0.11
699.076	0.1
699.4	0.11
699.723	0.11
700.046	0.1
700.37	0.11
700.693	0.11
701.016	0.11
701.339	0.11
701.662	0.11
701.985	0.1
702.308	0.1
702.631	0.11
702.954	0.11
703.277	0.1
703.599	0.1
703.922	0.1
704.245	0.09
704.567	0.1
704.89	0.1
705.212	0.1
705.535	0.09
705.857	0.09
706.179	0.08
706.502	0.1
706.824	0.09
707.146	0.09
707.468	0.1
707.79	0.09
708.112	0.1
708.434	0.1
708.756	0.1
709.078	0.09
709.399	0.09
709.721	0.09
710.043	0.1
710.364	0.1
710.686	0.1
711.007	0.09
711.329	0.1
711.65	0.1
711.972	0.09
712.293	0.1
712.614	0.11
712.935	0.1
713.256	0.11
713.577	0.11
713.898	0.1
714.219	0.09
714.54	0.09
714.861	0.09
715.182	0.09
715.503	0.09
715.823	0.09
716.144	0.09
716.464	0.08
716.785	0.09
717.105	0.08
717.426	0.09
717.746	0.09
718.066	0.08
718.387	0.08
718.707	0.09
719.027	0.09
719.347	0.08
719.667	0.08
719.987	0.08
720.307	0.09
720.627	0.08
720.947	0.08
721.266	0.08
721.586	0.08
721.906	0.08
722.225	0.07
722.545	0.08
722.864	0.08
723.184	0.09
723.503	0.08
723.823	0.09
724.142	0.08
724.461	0.09
724.78	0.08
725.099	0.09
725.418	0.08
725.737	0.08
726.056	0.08
726.375	0.09
726.694	0.09
727.013	0.09
727.331	0.08
727.65	0.08
727.969	0.08
728.287	0.08
728.606	0.08
728.924	0.08
729.242	0.08
729.561	0.08
729.879	0.08
730.197	0.08
730.515	0.08
730.834	0.08
731.152	0.08
731.47	0.08
731.788	0.08
732.105	0.08
732.423	0.09
732.741	0.08
733.059	0.07
733.376	0.09
733.694	0.08
734.012	0.08
734.329	0.09
734.647	0.08
734.964	0.09
735.281	0.08
735.599	0.09
735.916	0.09
736.233	0.08
736.55	0.09
736.867	0.08
737.184	0.09
737.501	0.08
737.818	0.09
738.135	0.09
738.452	0.08
738.768	0.09
739.085	0.08
739.402	0.07
739.718	0.09
740.035	0.09
740.351	0.08
740.668	0.09
740.984	0.08
741.3	0.08
741.617	0.08
741.933	0.08
742.249	0.08
742.565	0.08
742.881	0.08
743.197	0.08
743.513	0.07
743.829	0.07
744.144	0.08
744.46	0.08
744.776	0.08
745.091	0.08
745.407	0.08
745.722	0.08
746.038	0.07
746.353	0.07
746.669	0.07
746.984	0.06
747.299	0.07
747.614	0.08
747.93	0.07
748.245	0.07
748.56	0.07
748.875	0.06
749.189	0.07
749.504	0.07
749.819	0.07
750.134	0.06
750.448	0.06
750.763	0.06
751.078	0.06
751.392	0.06
751.707	0.08
752.021	0.07
752.335	0.08
752.65	0.08
752.964	0.07
753.278	0.07
753.592	0.07
753.906	0.06
754.22	0.08
754.534	0.07
754.848	0.07
755.162	0.07
755.476	0.07
755.789	0.07
756.103	0.07
756.417	0.07
756.73	0.07
757.044	0.07
757.357	0.07
757.671	0.06
757.984	0.07
758.297	0.08
758.61	0.07
758.924	0.07
759.237	0.07
759.55	0.06
759.863	0.07
760.176	0.07
760.488	0.06
760.801	0.06
761.114	0.06
761.427	0.06
761.739	0.07
762.052	0.06
762.365	0.07
762.677	0.07
762.99	0.06
763.302	0.07
763.614	0.06
763.926	0.06
764.239	0.06
764.551	0.06
764.863	0.07
765.175	0.07
765.487	0.06
765.799	0.06
766.111	0.06
766.423	0.06
766.734	0.06
767.046	0.06
767.358	0.07
767.669	0.06
767.981	0.07
768.292	0.07
768.604	0.06
768.915	0.06
769.226	0.06
769.537	0.05
769.849	0.06
770.16	0.06
770.471	0.05
770.782	0.06
771.093	0.06
771.404	0.05
771.715	0.05
772.025	0.06
772.336	0.06
772.647	0.05
772.957	0.05
773.268	0.06
773.578	0.06
773.889	0.07
774.199	0.07
774.51	0.06
774.82	0.06
775.13	0.06
775.44	0.06
775.75	0.07
776.06	0.06
776.37	0.06
776.68	0.07
776.99	0.07
777.3	0.06
777.61	0.07
777.92	0.07
778.229	0.07
778.539	0.07
778.848	0.06
779.158	0.07
779.467	0.06
779.777	0.07
780.086	0.06
780.395	0.06
780.704	0.06
781.013	0.05
781.323	0.05
781.632	0.06
781.941	0.06
782.249	0.06
782.558	0.06
782.867	0.06
783.176	0.05
783.485	0.05
783.793	0.06
784.102	0.06
784.41	0.06
784.719	0.06
785.027	0.05
785.335	0.05
785.644	0.05
785.952	0.06
786.26	0.06
786.568	0.05
786.876	0.06
787.184	0.05
787.492	0.06
787.8	0.06
788.108	0.06
788.416	0.05
788.723	0.06
789.031	0.05
789.338	0.06
789.646	0.05
789.953	0.06
790.261	0.06
790.568	0.06
790.876	0.06
791.183	0.06
791.49	0.06
791.797	0.06
792.104	0.05
792.411	0.06
792.718	0.06
793.025	0.06
793.332	0.06
793.639	0.06
793.945	0.07
794.252	0.06
794.559	0.06
794.865	0.06
795.172	0.06
795.478	0.06
795.784	0.05
796.091	0.07
796.397	0.07
796.703	0.06
797.009	0.08
797.315	0.06
797.622	0.06
797.927	0.06
798.233	0.06
798.539	0.08
798.845	0.07
799.151	0.07
799.456	0.06
799.762	0.06
800.068	0.06
800.373	0.07
800.679	0.06
800.984	0.07
801.289	0.06
801.595	0.06
801.9	0.07
802.205	0.06
802.51	0.06
802.815	0.07
803.12	0.07
803.425	0.07
803.73	0.06
804.035	0.06
804.339	0.07
804.644	0.06
804.949	0.07
805.253	0.07
805.558	0.06
805.862	0.05
806.167	0.06
806.471	0.06
806.775	0.06
807.08	0.06
807.384	0.06
807.688	0.06
807.992	0.06
808.296	0.06
808.6	0.06
808.904	0.06
809.207	0.06
809.511	0.06
809.815	0.07
810.119	0.06
810.422	0.07
810.726	0.07
811.029	0.07
811.332	0.07
811.636	0.07
811.939	0.07
812.242	0.06
812.546	0.07
812.849	0.07
813.152	0.07
813.455	0.07
813.758	0.07
814.06	0.07
814.363	0.07
814.666	0.07
814.969	0.07
815.271	0.06
815.574	0.07
815.877	0.06
816.179	0.06
816.481	0.06
816.784	0.06
817.086	0.05
817.388	0.04
817.69	0.05
817.993	0.05
818.295	0.05
818.597	0.05
818.899	0.05
819.2	0.05
819.502	0.04
819.804	0.05
820.106	0.05
820.407	0.05
820.709	0.05
821.01	0.04
821.312	0.05
821.613	0.04
821.915	0.04
822.216	0.04
822.517	0.04
822.818	0.05
823.119	0.04
823.42	0.05
823.721	0.03
824.022	0.04
824.323	0.05
824.624	0.04
824.925	0.05
825.226	0.06
825.526	0.04
825.827	0.04
826.127	0.05
826.428	0.05
826.728	0.04
827.028	0.04
827.329	0.04
827.629	0.03
827.929	0.04
828.229	0.05
828.529	0.04
828.829	0.04
829.129	0.04
829.429	0.04
829.729	0.04
830.029	0.03
830.328	0.03
830.628	0.03
830.927	0.03
831.227	0.03
831.526	0.04
831.826	0.03
832.125	0.04
832.424	0.04
832.724	0.03
833.023	0.04
833.322	0.04
833.621	0.04
833.92	0.03
834.219	0.03
834.518	0.04
834.816	0.02
835.115	0.03
835.414	0.02
835.712	0.02
836.011	0.02
836.309	0.02
836.608	0.02
836.906	0.01
837.205	0.01
837.503	0.01
837.801	0.01
838.099	0
838.397	-0.01
838.695	-0.01
838.993	0
839.291	-0.01
839.589	-0
839.887	-0
840.184	-0
840.482	-0.01
840.78	-0
841.077	-0.01
841.375	-0.01
841.672	-0
841.969	-0.01
842.267	-0.01
842.564	-0.01
842.861	0
843.158	-0.01
843.455	-0.02
843.752	-0.01
844.049	-0.02
844.346	-0.01
844.643	-0.02
844.94	-0.02
845.236	-0
845.533	-0.01
845.83	-0.02
846.126	-0.02
846.423	-0.02
846.719	-0.03
847.015	-0.03
847.312	-0.04
847.608	-0.04
847.904	-0.03
848.2	-0.03
848.496	-0.03
848.792	-0.03
849.088	-0.02
849.384	-0.03
849.68	-0.04
849.975	-0.03
850.271	-0.04
850.567	-0.05
850.862	-0.04
851.158	-0.04
851.453	-0.04
851.748	-0.06
852.044	-0.05
852.339	-0.04
852.634	-0.07
852.929	-0.05
853.224	-0.06
853.519	-0.05
853.814	-0.05
854.109	-0.05
854.404	-0.05
854.699	-0.06
854.994	-0.04
855.288	-0.05
855.583	-0.05
855.877	-0.06
856.172	-0.06
856.466	-0.06
856.76	-0.06
857.055	-0.06
857.349	-0.07
857.643	-0.07
857.937	-0.09
858.231	-0.07
858.525	-0.08
858.819	-0.07
859.113	-0.09
859.407	-0.09
859.701	-0.1
859.994	-0.1
860.288	-0.08
860.581	-0.1
860.875	-0.09
861.168	-0.1
861.462	-0.1
861.755	-0.1
862.048	-0.1
862.341	-0.1
862.634	-0.11
862.928	-0.1
863.221	-0.1
863.513	-0.11
863.806	-0.11
864.099	-0.11
864.392	-0.11
864.685	-0.1
864.977	-0.11
865.27	-0.11
865.562	-0.11
865.855	-0.11
866.147	-0.11
866.44	-0.11
866.732	-0.12
867.024	-0.12
867.316	-0.12
867.608	-0.12
867.9	-0.11
868.192	-0.13
868.484	-0.13
868.776	-0.12
869.068	-0.12
869.359	-0.13
869.651	-0.14
869.943	-0.15
870.234	-0.14
870.526	-0.14
870.817	-0.14
871.108	-0.13
871.4	-0.13
871.691	-0.14
871.982	-0.15
872.273	-0.15
872.564	-0.14
872.855	-0.14
873.146	-0.15
873.437	-0.14
873.728	-0.16
874.019	-0.15
874.309	-0.15
874.6	-0.15
874.89	-0.15
875.181	-0.15
875.471	-0.14
875.762	-0.15
876.052	-0.16
876.342	-0.15
876.632	-0.15
876.922	-0.17
877.213	-0.15
877.503	-0.19
877.792	-0.17
878.082	-0.17
878.372	-0.16
878.662	-0.18
878.952	-0.17
879.241	-0.16
879.531	-0.16
879.82	-0.16
880.11	-0.17
880.399	-0.16
880.688	-0.15
880.978	-0.15
881.267	-0.15
