Data from 12-12-AQDScycling_Absorbance__776__00776.txt Node

Date: Tue Dec 12 14:10:44 EST 2023
User: kyuminlee
Spectrometer: FLMS00943
Trigger mode: 0
Integration Time (sec): 1.000000E-1
Scans to average: 1
Electric dark correction enabled: true
Nonlinearity correction enabled: false
Boxcar width: 0
XAxis mode: Wavelengths
Number of Pixels in Spectrum: 2048
>>>>>Begin Spectral Data<<<<<
179.651	-0
180.037	-0
180.424	-0
180.81	-0
181.197	0.29
181.583	-0.41
181.97	0.06
182.356	-0
182.743	-1.05
183.129	0.03
183.515	0.63
183.901	-0
184.288	0.37
184.674	0.83
185.06	-1.35
185.446	1.2
185.832	-0.41
186.218	0.25
186.604	0.05
186.99	-0
187.376	-0
187.762	0.41
188.148	0.33
188.534	-0.22
188.92	0.15
189.305	0.11
189.691	0.1
190.077	0.12
190.463	0.15
190.848	0.04
191.234	0.01
191.619	0.03
192.005	0.11
192.391	0.25
192.776	0.18
193.161	0.26
193.547	0.06
193.932	0.02
194.318	0.12
194.703	0.14
195.088	0.35
195.473	0.19
195.859	0.14
196.244	0.1
196.629	0.18
197.014	-0.01
197.399	0.18
197.784	0.11
198.169	0.08
198.554	0.22
198.939	0.19
199.324	0.1
199.709	0.1
200.094	0.07
200.478	0.05
200.863	0.18
201.248	0.19
201.633	0.12
202.017	0.18
202.402	0.15
202.787	0.04
203.171	0.04
203.556	0.15
203.94	0.21
204.325	0.18
204.709	0.12
205.093	0.09
205.478	0.07
205.862	0.08
206.246	0.26
206.631	0.08
207.015	0.1
207.399	0.32
207.783	0.1
208.167	0.22
208.551	0.24
208.935	0.16
209.319	0.16
209.703	0.11
210.087	0.17
210.471	0.07
210.855	0.17
211.239	0.25
211.623	0.21
212.007	0.27
212.39	0.38
212.774	0.15
213.158	0.04
213.541	0.23
213.925	0.26
214.309	0.38
214.692	0.35
215.076	0.22
215.459	0.21
215.842	0.17
216.226	0.25
216.609	0.32
216.993	0.11
217.376	0.41
217.759	0.27
218.142	0.28
218.525	0.5
218.909	0.27
219.292	0.32
219.675	0.44
220.058	0.44
220.441	0.46
220.824	0.37
221.207	0.65
221.59	0.48
221.973	0.43
222.355	0.67
222.738	0.7
223.121	0.68
223.504	0.48
223.886	0.62
224.269	0.72
224.652	0.74
225.034	0.69
225.417	0.7
225.799	0.7
226.182	0.96
226.564	0.84
226.947	0.8
227.329	1
227.711	1.04
228.094	1
228.476	0.89
228.858	0.69
229.24	0.76
229.623	0.92
230.005	0.92
230.387	0.85
230.769	0.84
231.151	0.85
231.533	0.94
231.915	0.91
232.297	1.05
232.679	0.93
233.061	1.05
233.442	0.97
233.824	0.95
234.206	1.12
234.588	0.99
234.969	1.16
235.351	1.01
235.733	1.02
236.114	1.33
236.496	1.04
236.877	1.07
237.259	1.08
237.64	1.13
238.022	1.1
238.403	1.01
238.784	1.14
239.165	0.98
239.547	1.01
239.928	1.04
240.309	1.02
240.69	1.07
241.071	1.21
241.452	1.27
241.834	1.25
242.215	1.04
242.595	1.01
242.976	1.1
243.357	1.14
243.738	1.05
244.119	1.21
244.5	1.19
244.881	1.2
245.261	1.16
245.642	1.15
246.023	1.16
246.403	1.19
246.784	1.24
247.164	1.4
247.545	1.29
247.925	1.25
248.306	1.28
248.686	1.36
249.067	1.2
249.447	1.38
249.827	2.21
250.207	1.46
250.588	1.33
250.968	1.55
251.348	1.36
251.728	1.51
252.108	1.29
252.488	1.36
252.868	1.34
253.248	1.35
253.628	1.41
254.008	1.41
254.388	1.33
254.768	1.31
255.147	1.35
255.527	1.45
255.907	1.34
256.287	1.41
256.666	1.42
257.046	1.57
257.425	1.43
257.805	1.31
258.184	1.4
258.564	1.38
258.943	1.38
259.323	1.5
259.702	1.49
260.081	1.41
260.461	1.44
260.84	1.46
261.219	1.73
261.598	1.47
261.977	1.36
262.356	1.56
262.736	1.47
263.115	1.52
263.494	1.38
263.873	1.48
264.251	1.55
264.63	1.57
265.009	1.44
265.388	1.4
265.767	1.42
266.145	1.45
266.524	1.41
266.903	1.62
267.281	1.38
267.66	1.64
268.039	1.44
268.417	1.39
268.796	1.36
269.174	1.56
269.552	1.34
269.931	1.55
270.309	1.49
270.687	1.52
271.066	1.62
271.444	1.46
271.822	1.56
272.2	1.44
272.578	1.67
272.956	1.47
273.334	1.32
273.712	1.36
274.09	1.44
274.468	1.31
274.846	1.3
275.224	1.44
275.602	1.49
275.98	1.47
276.357	1.52
276.735	1.43
277.113	1.4
277.49	1.31
277.868	1.3
278.246	1.38
278.623	1.34
279.001	1.45
279.378	1.33
279.756	1.53
280.133	1.66
280.51	1.4
280.888	1.38
281.265	1.36
281.642	1.46
282.019	1.59
282.396	1.59
282.773	1.42
283.151	1.52
283.528	1.5
283.905	1.42
284.282	1.46
284.659	1.59
285.035	1.48
285.412	1.46
285.789	1.44
286.166	1.38
286.543	1.38
286.919	1.55
287.296	1.34
287.673	1.89
288.049	1.46
288.426	1.62
288.802	1.54
289.179	1.5
289.555	1.66
289.932	1.7
290.308	1.42
290.684	1.41
291.061	1.41
291.437	1.83
291.813	1.4
292.189	1.32
292.565	1.4
292.942	1.25
293.318	1.34
293.694	1.34
294.07	1.3
294.446	1.45
294.822	1.71
295.197	1.44
295.573	1.45
295.949	1.48
296.325	1.52
296.701	1.58
297.076	1.55
297.452	1.56
297.828	1.42
298.203	1.51
298.579	1.49
298.954	1.44
299.33	1.35
299.705	1.44
300.081	1.46
300.456	1.39
300.831	1.41
301.206	1.39
301.582	1.45
301.957	1.38
302.332	1.42
302.707	1.41
303.082	1.37
303.457	1.39
303.832	1.3
304.207	1.37
304.582	1.35
304.957	1.31
305.332	1.34
305.707	1.4
306.082	1.39
306.456	1.35
306.831	1.32
307.206	1.38
307.58	1.35
307.955	1.33
308.33	1.24
308.704	1.32
309.079	1.3
309.453	1.47
309.828	1.3
310.202	1.21
310.576	1.22
310.951	1.22
311.325	1.25
311.699	1.25
312.073	1.23
312.447	1.21
312.821	1.18
313.196	1.23
313.57	1.21
313.944	1.22
314.317	1.21
314.691	1.25
315.065	1.29
315.439	1.29
315.813	1.25
316.187	1.25
316.56	1.33
316.934	1.27
317.308	1.22
317.681	1.19
318.055	1.2
318.428	1.2
318.802	1.28
319.175	1.24
319.549	1.27
319.922	1.21
320.295	1.2
320.669	1.39
321.042	1.32
321.415	1.31
321.788	1.24
322.162	1.22
322.535	1.26
322.908	1.28
323.281	1.31
323.654	1.35
324.027	1.25
324.4	1.29
324.773	1.23
325.145	1.28
325.518	1.24
325.891	1.33
326.264	1.32
326.636	1.24
327.009	1.24
327.382	1.21
327.754	1.3
328.127	1.17
328.499	1.32
328.872	1.31
329.244	1.27
329.616	1.22
329.989	1.25
330.361	1.28
330.733	1.25
331.106	1.24
331.478	1.32
331.85	1.26
332.222	1.27
332.594	1.27
332.966	1.37
333.338	1.36
333.71	1.33
334.082	1.37
334.454	1.33
334.826	1.32
335.197	1.38
335.569	1.31
335.941	1.24
336.312	1.26
336.684	1.32
337.056	1.28
337.427	1.38
337.799	1.35
338.17	1.34
338.542	1.38
338.913	1.42
339.284	1.36
339.656	1.3
340.027	1.32
340.398	1.39
340.769	1.3
341.141	1.44
341.512	1.32
341.883	1.39
342.254	1.37
342.625	1.45
342.996	1.36
343.367	1.3
343.738	1.34
344.108	1.31
344.479	1.41
344.85	1.34
345.221	1.39
345.591	1.22
345.962	1.27
346.333	1.36
346.703	1.27
347.074	1.31
347.444	1.19
347.815	1.28
348.185	1.34
348.556	1.31
348.926	1.31
349.296	1.34
349.666	1.31
350.037	1.27
350.407	1.22
350.777	1.33
351.147	1.31
351.517	1.36
351.887	1.29
352.257	1.34
352.627	1.29
352.997	1.35
353.367	1.41
353.737	1.41
354.106	1.29
354.476	1.29
354.846	1.4
355.216	1.36
355.585	1.45
355.955	1.36
356.324	1.39
356.694	1.51
357.063	1.32
357.433	1.4
357.802	1.47
358.171	1.4
358.541	1.39
358.91	1.46
359.279	1.56
359.648	1.39
360.017	1.51
360.387	1.44
360.756	1.36
361.125	1.43
361.494	1.44
361.863	1.36
362.231	1.5
362.6	1.48
362.969	1.46
363.338	1.37
363.707	1.54
364.075	1.56
364.444	1.36
364.813	1.42
365.181	1.44
365.55	1.5
365.918	1.63
366.287	1.57
366.655	1.54
367.024	1.53
367.392	1.63
367.76	1.43
368.128	1.52
368.497	1.46
368.865	1.5
369.233	1.51
369.601	1.53
369.969	1.44
370.337	1.69
370.705	1.42
371.073	1.54
371.441	1.47
371.809	1.55
372.177	1.48
372.544	1.49
372.912	1.61
373.28	1.55
373.647	1.57
374.015	1.57
374.383	1.82
374.75	1.71
375.118	1.57
375.485	1.54
375.853	1.48
376.22	1.47
376.587	1.53
376.955	1.57
377.322	1.65
377.689	1.48
378.056	1.52
378.423	1.42
378.79	1.52
379.157	1.52
379.524	1.48
379.891	1.5
380.258	1.56
380.625	1.54
380.992	1.63
381.359	1.63
381.726	1.67
382.092	1.5
382.459	1.58
382.826	1.51
383.192	1.46
383.559	1.54
383.925	1.62
384.292	1.49
384.658	1.81
385.025	1.54
385.391	1.77
385.757	1.68
386.123	1.55
386.49	1.53
386.856	1.62
387.222	1.6
387.588	1.73
387.954	1.89
388.32	1.79
388.686	1.66
389.052	1.55
389.418	1.58
389.784	1.46
390.15	1.58
390.515	1.52
390.881	1.54
391.247	1.45
391.613	1.79
391.978	1.52
392.344	1.61
392.709	1.64
393.075	1.67
393.44	1.61
393.806	1.66
394.171	1.46
394.536	1.59
394.902	1.69
395.267	1.48
395.632	1.5
395.997	1.47
396.362	1.53
396.727	1.56
397.092	1.6
397.457	1.53
397.822	1.5
398.187	1.75
398.552	1.61
398.917	1.7
399.282	1.53
399.646	1.66
400.011	1.83
400.376	1.46
400.74	1.52
401.105	1.52
401.47	1.52
401.834	1.47
402.199	1.53
402.563	1.65
402.927	1.46
403.292	1.62
403.656	1.55
404.02	1.66
404.384	1.65
404.749	1.59
405.113	1.63
405.477	1.59
405.841	1.53
406.205	1.47
406.569	1.59
406.933	1.62
407.296	1.71
407.66	1.48
408.024	1.5
408.388	1.64
408.752	1.49
409.115	1.54
409.479	1.44
409.842	1.46
410.206	1.45
410.569	1.49
410.933	1.55
411.296	1.39
411.66	1.55
412.023	1.45
412.386	1.47
412.749	1.32
413.113	1.52
413.476	1.46
413.839	1.33
414.202	1.51
414.565	1.34
414.928	1.34
415.291	1.37
415.654	1.48
416.017	1.5
416.38	1.47
416.742	1.41
417.105	1.43
417.468	1.37
417.83	1.4
418.193	1.52
418.556	1.39
418.918	1.41
419.281	1.48
419.643	1.52
420.005	1.42
420.368	1.36
420.73	1.44
421.092	1.43
421.455	1.49
421.817	1.29
422.179	1.35
422.541	1.46
422.903	1.51
423.265	1.46
423.627	1.42
423.989	1.37
424.351	1.35
424.713	1.4
425.075	1.35
425.436	1.34
425.798	1.42
426.16	1.5
426.521	1.38
426.883	1.4
427.245	1.41
427.606	1.29
427.967	1.28
428.329	1.29
428.69	1.34
429.052	1.4
429.413	1.37
429.774	1.41
430.135	1.43
430.497	1.36
430.858	1.41
431.219	1.43
431.58	1.34
431.941	1.37
432.302	1.33
432.663	1.35
433.024	1.38
433.384	1.41
433.745	1.35
434.106	1.41
434.467	1.3
434.827	1.36
435.188	1.4
435.548	1.43
435.909	1.35
436.269	1.4
436.63	1.26
436.99	1.35
437.351	1.26
437.711	1.29
438.071	1.3
438.431	1.28
438.792	1.31
439.152	1.29
439.512	1.23
439.872	1.25
440.232	1.33
440.592	1.27
440.952	1.29
441.312	1.16
441.671	1.29
442.031	1.23
442.391	1.2
442.751	1.23
443.11	1.21
443.47	1.18
443.83	1.18
444.189	1.19
444.549	1.18
444.908	1.18
445.267	1.19
445.627	1.18
445.986	1.19
446.345	1.13
446.705	1.15
447.064	1.15
447.423	1.14
447.782	1.15
448.141	1.11
448.5	1.07
448.859	1.11
449.218	1.11
449.577	1.11
449.936	1.09
450.295	1.1
450.653	1.05
451.012	1.08
451.371	1.07
451.729	1.07
452.088	1.07
452.447	1.05
452.805	1.07
453.163	1.05
453.522	1.05
453.88	1.02
454.239	1.01
454.597	0.99
454.955	0.97
455.313	0.99
455.671	0.98
456.029	0.96
456.388	0.95
456.746	0.95
457.104	0.93
457.461	0.9
457.819	0.91
458.177	0.89
458.535	0.88
458.893	0.88
459.25	0.89
459.608	0.87
459.966	0.85
460.323	0.83
460.681	0.82
461.038	0.82
461.396	0.8
461.753	0.8
462.111	0.79
462.468	0.78
462.825	0.75
463.182	0.75
463.54	0.73
463.897	0.74
464.254	0.73
464.611	0.72
464.968	0.71
465.325	0.72
465.682	0.7
466.039	0.69
466.395	0.67
466.752	0.67
467.109	0.65
467.466	0.66
467.822	0.64
468.179	0.62
468.535	0.62
468.892	0.62
469.248	0.6
469.605	0.59
469.961	0.59
470.318	0.59
470.674	0.58
471.03	0.56
471.386	0.56
471.743	0.53
472.099	0.53
472.455	0.53
472.811	0.52
473.167	0.53
473.523	0.5
473.879	0.51
474.235	0.5
474.59	0.48
474.946	0.48
475.302	0.48
475.657	0.46
476.013	0.47
476.369	0.45
476.724	0.46
477.08	0.45
477.435	0.44
477.791	0.43
478.146	0.43
478.501	0.42
478.857	0.41
479.212	0.41
479.567	0.4
479.922	0.39
480.277	0.39
480.632	0.37
480.987	0.37
481.342	0.37
481.697	0.36
482.052	0.36
482.407	0.35
482.762	0.34
483.116	0.34
483.471	0.33
483.826	0.33
484.18	0.32
484.535	0.31
484.89	0.31
485.244	0.31
485.598	0.31
485.953	0.3
486.307	0.3
486.661	0.3
487.016	0.29
487.37	0.28
487.724	0.28
488.078	0.28
488.432	0.28
488.786	0.27
489.14	0.27
489.494	0.26
489.848	0.26
490.202	0.26
490.556	0.26
490.91	0.25
491.263	0.25
491.617	0.25
491.971	0.24
492.324	0.23
492.678	0.24
493.031	0.24
493.385	0.23
493.738	0.24
494.091	0.23
494.445	0.23
494.798	0.23
495.151	0.22
495.504	0.22
495.857	0.22
496.21	0.22
496.564	0.22
496.916	0.22
497.269	0.21
497.622	0.21
497.975	0.2
498.328	0.2
498.681	0.2
499.033	0.2
499.386	0.19
499.739	0.2
500.091	0.19
500.444	0.19
500.796	0.19
501.149	0.18
501.501	0.19
501.854	0.19
502.206	0.19
502.558	0.19
502.91	0.19
503.263	0.18
503.615	0.18
503.967	0.18
504.319	0.19
504.671	0.18
505.023	0.18
505.375	0.17
505.726	0.18
506.078	0.18
506.43	0.18
506.782	0.17
507.133	0.18
507.485	0.19
507.837	0.18
508.188	0.18
508.54	0.18
508.891	0.18
509.243	0.17
509.594	0.17
509.945	0.17
510.296	0.16
510.648	0.17
510.999	0.17
511.35	0.16
511.701	0.17
512.052	0.17
512.403	0.17
512.754	0.16
513.105	0.17
513.456	0.16
513.807	0.16
514.157	0.17
514.508	0.16
514.859	0.16
515.209	0.16
515.56	0.16
515.91	0.16
516.261	0.16
516.611	0.16
516.962	0.16
517.312	0.16
517.662	0.17
518.013	0.17
518.363	0.17
518.713	0.16
519.063	0.16
519.413	0.16
519.763	0.17
520.113	0.16
520.463	0.17
520.813	0.17
521.163	0.17
521.512	0.16
521.862	0.17
522.212	0.17
522.562	0.17
522.911	0.16
523.261	0.17
523.61	0.17
523.96	0.17
524.309	0.17
524.658	0.18
525.008	0.17
525.357	0.16
525.706	0.17
526.056	0.17
526.405	0.16
526.754	0.16
527.103	0.16
527.452	0.17
527.801	0.17
528.15	0.17
528.499	0.16
528.847	0.17
529.196	0.18
529.545	0.17
529.893	0.18
530.242	0.17
530.591	0.18
530.939	0.18
531.288	0.17
531.636	0.18
531.985	0.17
532.333	0.17
532.681	0.17
533.029	0.17
533.378	0.17
533.726	0.17
534.074	0.18
534.422	0.17
534.77	0.17
535.118	0.17
535.466	0.17
535.814	0.17
536.162	0.17
536.509	0.18
536.857	0.17
537.205	0.18
537.552	0.18
537.9	0.18
538.248	0.18
538.595	0.18
538.943	0.18
539.29	0.18
539.637	0.17
539.985	0.18
540.332	0.17
540.679	0.17
541.026	0.17
541.373	0.18
541.721	0.17
542.068	0.17
542.415	0.17
542.762	0.17
543.108	0.17
543.455	0.17
543.802	0.16
544.149	0.17
544.496	0.17
544.842	0.17
545.189	0.16
545.535	0.16
545.882	0.17
546.228	0.16
546.575	0.16
546.921	0.16
547.267	0.16
547.614	0.16
547.96	0.16
548.306	0.17
548.652	0.17
548.998	0.17
549.344	0.16
549.69	0.17
550.036	0.16
550.382	0.17
550.728	0.16
551.074	0.18
551.42	0.17
551.765	0.18
552.111	0.17
552.457	0.18
552.802	0.18
553.148	0.17
553.493	0.17
553.839	0.17
554.184	0.18
554.529	0.17
554.875	0.18
555.22	0.17
555.565	0.18
555.91	0.17
556.255	0.18
556.6	0.18
556.945	0.17
557.29	0.18
557.635	0.18
557.98	0.17
558.325	0.17
558.67	0.18
559.014	0.17
559.359	0.18
559.704	0.18
560.048	0.16
560.393	0.17
560.737	0.17
561.082	0.17
561.426	0.16
561.77	0.18
562.115	0.16
562.459	0.16
562.803	0.18
563.147	0.17
563.491	0.16
563.835	0.17
564.179	0.17
564.523	0.17
564.867	0.17
565.211	0.17
565.555	0.18
565.899	0.18
566.242	0.17
566.586	0.17
566.93	0.18
567.273	0.17
567.617	0.18
567.96	0.18
568.304	0.18
568.647	0.17
568.99	0.18
569.334	0.18
569.677	0.17
570.02	0.18
570.363	0.18
570.706	0.17
571.049	0.18
571.392	0.17
571.735	0.18
572.078	0.18
572.421	0.19
572.764	0.18
573.106	0.18
573.449	0.18
573.792	0.18
574.134	0.18
574.477	0.18
574.819	0.18
575.162	0.17
575.504	0.17
575.847	0.17
576.189	0.18
576.531	0.18
576.873	0.17
577.215	0.16
577.558	0.18
577.9	0.17
578.242	0.17
578.584	0.17
578.926	0.17
579.267	0.17
579.609	0.17
579.951	0.17
580.293	0.18
580.634	0.18
580.976	0.17
581.318	0.17
581.659	0.17
582.001	0.17
582.342	0.17
582.683	0.17
583.025	0.17
583.366	0.16
583.707	0.17
584.049	0.17
584.39	0.17
584.731	0.16
585.072	0.17
585.413	0.17
585.754	0.17
586.095	0.18
586.435	0.18
586.776	0.17
587.117	0.17
587.458	0.17
587.798	0.16
588.139	0.17
588.48	0.17
588.82	0.17
589.161	0.16
589.501	0.17
589.841	0.17
590.182	0.16
590.522	0.16
590.862	0.17
591.202	0.17
591.542	0.17
591.882	0.17
592.222	0.16
592.562	0.17
592.902	0.16
593.242	0.17
593.582	0.17
593.922	0.17
594.261	0.16
594.601	0.16
594.941	0.17
595.28	0.16
595.62	0.16
595.959	0.16
596.299	0.17
596.638	0.17
596.977	0.16
597.317	0.18
597.656	0.16
597.995	0.16
598.334	0.17
598.673	0.17
599.012	0.17
599.351	0.18
599.69	0.17
600.029	0.18
600.368	0.18
600.707	0.18
601.046	0.17
601.384	0.18
601.723	0.18
602.061	0.17
602.4	0.17
602.738	0.17
603.077	0.18
603.415	0.17
603.754	0.17
604.092	0.17
604.43	0.16
604.768	0.17
605.107	0.18
605.445	0.17
605.783	0.16
606.121	0.16
606.459	0.17
606.796	0.17
607.134	0.16
607.472	0.16
607.81	0.17
608.148	0.17
608.485	0.16
608.823	0.17
609.16	0.16
609.498	0.16
609.835	0.17
610.173	0.16
610.51	0.16
610.847	0.17
611.185	0.16
611.522	0.16
611.859	0.17
612.196	0.17
612.533	0.16
612.87	0.17
613.207	0.17
613.544	0.17
613.881	0.18
614.217	0.17
614.554	0.17
614.891	0.17
615.228	0.17
615.564	0.17
615.901	0.17
616.237	0.17
616.574	0.17
616.91	0.17
617.246	0.17
617.583	0.17
617.919	0.17
618.255	0.18
618.591	0.17
618.927	0.18
619.263	0.18
619.599	0.17
619.935	0.18
620.271	0.17
620.607	0.17
620.943	0.16
621.279	0.18
621.614	0.17
621.95	0.17
622.286	0.17
622.621	0.17
622.957	0.16
623.292	0.16
623.627	0.16
623.963	0.16
624.298	0.16
624.633	0.16
624.968	0.16
625.304	0.16
625.639	0.16
625.974	0.16
626.309	0.16
626.644	0.16
626.979	0.16
627.313	0.16
627.648	0.16
627.983	0.16
628.318	0.16
628.652	0.15
628.987	0.16
629.321	0.17
629.656	0.15
629.99	0.15
630.325	0.16
630.659	0.15
630.993	0.14
631.327	0.16
631.662	0.14
631.996	0.15
632.33	0.15
632.664	0.15
632.998	0.14
633.332	0.14
633.666	0.15
633.999	0.15
634.333	0.14
634.667	0.14
635.001	0.14
635.334	0.14
635.668	0.14
636.001	0.14
636.335	0.14
636.668	0.15
637.001	0.14
637.335	0.14
637.668	0.15
638.001	0.14
638.334	0.15
638.668	0.14
639.001	0.14
639.334	0.14
639.667	0.14
639.999	0.14
640.332	0.14
640.665	0.14
640.998	0.14
641.331	0.15
641.663	0.14
641.996	0.14
642.328	0.14
642.661	0.14
642.993	0.15
643.326	0.15
643.658	0.14
643.99	0.14
644.323	0.14
644.655	0.14
644.987	0.15
645.319	0.15
645.651	0.15
645.983	0.15
646.315	0.14
646.647	0.15
646.979	0.16
647.31	0.15
647.642	0.14
647.974	0.15
648.305	0.15
648.637	0.14
648.968	0.15
649.3	0.14
649.631	0.14
649.963	0.14
650.294	0.15
650.625	0.14
650.957	0.14
651.288	0.14
651.619	0.14
651.95	0.15
652.281	0.14
652.612	0.15
652.943	0.14
653.274	0.15
653.604	0.15
653.935	0.14
654.266	0.14
654.596	0.14
654.927	0.14
655.258	0.14
655.588	0.14
655.918	0.14
656.249	0.12
656.579	0.13
656.909	0.13
657.24	0.14
657.57	0.14
657.9	0.14
658.23	0.14
658.56	0.14
658.89	0.14
659.22	0.13
659.55	0.14
659.88	0.14
660.209	0.14
660.539	0.15
660.869	0.14
661.198	0.14
661.528	0.13
661.857	0.13
662.187	0.13
662.516	0.13
662.846	0.13
663.175	0.13
663.504	0.13
663.833	0.13
664.163	0.13
664.492	0.13
664.821	0.13
665.15	0.13
665.479	0.13
665.807	0.13
666.136	0.13
666.465	0.13
666.794	0.13
667.122	0.13
667.451	0.13
667.78	0.13
668.108	0.14
668.437	0.14
668.765	0.14
669.093	0.14
669.422	0.13
669.75	0.14
670.078	0.13
670.406	0.13
670.734	0.13
671.062	0.13
671.39	0.13
671.718	0.13
672.046	0.13
672.374	0.13
672.702	0.13
673.029	0.13
673.357	0.13
673.685	0.14
674.012	0.13
674.34	0.12
674.667	0.13
674.995	0.12
675.322	0.13
675.649	0.12
675.977	0.13
676.304	0.13
676.631	0.13
676.958	0.12
677.285	0.12
677.612	0.12
677.939	0.12
678.266	0.12
678.593	0.12
678.92	0.12
679.246	0.12
679.573	0.12
679.9	0.12
680.226	0.12
680.553	0.11
680.879	0.12
681.206	0.12
681.532	0.12
681.858	0.12
682.184	0.12
682.511	0.13
682.837	0.12
683.163	0.13
683.489	0.12
683.815	0.12
684.141	0.13
684.467	0.13
684.793	0.12
685.118	0.12
685.444	0.13
685.77	0.12
686.095	0.12
686.421	0.12
686.746	0.12
687.072	0.12
687.397	0.12
687.723	0.12
688.048	0.12
688.373	0.12
688.698	0.12
689.023	0.11
689.349	0.11
689.674	0.12
689.999	0.11
690.323	0.1
690.648	0.11
690.973	0.1
691.298	0.11
691.623	0.11
691.947	0.11
692.272	0.11
692.596	0.11
692.921	0.12
693.245	0.11
693.57	0.12
693.894	0.12
694.218	0.12
694.543	0.11
694.867	0.11
695.191	0.11
695.515	0.11
695.839	0.11
696.163	0.12
696.487	0.11
696.811	0.11
697.135	0.11
697.458	0.11
697.782	0.11
698.106	0.11
698.429	0.12
698.753	0.11
699.076	0.11
699.4	0.1
699.723	0.11
700.046	0.11
700.37	0.11
700.693	0.12
701.016	0.11
701.339	0.11
701.662	0.11
701.985	0.11
702.308	0.1
702.631	0.11
702.954	0.11
703.277	0.11
703.599	0.11
703.922	0.09
704.245	0.1
704.567	0.1
704.89	0.11
705.212	0.1
705.535	0.1
705.857	0.09
706.179	0.09
706.502	0.09
706.824	0.09
707.146	0.1
707.468	0.1
707.79	0.1
708.112	0.1
708.434	0.1
708.756	0.1
709.078	0.1
709.399	0.1
709.721	0.1
710.043	0.11
710.364	0.11
710.686	0.1
711.007	0.1
711.329	0.1
711.65	0.1
711.972	0.1
712.293	0.11
712.614	0.11
712.935	0.1
713.256	0.1
713.577	0.11
713.898	0.1
714.219	0.1
714.54	0.1
714.861	0.09
715.182	0.1
715.503	0.1
715.823	0.1
716.144	0.09
716.464	0.09
716.785	0.09
717.105	0.09
717.426	0.09
717.746	0.09
718.066	0.08
718.387	0.09
718.707	0.08
719.027	0.09
719.347	0.08
719.667	0.09
719.987	0.08
720.307	0.08
720.627	0.08
720.947	0.08
721.266	0.09
721.586	0.08
721.906	0.08
722.225	0.08
722.545	0.08
722.864	0.08
723.184	0.09
723.503	0.09
723.823	0.09
724.142	0.08
724.461	0.09
724.78	0.08
725.099	0.08
725.418	0.09
725.737	0.08
726.056	0.09
726.375	0.1
726.694	0.09
727.013	0.08
727.331	0.08
727.65	0.08
727.969	0.09
728.287	0.09
728.606	0.09
728.924	0.08
729.242	0.09
729.561	0.08
729.879	0.08
730.197	0.08
730.515	0.08
730.834	0.08
731.152	0.09
731.47	0.08
731.788	0.08
732.105	0.08
732.423	0.08
732.741	0.08
733.059	0.09
733.376	0.09
733.694	0.08
734.012	0.08
734.329	0.1
734.647	0.08
734.964	0.09
735.281	0.08
735.599	0.09
735.916	0.09
736.233	0.08
736.55	0.08
736.867	0.09
737.184	0.1
737.501	0.09
737.818	0.09
738.135	0.09
738.452	0.08
738.768	0.08
739.085	0.09
739.402	0.07
739.718	0.09
740.035	0.09
740.351	0.09
740.668	0.09
740.984	0.08
741.3	0.08
741.617	0.08
741.933	0.08
742.249	0.09
742.565	0.09
742.881	0.09
743.197	0.08
743.513	0.07
743.829	0.07
744.144	0.08
744.46	0.08
744.776	0.08
745.091	0.08
745.407	0.08
745.722	0.08
746.038	0.08
746.353	0.06
746.669	0.08
746.984	0.07
747.299	0.07
747.614	0.08
747.93	0.07
748.245	0.07
748.56	0.07
748.875	0.07
749.189	0.07
749.504	0.07
749.819	0.07
750.134	0.06
750.448	0.07
750.763	0.07
751.078	0.06
751.392	0.07
751.707	0.08
752.021	0.08
752.335	0.07
752.65	0.08
752.964	0.08
753.278	0.07
753.592	0.07
753.906	0.07
754.22	0.07
754.534	0.07
754.848	0.07
755.162	0.07
755.476	0.08
755.789	0.08
756.103	0.07
756.417	0.07
756.73	0.07
757.044	0.07
757.357	0.07
757.671	0.07
757.984	0.07
758.297	0.07
758.61	0.07
758.924	0.08
759.237	0.07
759.55	0.07
759.863	0.07
760.176	0.07
760.488	0.07
760.801	0.07
761.114	0.07
761.427	0.06
761.739	0.07
762.052	0.07
762.365	0.07
762.677	0.06
762.99	0.06
763.302	0.07
763.614	0.07
763.926	0.07
764.239	0.06
764.551	0.07
764.863	0.07
765.175	0.07
765.487	0.07
765.799	0.07
766.111	0.06
766.423	0.06
766.734	0.07
767.046	0.06
767.358	0.07
767.669	0.06
767.981	0.07
768.292	0.06
768.604	0.06
768.915	0.06
769.226	0.07
769.537	0.06
769.849	0.07
770.16	0.07
770.471	0.06
770.782	0.06
771.093	0.06
771.404	0.05
771.715	0.06
772.025	0.06
772.336	0.06
772.647	0.05
772.957	0.06
773.268	0.06
773.578	0.06
773.889	0.07
774.199	0.07
774.51	0.06
774.82	0.07
775.13	0.07
775.44	0.07
775.75	0.08
776.06	0.06
776.37	0.06
776.68	0.07
776.99	0.07
777.3	0.06
777.61	0.07
777.92	0.07
778.229	0.06
778.539	0.06
778.848	0.07
779.158	0.07
779.467	0.07
779.777	0.06
780.086	0.07
780.395	0.06
780.704	0.06
781.013	0.05
781.323	0.06
781.632	0.06
781.941	0.06
782.249	0.06
782.558	0.05
782.867	0.06
783.176	0.06
783.485	0.05
783.793	0.06
784.102	0.06
784.41	0.05
784.719	0.05
785.027	0.06
785.335	0.06
785.644	0.06
785.952	0.06
786.26	0.06
786.568	0.06
786.876	0.06
787.184	0.05
787.492	0.06
787.8	0.06
788.108	0.06
788.416	0.06
788.723	0.06
789.031	0.05
789.338	0.06
789.646	0.06
789.953	0.06
790.261	0.06
790.568	0.06
790.876	0.06
791.183	0.06
791.49	0.06
791.797	0.06
792.104	0.05
792.411	0.07
792.718	0.06
793.025	0.07
793.332	0.06
793.639	0.06
793.945	0.07
794.252	0.06
794.559	0.06
794.865	0.06
795.172	0.07
795.478	0.06
795.784	0.06
796.091	0.07
796.397	0.07
796.703	0.06
797.009	0.07
797.315	0.07
797.622	0.07
797.927	0.06
798.233	0.07
798.539	0.08
798.845	0.07
799.151	0.07
799.456	0.07
799.762	0.06
800.068	0.06
800.373	0.07
800.679	0.07
800.984	0.07
801.289	0.06
801.595	0.07
801.9	0.07
802.205	0.07
802.51	0.07
802.815	0.06
803.12	0.07
803.425	0.07
803.73	0.06
804.035	0.06
804.339	0.06
804.644	0.06
804.949	0.07
805.253	0.06
805.558	0.06
805.862	0.05
806.167	0.06
806.471	0.05
806.775	0.06
807.08	0.06
807.384	0.06
807.688	0.05
807.992	0.06
808.296	0.06
808.6	0.06
808.904	0.06
809.207	0.06
809.511	0.07
809.815	0.07
810.119	0.07
810.422	0.07
810.726	0.08
811.029	0.07
811.332	0.07
811.636	0.07
811.939	0.06
812.242	0.07
812.546	0.07
812.849	0.07
813.152	0.08
813.455	0.07
813.758	0.07
814.06	0.07
814.363	0.07
814.666	0.07
814.969	0.07
815.271	0.06
815.574	0.06
815.877	0.07
816.179	0.07
816.481	0.06
816.784	0.06
817.086	0.06
817.388	0.05
817.69	0.05
817.993	0.05
818.295	0.05
818.597	0.05
818.899	0.05
819.2	0.05
819.502	0.05
819.804	0.05
820.106	0.05
820.407	0.04
820.709	0.05
821.01	0.05
821.312	0.05
821.613	0.05
821.915	0.04
822.216	0.05
822.517	0.04
822.818	0.05
823.119	0.05
823.42	0.05
823.721	0.04
824.022	0.04
824.323	0.04
824.624	0.04
824.925	0.05
825.226	0.04
825.526	0.05
825.827	0.05
826.127	0.05
826.428	0.04
826.728	0.04
827.028	0.04
827.329	0.05
827.629	0.04
827.929	0.04
828.229	0.04
828.529	0.05
828.829	0.04
829.129	0.03
829.429	0.04
829.729	0.04
830.029	0.04
830.328	0.04
830.628	0.03
830.927	0.03
831.227	0.04
831.526	0.03
831.826	0.04
832.125	0.03
832.424	0.03
832.724	0.04
833.023	0.03
833.322	0.04
833.621	0.04
833.92	0.03
834.219	0.03
834.518	0.03
834.816	0.03
835.115	0.02
835.414	0.03
835.712	0.02
836.011	0.01
836.309	0.03
836.608	0.02
836.906	0.01
837.205	0.01
837.503	0.02
837.801	0
838.099	0
838.397	-0
838.695	-0
838.993	-0
839.291	-0
839.589	0
839.887	-0
840.184	-0.01
840.482	-0.01
840.78	-0
841.077	-0.01
841.375	-0
841.672	-0
841.969	-0
842.267	-0
842.564	-0.01
842.861	0
843.158	-0.01
843.455	-0.03
843.752	-0.02
844.049	-0.02
844.346	-0.01
844.643	-0.02
844.94	-0.02
845.236	-0.01
845.533	-0.01
845.83	-0.02
846.126	-0.02
846.423	-0.02
846.719	-0.03
847.015	-0.02
847.312	-0.03
847.608	-0.02
847.904	-0.03
848.2	-0.03
848.496	-0.03
848.792	-0.03
849.088	-0.02
849.384	-0.04
849.68	-0.04
849.975	-0.03
850.271	-0.04
850.567	-0.04
850.862	-0.05
851.158	-0.04
851.453	-0.04
851.748	-0.05
852.044	-0.05
852.339	-0.04
852.634	-0.06
852.929	-0.04
853.224	-0.05
853.519	-0.05
853.814	-0.05
854.109	-0.06
854.404	-0.05
854.699	-0.06
854.994	-0.05
855.288	-0.04
855.583	-0.04
855.877	-0.06
856.172	-0.06
856.466	-0.06
856.76	-0.06
857.055	-0.06
857.349	-0.08
857.643	-0.07
857.937	-0.07
858.231	-0.08
858.525	-0.08
858.819	-0.08
859.113	-0.09
859.407	-0.09
859.701	-0.1
859.994	-0.1
860.288	-0.08
860.581	-0.1
860.875	-0.1
861.168	-0.1
861.462	-0.1
861.755	-0.08
862.048	-0.11
862.341	-0.1
862.634	-0.11
862.928	-0.09
863.221	-0.1
863.513	-0.11
863.806	-0.11
864.099	-0.11
864.392	-0.11
864.685	-0.11
864.977	-0.11
865.27	-0.11
865.562	-0.12
865.855	-0.12
866.147	-0.12
866.44	-0.11
866.732	-0.12
867.024	-0.12
867.316	-0.12
867.608	-0.12
867.9	-0.11
868.192	-0.12
868.484	-0.12
868.776	-0.12
869.068	-0.13
869.359	-0.12
869.651	-0.13
869.943	-0.14
870.234	-0.13
870.526	-0.13
870.817	-0.14
871.108	-0.12
871.4	-0.13
871.691	-0.15
871.982	-0.14
872.273	-0.16
872.564	-0.14
872.855	-0.13
873.146	-0.15
873.437	-0.15
873.728	-0.16
874.019	-0.15
874.309	-0.15
874.6	-0.14
874.89	-0.15
875.181	-0.16
875.471	-0.15
875.762	-0.15
876.052	-0.15
876.342	-0.14
876.632	-0.15
876.922	-0.17
877.213	-0.16
877.503	-0.18
877.792	-0.17
878.082	-0.17
878.372	-0.15
878.662	-0.19
878.952	-0.17
879.241	-0.17
879.531	-0.16
879.82	-0.18
880.11	-0.16
880.399	-0.17
880.688	-0.16
880.978	-0.16
881.267	-0.16
