Data from 12-12-AQDScycling_Absorbance__722__00722.txt Node

Date: Tue Dec 12 13:57:14 EST 2023
User: kyuminlee
Spectrometer: FLMS00943
Trigger mode: 0
Integration Time (sec): 1.000000E-1
Scans to average: 1
Electric dark correction enabled: true
Nonlinearity correction enabled: false
Boxcar width: 0
XAxis mode: Wavelengths
Number of Pixels in Spectrum: 2048
>>>>>Begin Spectral Data<<<<<
179.651	-0
180.037	-0
180.424	-0
180.81	-0.42
181.197	0.68
181.583	-0
181.97	-0.32
182.356	-0
182.743	-0
183.129	-0
183.515	1.08
183.901	-0
184.288	0.29
184.674	-0
185.06	-0.92
185.446	-0.39
185.832	-0
186.218	0.37
186.604	-0
186.99	-0
187.376	-0
187.762	-0.06
188.148	0.3
188.534	0.02
188.92	0.12
189.305	0.13
189.691	0.18
190.077	0.11
190.463	0.04
190.848	0.03
191.234	0.14
191.619	0.04
192.005	0.04
192.391	0.13
192.776	0.07
193.161	0.04
193.547	0.14
193.932	0.03
194.318	0.03
194.703	0.07
195.088	0.1
195.473	0.24
195.859	0.13
196.244	0.12
196.629	0.23
197.014	0.06
197.399	0.09
197.784	0
198.169	0.12
198.554	0.34
198.939	0
199.324	0.06
199.709	0.1
200.094	0.04
200.478	0.07
200.863	0.1
201.248	0.05
201.633	0.19
202.017	0.12
202.402	0.25
202.787	0.17
203.171	0.06
203.556	0.17
203.94	0.2
204.325	0.17
204.709	0.15
205.093	0.13
205.478	0.19
205.862	0.02
206.246	0.13
206.631	0.2
207.015	0.21
207.399	0.22
207.783	0.06
208.167	0.12
208.551	0.3
208.935	0.2
209.319	0.11
209.703	0.1
210.087	0.29
210.471	0.26
210.855	0.11
211.239	0.21
211.623	0.11
212.007	0.23
212.39	0.12
212.774	0.17
213.158	0.09
213.541	0.15
213.925	0.25
214.309	0.19
214.692	0.28
215.076	0.25
215.459	0.18
215.842	0.09
216.226	0.15
216.609	0.36
216.993	0.19
217.376	0.36
217.759	0.24
218.142	0.23
218.525	0.41
218.909	0.32
219.292	0.24
219.675	0.36
220.058	0.41
220.441	0.49
220.824	0.41
221.207	0.6
221.59	0.54
221.973	0.54
222.355	0.69
222.738	0.56
223.121	0.5
223.504	0.52
223.886	0.59
224.269	0.68
224.652	0.61
225.034	0.66
225.417	0.66
225.799	0.72
226.182	0.86
226.564	0.8
226.947	0.73
227.329	0.79
227.711	0.79
228.094	1.11
228.476	0.86
228.858	0.82
229.24	0.75
229.623	0.8
230.005	0.8
230.387	0.81
230.769	0.73
231.151	0.91
231.533	0.84
231.915	0.84
232.297	0.99
232.679	0.9
233.061	0.97
233.442	1.09
233.824	1.1
234.206	1.01
234.588	0.94
234.969	1.18
235.351	0.94
235.733	1.05
236.114	1.05
236.496	1.15
236.877	1.12
237.259	1.1
237.64	1.02
238.022	1.02
238.403	1.07
238.784	1.08
239.165	0.87
239.547	1.04
239.928	1.11
240.309	1.02
240.69	0.99
241.071	1.1
241.452	1.08
241.834	1
242.215	1.03
242.595	0.99
242.976	1.1
243.357	1.23
243.738	0.97
244.119	1.07
244.5	1.06
244.881	1.12
245.261	1.15
245.642	1.15
246.023	1.14
246.403	1.12
246.784	1.29
247.164	1.21
247.545	1.32
247.925	1.31
248.306	1.24
248.686	1.37
249.067	1.13
249.447	1.27
249.827	1.35
250.207	1.44
250.588	1.3
250.968	1.42
251.348	1.44
251.728	1.49
252.108	1.34
252.488	1.47
252.868	1.36
253.248	1.3
253.628	1.4
254.008	1.47
254.388	1.19
254.768	1.26
255.147	1.39
255.527	1.35
255.907	1.36
256.287	1.35
256.666	1.32
257.046	1.38
257.425	1.48
257.805	1.22
258.184	1.34
258.564	1.37
258.943	1.38
259.323	1.46
259.702	1.4
260.081	1.41
260.461	1.44
260.84	1.4
261.219	1.7
261.598	1.49
261.977	1.39
262.356	1.56
262.736	1.6
263.115	1.51
263.494	1.34
263.873	1.4
264.251	1.57
264.63	1.51
265.009	1.41
265.388	1.43
265.767	1.49
266.145	1.39
266.524	1.44
266.903	1.34
267.281	1.37
267.66	1.4
268.039	1.37
268.417	1.48
268.796	1.32
269.174	1.32
269.552	1.33
269.931	1.44
270.309	1.31
270.687	1.56
271.066	1.58
271.444	1.38
271.822	1.41
272.2	1.35
272.578	1.41
272.956	1.39
273.334	1.47
273.712	1.58
274.09	1.35
274.468	1.28
274.846	1.31
275.224	1.36
275.602	1.42
275.98	1.51
276.357	1.34
276.735	1.51
277.113	1.28
277.49	1.25
277.868	1.3
278.246	1.56
278.623	1.19
279.001	1.28
279.378	1.41
279.756	1.49
280.133	1.53
280.51	1.4
280.888	1.52
281.265	1.36
281.642	1.47
282.019	1.56
282.396	1.65
282.773	1.43
283.151	1.47
283.528	1.47
283.905	1.51
284.282	1.5
284.659	1.6
285.035	1.36
285.412	1.4
285.789	1.43
286.166	1.58
286.543	1.36
286.919	1.43
287.296	1.31
287.673	1.76
288.049	1.44
288.426	1.52
288.802	1.44
289.179	1.48
289.555	1.69
289.932	1.46
290.308	1.31
290.684	1.39
291.061	1.37
291.437	1.56
291.813	1.43
292.189	1.25
292.565	1.29
292.942	1.27
293.318	1.31
293.694	1.34
294.07	1.33
294.446	1.46
294.822	1.45
295.197	1.47
295.573	1.44
295.949	1.4
296.325	1.54
296.701	1.57
297.076	1.5
297.452	1.65
297.828	1.47
298.203	1.49
298.579	1.38
298.954	1.46
299.33	1.38
299.705	1.51
300.081	1.53
300.456	1.57
300.831	1.38
301.206	1.42
301.582	1.67
301.957	1.46
302.332	1.58
302.707	1.51
303.082	1.38
303.457	1.53
303.832	1.4
304.207	1.44
304.582	1.52
304.957	1.55
305.332	1.47
305.707	1.63
306.082	1.55
306.456	1.74
306.831	1.37
307.206	1.62
307.58	1.57
307.955	1.44
308.33	1.49
308.704	1.5
309.079	1.5
309.453	1.61
309.828	1.51
310.202	1.43
310.576	1.34
310.951	1.48
311.325	1.57
311.699	1.49
312.073	1.5
312.447	1.56
312.821	1.41
313.196	1.54
313.57	1.43
313.944	1.49
314.317	1.4
314.691	1.47
315.065	1.53
315.439	1.56
315.813	1.41
316.187	1.48
316.56	1.61
316.934	1.5
317.308	1.45
317.681	1.61
318.055	1.44
318.428	1.57
318.802	1.59
319.175	1.44
319.549	1.46
319.922	1.42
320.295	1.48
320.669	1.57
321.042	1.5
321.415	1.58
321.788	1.5
322.162	1.39
322.535	1.56
322.908	1.54
323.281	1.41
323.654	1.74
324.027	1.5
324.4	1.57
324.773	1.48
325.145	1.54
325.518	1.41
325.891	1.37
326.264	1.7
326.636	1.42
327.009	1.47
327.382	1.42
327.754	1.55
328.127	1.48
328.499	1.49
328.872	1.49
329.244	1.56
329.616	1.54
329.989	1.47
330.361	1.51
330.733	1.58
331.106	1.45
331.478	1.52
331.85	1.47
332.222	1.45
332.594	1.49
332.966	1.51
333.338	1.52
333.71	1.6
334.082	1.52
334.454	1.41
334.826	1.6
335.197	1.53
335.569	1.48
335.941	1.39
336.312	1.52
336.684	1.36
337.056	1.41
337.427	1.44
337.799	1.67
338.17	1.69
338.542	1.34
338.913	1.51
339.284	1.6
339.656	1.53
340.027	1.6
340.398	1.55
340.769	1.43
341.141	1.68
341.512	1.55
341.883	1.55
342.254	1.51
342.625	1.62
342.996	1.39
343.367	1.49
343.738	1.53
344.108	1.52
344.479	1.87
344.85	1.42
345.221	1.45
345.591	1.35
345.962	1.4
346.333	1.38
346.703	1.37
347.074	1.45
347.444	1.31
347.815	1.45
348.185	1.34
348.556	1.44
348.926	1.41
349.296	1.37
349.666	1.39
350.037	1.23
350.407	1.27
350.777	1.43
351.147	1.31
351.517	1.34
351.887	1.33
352.257	1.35
352.627	1.26
352.997	1.32
353.367	1.44
353.737	1.39
354.106	1.41
354.476	1.28
354.846	1.39
355.216	1.32
355.585	1.35
355.955	1.35
356.324	1.31
356.694	1.37
357.063	1.29
357.433	1.2
357.802	1.25
358.171	1.25
358.541	1.16
358.91	1.26
359.279	1.24
359.648	1.15
360.017	1.21
360.387	1.14
360.756	1.1
361.125	1.1
361.494	1.13
361.863	1.11
362.231	1
362.6	1.06
362.969	1.07
363.338	1.02
363.707	0.99
364.075	1.03
364.444	0.95
364.813	0.97
365.181	0.91
365.55	0.92
365.918	0.94
366.287	0.91
366.655	0.95
367.024	0.89
367.392	0.91
367.76	0.85
368.128	0.88
368.497	0.84
368.865	0.85
369.233	0.84
369.601	0.82
369.969	0.82
370.337	0.8
370.705	0.81
371.073	0.78
371.441	0.79
371.809	0.75
372.177	0.77
372.544	0.77
372.912	0.75
373.28	0.74
373.647	0.74
374.015	0.75
374.383	0.74
374.75	0.72
375.118	0.72
375.485	0.71
375.853	0.71
376.22	0.7
376.587	0.69
376.955	0.69
377.322	0.68
377.689	0.69
378.056	0.66
378.423	0.66
378.79	0.7
379.157	0.69
379.524	0.67
379.891	0.68
380.258	0.67
380.625	0.64
380.992	0.68
381.359	0.68
381.726	0.7
382.092	0.66
382.459	0.67
382.826	0.67
383.192	0.68
383.559	0.66
383.925	0.7
384.292	0.67
384.658	0.68
385.025	0.66
385.391	0.72
385.757	0.69
386.123	0.71
386.49	0.7
386.856	0.69
387.222	0.71
387.588	0.68
387.954	0.72
388.32	0.7
388.686	0.69
389.052	0.68
389.418	0.7
389.784	0.69
390.15	0.68
390.515	0.7
390.881	0.7
391.247	0.7
391.613	0.71
391.978	0.68
392.344	0.71
392.709	0.71
393.075	0.68
393.44	0.67
393.806	0.69
394.171	0.67
394.536	0.69
394.902	0.68
395.267	0.65
395.632	0.65
395.997	0.65
396.362	0.67
396.727	0.68
397.092	0.66
397.457	0.66
397.822	0.65
398.187	0.65
398.552	0.62
398.917	0.62
399.282	0.63
399.646	0.62
400.011	0.66
400.376	0.62
400.74	0.63
401.105	0.61
401.47	0.62
401.834	0.62
402.199	0.62
402.563	0.6
402.927	0.58
403.292	0.61
403.656	0.6
404.02	0.6
404.384	0.61
404.749	0.57
405.113	0.58
405.477	0.57
405.841	0.57
406.205	0.56
406.569	0.56
406.933	0.55
407.296	0.55
407.66	0.55
408.024	0.55
408.388	0.53
408.752	0.56
409.115	0.51
409.479	0.54
409.842	0.5
410.206	0.49
410.569	0.53
410.933	0.52
411.296	0.51
411.66	0.53
412.023	0.51
412.386	0.5
412.749	0.51
413.113	0.5
413.476	0.46
413.839	0.48
414.202	0.47
414.565	0.48
414.928	0.47
415.291	0.47
415.654	0.47
416.017	0.46
416.38	0.44
416.742	0.47
417.105	0.45
417.468	0.46
417.83	0.45
418.193	0.47
418.556	0.46
418.918	0.44
419.281	0.44
419.643	0.45
420.005	0.47
420.368	0.44
420.73	0.45
421.092	0.45
421.455	0.43
421.817	0.42
422.179	0.41
422.541	0.44
422.903	0.42
423.265	0.44
423.627	0.43
423.989	0.41
424.351	0.41
424.713	0.42
425.075	0.41
425.436	0.42
425.798	0.41
426.16	0.42
426.521	0.39
426.883	0.43
427.245	0.41
427.606	0.4
427.967	0.41
428.329	0.4
428.69	0.42
429.052	0.41
429.413	0.4
429.774	0.41
430.135	0.41
430.497	0.39
430.858	0.38
431.219	0.38
431.58	0.39
431.941	0.4
432.302	0.4
432.663	0.39
433.024	0.41
433.384	0.38
433.745	0.36
434.106	0.38
434.467	0.38
434.827	0.39
435.188	0.38
435.548	0.4
435.909	0.38
436.269	0.38
436.63	0.36
436.99	0.38
437.351	0.37
437.711	0.39
438.071	0.37
438.431	0.37
438.792	0.36
439.152	0.36
439.512	0.36
439.872	0.37
440.232	0.37
440.592	0.37
440.952	0.37
441.312	0.36
441.671	0.36
442.031	0.35
442.391	0.35
442.751	0.35
443.11	0.34
443.47	0.34
443.83	0.33
444.189	0.33
444.549	0.35
444.908	0.35
445.267	0.34
445.627	0.33
445.986	0.32
446.345	0.32
446.705	0.32
447.064	0.32
447.423	0.32
447.782	0.32
448.141	0.31
448.5	0.32
448.859	0.32
449.218	0.32
449.577	0.31
449.936	0.33
450.295	0.31
450.653	0.32
451.012	0.31
451.371	0.32
451.729	0.31
452.088	0.31
452.447	0.31
452.805	0.32
453.163	0.31
453.522	0.32
453.88	0.29
454.239	0.31
454.597	0.29
454.955	0.29
455.313	0.29
455.671	0.29
456.029	0.27
456.388	0.28
456.746	0.28
457.104	0.28
457.461	0.27
457.819	0.27
458.177	0.27
458.535	0.27
458.893	0.26
459.25	0.26
459.608	0.26
459.966	0.26
460.323	0.25
460.681	0.23
461.038	0.25
461.396	0.24
461.753	0.24
462.111	0.24
462.468	0.23
462.825	0.23
463.182	0.24
463.54	0.23
463.897	0.23
464.254	0.24
464.611	0.23
464.968	0.22
465.325	0.23
465.682	0.22
466.039	0.22
466.395	0.22
466.752	0.21
467.109	0.21
467.466	0.22
467.822	0.21
468.179	0.2
468.535	0.2
468.892	0.2
469.248	0.2
469.605	0.19
469.961	0.2
470.318	0.21
470.674	0.2
471.03	0.19
471.386	0.2
471.743	0.18
472.099	0.19
472.455	0.19
472.811	0.18
473.167	0.19
473.523	0.18
473.879	0.18
474.235	0.18
474.59	0.18
474.946	0.17
475.302	0.17
475.657	0.17
476.013	0.17
476.369	0.16
476.724	0.17
477.08	0.16
477.435	0.16
477.791	0.16
478.146	0.16
478.501	0.16
478.857	0.16
479.212	0.16
479.567	0.15
479.922	0.14
480.277	0.14
480.632	0.14
480.987	0.15
481.342	0.14
481.697	0.14
482.052	0.14
482.407	0.14
482.762	0.14
483.116	0.13
483.471	0.13
483.826	0.12
484.18	0.13
484.535	0.13
484.89	0.13
485.244	0.13
485.598	0.13
485.953	0.12
486.307	0.12
486.661	0.13
487.016	0.12
487.37	0.12
487.724	0.12
488.078	0.12
488.432	0.12
488.786	0.12
489.14	0.12
489.494	0.11
489.848	0.11
490.202	0.11
490.556	0.12
490.91	0.11
491.263	0.11
491.617	0.11
491.971	0.11
492.324	0.11
492.678	0.11
493.031	0.11
493.385	0.11
493.738	0.11
494.091	0.11
494.445	0.11
494.798	0.11
495.151	0.11
495.504	0.1
495.857	0.1
496.21	0.11
496.564	0.1
496.916	0.11
497.269	0.1
497.622	0.1
497.975	0.1
498.328	0.1
498.681	0.1
499.033	0.09
499.386	0.09
499.739	0.09
500.091	0.1
500.444	0.1
500.796	0.09
501.149	0.09
501.501	0.09
501.854	0.1
502.206	0.09
502.558	0.09
502.91	0.1
503.263	0.09
503.615	0.09
503.967	0.09
504.319	0.1
504.671	0.09
505.023	0.09
505.375	0.09
505.726	0.09
506.078	0.09
506.43	0.09
506.782	0.09
507.133	0.09
507.485	0.09
507.837	0.1
508.188	0.09
508.54	0.09
508.891	0.09
509.243	0.09
509.594	0.09
509.945	0.09
510.296	0.09
510.648	0.09
510.999	0.09
511.35	0.08
511.701	0.09
512.052	0.1
512.403	0.09
512.754	0.09
513.105	0.09
513.456	0.09
513.807	0.08
514.157	0.09
514.508	0.09
514.859	0.08
515.209	0.09
515.56	0.09
515.91	0.08
516.261	0.09
516.611	0.09
516.962	0.09
517.312	0.09
517.662	0.09
518.013	0.09
518.363	0.1
518.713	0.09
519.063	0.09
519.413	0.09
519.763	0.09
520.113	0.09
520.463	0.09
520.813	0.1
521.163	0.1
521.512	0.09
521.862	0.09
522.212	0.09
522.562	0.09
522.911	0.09
523.261	0.09
523.61	0.09
523.96	0.09
524.309	0.09
524.658	0.1
525.008	0.09
525.357	0.09
525.706	0.1
526.056	0.09
526.405	0.09
526.754	0.09
527.103	0.08
527.452	0.09
527.801	0.09
528.15	0.09
528.499	0.09
528.847	0.1
529.196	0.1
529.545	0.1
529.893	0.1
530.242	0.1
530.591	0.1
530.939	0.1
531.288	0.1
531.636	0.1
531.985	0.09
532.333	0.1
532.681	0.1
533.029	0.1
533.378	0.1
533.726	0.1
534.074	0.1
534.422	0.09
534.77	0.1
535.118	0.1
535.466	0.1
535.814	0.09
536.162	0.1
536.509	0.1
536.857	0.1
537.205	0.1
537.552	0.11
537.9	0.1
538.248	0.1
538.595	0.1
538.943	0.1
539.29	0.1
539.637	0.09
539.985	0.1
540.332	0.1
540.679	0.1
541.026	0.09
541.373	0.1
541.721	0.09
542.068	0.09
542.415	0.09
542.762	0.09
543.108	0.09
543.455	0.08
543.802	0.09
544.149	0.09
544.496	0.09
544.842	0.08
545.189	0.08
545.535	0.09
545.882	0.09
546.228	0.08
546.575	0.08
546.921	0.08
547.267	0.08
547.614	0.09
547.96	0.09
548.306	0.08
548.652	0.09
548.998	0.08
549.344	0.08
549.69	0.08
550.036	0.09
550.382	0.08
550.728	0.08
551.074	0.09
551.42	0.09
551.765	0.09
552.111	0.09
552.457	0.1
552.802	0.09
553.148	0.09
553.493	0.09
553.839	0.09
554.184	0.09
554.529	0.09
554.875	0.09
555.22	0.1
555.565	0.1
555.91	0.09
556.255	0.09
556.6	0.1
556.945	0.09
557.29	0.09
557.635	0.1
557.98	0.1
558.325	0.09
558.67	0.09
559.014	0.09
559.359	0.1
559.704	0.09
560.048	0.09
560.393	0.09
560.737	0.08
561.082	0.1
561.426	0.08
561.77	0.08
562.115	0.08
562.459	0.09
562.803	0.1
563.147	0.09
563.491	0.09
563.835	0.1
564.179	0.09
564.523	0.09
564.867	0.08
565.211	0.09
565.555	0.09
565.899	0.1
566.242	0.1
566.586	0.09
566.93	0.09
567.273	0.1
567.617	0.1
567.96	0.09
568.304	0.1
568.647	0.09
568.99	0.1
569.334	0.1
569.677	0.09
570.02	0.1
570.363	0.1
570.706	0.09
571.049	0.1
571.392	0.09
571.735	0.09
572.078	0.1
572.421	0.11
572.764	0.09
573.106	0.09
573.449	0.09
573.792	0.09
574.134	0.1
574.477	0.1
574.819	0.09
575.162	0.09
575.504	0.09
575.847	0.09
576.189	0.1
576.531	0.09
576.873	0.09
577.215	0.09
577.558	0.09
577.9	0.09
578.242	0.09
578.584	0.09
578.926	0.09
579.267	0.09
579.609	0.09
579.951	0.09
580.293	0.1
580.634	0.1
580.976	0.1
581.318	0.09
581.659	0.09
582.001	0.09
582.342	0.09
582.683	0.09
583.025	0.08
583.366	0.08
583.707	0.09
584.049	0.09
584.39	0.09
584.731	0.09
585.072	0.09
585.413	0.09
585.754	0.09
586.095	0.1
586.435	0.09
586.776	0.09
587.117	0.09
587.458	0.08
587.798	0.08
588.139	0.09
588.48	0.09
588.82	0.09
589.161	0.09
589.501	0.08
589.841	0.09
590.182	0.08
590.522	0.08
590.862	0.09
591.202	0.09
591.542	0.09
591.882	0.08
592.222	0.09
592.562	0.09
592.902	0.09
593.242	0.09
593.582	0.09
593.922	0.09
594.261	0.08
594.601	0.09
594.941	0.09
595.28	0.09
595.62	0.08
595.959	0.09
596.299	0.08
596.638	0.09
596.977	0.09
597.317	0.09
597.656	0.09
597.995	0.09
598.334	0.1
598.673	0.09
599.012	0.09
599.351	0.1
599.69	0.09
600.029	0.09
600.368	0.1
600.707	0.1
601.046	0.09
601.384	0.1
601.723	0.1
602.061	0.09
602.4	0.1
602.738	0.1
603.077	0.09
603.415	0.09
603.754	0.09
604.092	0.1
604.43	0.1
604.768	0.09
605.107	0.09
605.445	0.09
605.783	0.09
606.121	0.09
606.459	0.09
606.796	0.09
607.134	0.09
607.472	0.09
607.81	0.09
608.148	0.08
608.485	0.1
608.823	0.09
609.16	0.09
609.498	0.09
609.835	0.09
610.173	0.09
610.51	0.09
610.847	0.09
611.185	0.09
611.522	0.09
611.859	0.1
612.196	0.09
612.533	0.1
612.87	0.1
613.207	0.1
613.544	0.1
613.881	0.1
614.217	0.09
614.554	0.09
614.891	0.09
615.228	0.1
615.564	0.1
615.901	0.1
616.237	0.1
616.574	0.09
616.91	0.1
617.246	0.1
617.583	0.1
617.919	0.1
618.255	0.11
618.591	0.1
618.927	0.1
619.263	0.1
619.599	0.1
619.935	0.1
620.271	0.1
620.607	0.1
620.943	0.09
621.279	0.1
621.614	0.1
621.95	0.11
622.286	0.1
622.621	0.09
622.957	0.09
623.292	0.09
623.627	0.1
623.963	0.1
624.298	0.1
624.633	0.09
624.968	0.09
625.304	0.09
625.639	0.09
625.974	0.09
626.309	0.09
626.644	0.09
626.979	0.1
627.313	0.09
627.648	0.1
627.983	0.1
628.318	0.09
628.652	0.08
628.987	0.09
629.321	0.08
629.656	0.08
629.99	0.08
630.325	0.09
630.659	0.08
630.993	0.09
631.327	0.09
631.662	0.07
631.996	0.08
632.33	0.08
632.664	0.08
632.998	0.08
633.332	0.08
633.666	0.08
633.999	0.08
634.333	0.08
634.667	0.08
635.001	0.08
635.334	0.08
635.668	0.08
636.001	0.08
636.335	0.08
636.668	0.08
637.001	0.07
637.335	0.08
637.668	0.09
638.001	0.08
638.334	0.08
638.668	0.08
639.001	0.08
639.334	0.08
639.667	0.08
639.999	0.07
640.332	0.08
640.665	0.08
640.998	0.08
641.331	0.08
641.663	0.08
641.996	0.08
642.328	0.09
642.661	0.09
642.993	0.09
643.326	0.09
643.658	0.08
643.99	0.08
644.323	0.08
644.655	0.09
644.987	0.08
645.319	0.09
645.651	0.09
645.983	0.08
646.315	0.08
646.647	0.09
646.979	0.09
647.31	0.09
647.642	0.09
647.974	0.08
648.305	0.09
648.637	0.08
648.968	0.09
649.3	0.08
649.631	0.09
649.963	0.08
650.294	0.08
650.625	0.08
650.957	0.09
651.288	0.09
651.619	0.09
651.95	0.08
652.281	0.09
652.612	0.08
652.943	0.1
653.274	0.09
653.604	0.09
653.935	0.08
654.266	0.09
654.596	0.08
654.927	0.08
655.258	0.08
655.588	0.09
655.918	0.09
656.249	0.07
656.579	0.08
656.909	0.08
657.24	0.07
657.57	0.09
657.9	0.09
658.23	0.08
658.56	0.09
658.89	0.09
659.22	0.08
659.55	0.08
659.88	0.08
660.209	0.08
660.539	0.09
660.869	0.08
661.198	0.08
661.528	0.08
661.857	0.08
662.187	0.08
662.516	0.08
662.846	0.08
663.175	0.08
663.504	0.08
663.833	0.08
664.163	0.08
664.492	0.07
664.821	0.08
665.15	0.08
665.479	0.09
665.807	0.08
666.136	0.08
666.465	0.08
666.794	0.09
667.122	0.08
667.451	0.09
667.78	0.09
668.108	0.09
668.437	0.08
668.765	0.09
669.093	0.09
669.422	0.09
669.75	0.09
670.078	0.08
670.406	0.09
670.734	0.08
671.062	0.09
671.39	0.08
671.718	0.08
672.046	0.08
672.374	0.08
672.702	0.08
673.029	0.08
673.357	0.08
673.685	0.08
674.012	0.08
674.34	0.08
674.667	0.08
674.995	0.08
675.322	0.08
675.649	0.08
675.977	0.08
676.304	0.08
676.631	0.08
676.958	0.08
677.285	0.08
677.612	0.07
677.939	0.08
678.266	0.08
678.593	0.08
678.92	0.08
679.246	0.07
679.573	0.08
679.9	0.07
680.226	0.08
680.553	0.08
680.879	0.07
681.206	0.07
681.532	0.07
681.858	0.08
682.184	0.08
682.511	0.08
682.837	0.08
683.163	0.08
683.489	0.08
683.815	0.08
684.141	0.08
684.467	0.08
684.793	0.08
685.118	0.08
685.444	0.08
685.77	0.08
686.095	0.08
686.421	0.07
686.746	0.08
687.072	0.08
687.397	0.08
687.723	0.08
688.048	0.08
688.373	0.07
688.698	0.08
689.023	0.07
689.349	0.08
689.674	0.07
689.999	0.07
690.323	0.06
690.648	0.06
690.973	0.07
691.298	0.06
691.623	0.07
691.947	0.07
692.272	0.07
692.596	0.07
692.921	0.08
693.245	0.07
693.57	0.08
693.894	0.08
694.218	0.07
694.543	0.07
694.867	0.08
695.191	0.07
695.515	0.08
695.839	0.07
696.163	0.08
696.487	0.08
696.811	0.07
697.135	0.07
697.458	0.08
697.782	0.07
698.106	0.07
698.429	0.07
698.753	0.07
699.076	0.08
699.4	0.07
699.723	0.07
700.046	0.07
700.37	0.07
700.693	0.07
701.016	0.07
701.339	0.07
701.662	0.08
701.985	0.08
702.308	0.08
702.631	0.07
702.954	0.08
703.277	0.07
703.599	0.07
703.922	0.06
704.245	0.07
704.567	0.07
704.89	0.07
705.212	0.07
705.535	0.06
705.857	0.06
706.179	0.06
706.502	0.06
706.824	0.06
707.146	0.06
707.468	0.07
707.79	0.07
708.112	0.07
708.434	0.07
708.756	0.07
709.078	0.06
709.399	0.07
709.721	0.06
710.043	0.07
710.364	0.07
710.686	0.07
711.007	0.07
711.329	0.08
711.65	0.07
711.972	0.07
712.293	0.08
712.614	0.07
712.935	0.08
713.256	0.07
713.577	0.07
713.898	0.07
714.219	0.07
714.54	0.07
714.861	0.06
715.182	0.07
715.503	0.07
715.823	0.06
716.144	0.06
716.464	0.06
716.785	0.06
717.105	0.07
717.426	0.07
717.746	0.06
718.066	0.06
718.387	0.06
718.707	0.06
719.027	0.07
719.347	0.05
719.667	0.06
719.987	0.05
720.307	0.06
720.627	0.06
720.947	0.06
721.266	0.06
721.586	0.06
721.906	0.06
722.225	0.06
722.545	0.06
722.864	0.06
723.184	0.06
723.503	0.06
723.823	0.07
724.142	0.06
724.461	0.07
724.78	0.07
725.099	0.06
725.418	0.07
725.737	0.06
726.056	0.06
726.375	0.06
726.694	0.06
727.013	0.07
727.331	0.05
727.65	0.06
727.969	0.06
728.287	0.06
728.606	0.06
728.924	0.06
729.242	0.06
729.561	0.06
729.879	0.06
730.197	0.06
730.515	0.06
730.834	0.05
731.152	0.05
731.47	0.06
731.788	0.06
732.105	0.06
732.423	0.06
732.741	0.06
733.059	0.07
733.376	0.07
733.694	0.06
734.012	0.06
734.329	0.06
734.647	0.06
734.964	0.07
735.281	0.07
735.599	0.07
735.916	0.07
736.233	0.06
736.55	0.06
736.867	0.07
737.184	0.08
737.501	0.06
737.818	0.07
738.135	0.06
738.452	0.07
738.768	0.06
739.085	0.06
739.402	0.06
739.718	0.06
740.035	0.06
740.351	0.07
740.668	0.07
740.984	0.06
741.3	0.06
741.617	0.07
741.933	0.06
742.249	0.07
742.565	0.07
742.881	0.07
743.197	0.06
743.513	0.06
743.829	0.05
744.144	0.06
744.46	0.06
744.776	0.07
745.091	0.05
745.407	0.06
745.722	0.06
746.038	0.05
746.353	0.05
746.669	0.06
746.984	0.05
747.299	0.05
747.614	0.06
747.93	0.05
748.245	0.05
748.56	0.06
748.875	0.05
749.189	0.04
749.504	0.05
749.819	0.05
750.134	0.05
750.448	0.05
750.763	0.05
751.078	0.04
751.392	0.05
751.707	0.06
752.021	0.06
752.335	0.06
752.65	0.06
752.964	0.06
753.278	0.06
753.592	0.05
753.906	0.05
754.22	0.06
754.534	0.06
754.848	0.06
755.162	0.06
755.476	0.06
755.789	0.06
756.103	0.05
756.417	0.06
756.73	0.06
757.044	0.06
757.357	0.06
757.671	0.06
757.984	0.06
758.297	0.06
758.61	0.06
758.924	0.06
759.237	0.05
759.55	0.05
759.863	0.06
760.176	0.05
760.488	0.06
760.801	0.06
761.114	0.05
761.427	0.05
761.739	0.06
762.052	0.05
762.365	0.05
762.677	0.05
762.99	0.05
763.302	0.05
763.614	0.05
763.926	0.05
764.239	0.05
764.551	0.05
764.863	0.05
765.175	0.06
765.487	0.05
765.799	0.04
766.111	0.05
766.423	0.05
766.734	0.05
767.046	0.05
767.358	0.06
767.669	0.05
767.981	0.06
768.292	0.05
768.604	0.06
768.915	0.05
769.226	0.05
769.537	0.05
769.849	0.05
770.16	0.05
770.471	0.04
770.782	0.05
771.093	0.04
771.404	0.04
771.715	0.04
772.025	0.04
772.336	0.05
772.647	0.04
772.957	0.05
773.268	0.05
773.578	0.05
773.889	0.06
774.199	0.06
774.51	0.05
774.82	0.05
775.13	0.06
775.44	0.05
775.75	0.06
776.06	0.06
776.37	0.06
776.68	0.07
776.99	0.05
777.3	0.05
777.61	0.06
777.92	0.05
778.229	0.05
778.539	0.06
778.848	0.06
779.158	0.05
779.467	0.05
779.777	0.06
780.086	0.06
780.395	0.05
780.704	0.05
781.013	0.05
781.323	0.05
781.632	0.05
781.941	0.05
782.249	0.05
782.558	0.05
782.867	0.05
783.176	0.04
783.485	0.04
783.793	0.05
784.102	0.05
784.41	0.05
784.719	0.04
785.027	0.04
785.335	0.04
785.644	0.05
785.952	0.04
786.26	0.05
786.568	0.04
786.876	0.04
787.184	0.04
787.492	0.05
787.8	0.05
788.108	0.05
788.416	0.05
788.723	0.05
789.031	0.04
789.338	0.05
789.646	0.04
789.953	0.05
790.261	0.06
790.568	0.05
790.876	0.05
791.183	0.05
791.49	0.04
791.797	0.05
792.104	0.04
792.411	0.06
792.718	0.05
793.025	0.06
793.332	0.05
793.639	0.05
793.945	0.06
794.252	0.06
794.559	0.05
794.865	0.06
795.172	0.06
795.478	0.05
795.784	0.06
796.091	0.06
796.397	0.06
796.703	0.06
797.009	0.07
797.315	0.06
797.622	0.06
797.927	0.06
798.233	0.06
798.539	0.07
798.845	0.06
799.151	0.06
799.456	0.06
799.762	0.05
800.068	0.05
800.373	0.07
800.679	0.05
800.984	0.06
801.289	0.05
801.595	0.06
801.9	0.06
802.205	0.06
802.51	0.06
802.815	0.06
803.12	0.06
803.425	0.07
803.73	0.06
804.035	0.06
804.339	0.06
804.644	0.06
804.949	0.06
805.253	0.05
805.558	0.06
805.862	0.05
806.167	0.06
806.471	0.04
806.775	0.05
807.08	0.05
807.384	0.05
807.688	0.06
807.992	0.05
808.296	0.05
808.6	0.05
808.904	0.06
809.207	0.05
809.511	0.06
809.815	0.07
810.119	0.05
810.422	0.05
810.726	0.07
811.029	0.06
811.332	0.06
811.636	0.07
811.939	0.06
812.242	0.06
812.546	0.07
812.849	0.06
813.152	0.07
813.455	0.06
813.758	0.07
814.06	0.06
814.363	0.07
814.666	0.07
814.969	0.06
815.271	0.06
815.574	0.06
815.877	0.06
816.179	0.06
816.481	0.05
816.784	0.06
817.086	0.06
817.388	0.04
817.69	0.05
817.993	0.04
818.295	0.05
818.597	0.05
818.899	0.04
819.2	0.05
819.502	0.04
819.804	0.04
820.106	0.04
820.407	0.04
820.709	0.05
821.01	0.05
821.312	0.05
821.613	0.04
821.915	0.04
822.216	0.04
822.517	0.04
822.818	0.04
823.119	0.04
823.42	0.05
823.721	0.04
824.022	0.04
824.323	0.03
824.624	0.04
824.925	0.04
825.226	0.04
825.526	0.04
825.827	0.04
826.127	0.04
826.428	0.05
826.728	0.04
827.028	0.04
827.329	0.03
827.629	0.03
827.929	0.04
828.229	0.04
828.529	0.05
828.829	0.04
829.129	0.04
829.429	0.03
829.729	0.04
830.029	0.03
830.328	0.03
830.628	0.03
830.927	0.03
831.227	0.03
831.526	0.04
831.826	0.03
832.125	0.03
832.424	0.03
832.724	0.03
833.023	0.03
833.322	0.03
833.621	0.03
833.92	0.02
834.219	0.03
834.518	0.04
834.816	0.02
835.115	0.02
835.414	0.02
835.712	0.02
836.011	0.02
836.309	0.01
836.608	0.01
836.906	0.01
837.205	0
837.503	0.01
837.801	0.01
838.099	-0
838.397	-0
838.695	-0.01
838.993	0
839.291	-0.01
839.589	-0.01
839.887	0
840.184	-0.01
840.482	-0.02
840.78	-0
841.077	-0.01
841.375	-0.02
841.672	-0.01
841.969	-0.01
842.267	-0.01
842.564	-0.01
842.861	-0.01
843.158	-0.01
843.455	-0.03
843.752	-0.02
844.049	-0.02
844.346	-0.01
844.643	-0.03
844.94	-0.02
845.236	-0.01
845.533	-0.02
845.83	-0.02
846.126	-0.02
846.423	-0.02
846.719	-0.03
847.015	-0.03
847.312	-0.03
847.608	-0.03
847.904	-0.04
848.2	-0.04
848.496	-0.03
848.792	-0.03
849.088	-0.02
849.384	-0.04
849.68	-0.04
849.975	-0.03
850.271	-0.04
850.567	-0.05
850.862	-0.05
851.158	-0.04
851.453	-0.04
851.748	-0.05
852.044	-0.05
852.339	-0.04
852.634	-0.06
852.929	-0.04
853.224	-0.05
853.519	-0.06
853.814	-0.06
854.109	-0.07
854.404	-0.06
854.699	-0.06
854.994	-0.05
855.288	-0.04
855.583	-0.05
855.877	-0.06
856.172	-0.06
856.466	-0.06
856.76	-0.07
857.055	-0.06
857.349	-0.08
857.643	-0.07
857.937	-0.08
858.231	-0.08
858.525	-0.09
858.819	-0.09
859.113	-0.1
859.407	-0.1
859.701	-0.11
859.994	-0.1
860.288	-0.09
860.581	-0.1
860.875	-0.1
861.168	-0.11
861.462	-0.11
861.755	-0.1
862.048	-0.12
862.341	-0.09
862.634	-0.1
862.928	-0.1
863.221	-0.1
863.513	-0.11
863.806	-0.11
864.099	-0.11
864.392	-0.11
864.685	-0.11
864.977	-0.11
865.27	-0.11
865.562	-0.11
865.855	-0.11
866.147	-0.12
866.44	-0.11
866.732	-0.12
867.024	-0.13
867.316	-0.12
867.608	-0.12
867.9	-0.12
868.192	-0.13
868.484	-0.12
868.776	-0.13
869.068	-0.12
869.359	-0.13
869.651	-0.13
869.943	-0.15
870.234	-0.14
870.526	-0.15
870.817	-0.14
871.108	-0.14
871.4	-0.14
871.691	-0.15
871.982	-0.14
872.273	-0.16
872.564	-0.15
872.855	-0.15
873.146	-0.15
873.437	-0.15
873.728	-0.16
874.019	-0.15
874.309	-0.16
874.6	-0.15
874.89	-0.16
875.181	-0.16
875.471	-0.15
875.762	-0.15
876.052	-0.15
876.342	-0.14
876.632	-0.16
876.922	-0.17
877.213	-0.16
877.503	-0.18
877.792	-0.16
878.082	-0.17
878.372	-0.16
878.662	-0.19
878.952	-0.18
879.241	-0.18
879.531	-0.16
879.82	-0.17
880.11	-0.16
880.399	-0.16
880.688	-0.15
880.978	-0.15
881.267	-0.15
