Data from 12-12-AQDScycling_Absorbance__970__00970.txt Node

Date: Tue Dec 12 14:59:14 EST 2023
User: kyuminlee
Spectrometer: FLMS00943
Trigger mode: 0
Integration Time (sec): 1.000000E-1
Scans to average: 1
Electric dark correction enabled: true
Nonlinearity correction enabled: false
Boxcar width: 0
XAxis mode: Wavelengths
Number of Pixels in Spectrum: 2048
>>>>>Begin Spectral Data<<<<<
179.651	-0
180.037	-0
180.424	-0
180.81	-0.11
181.197	0.51
181.583	0.4
181.97	-0.01
182.356	-0
182.743	-0
183.129	0
183.515	1.15
183.901	-2.54
184.288	0.28
184.674	0.57
185.06	-0
185.446	-0
185.832	-0.22
186.218	0.07
186.604	-0
186.99	-0
187.376	-0
187.762	-0
188.148	0.31
188.534	-0.29
188.92	-0
189.305	0.04
189.691	0.12
190.077	0.12
190.463	0.06
190.848	0.04
191.234	0.14
191.619	0.23
192.005	0.13
192.391	0.07
192.776	0.12
193.161	0.14
193.547	0.04
193.932	0.2
194.318	0.08
194.703	0.26
195.088	0.15
195.473	0.22
195.859	0.18
196.244	0.25
196.629	0.02
197.014	0.02
197.399	0.11
197.784	0.19
198.169	0.09
198.554	0.14
198.939	0.08
199.324	0.05
199.709	0.1
200.094	0.07
200.478	0.09
200.863	0.18
201.248	0.21
201.633	0.14
202.017	0.07
202.402	0.12
202.787	0.09
203.171	0.13
203.556	0.36
203.94	0.07
204.325	0.25
204.709	0.16
205.093	0.07
205.478	0.14
205.862	0.1
206.246	0.06
206.631	0.13
207.015	0.09
207.399	0.09
207.783	0.09
208.167	0.09
208.551	0.14
208.935	0.19
209.319	0.12
209.703	0.02
210.087	0.4
210.471	0.12
210.855	0.22
211.239	0.26
211.623	0.31
212.007	0.46
212.39	0.19
212.774	0.3
213.158	0.26
213.541	0.19
213.925	0.2
214.309	0.29
214.692	0.27
215.076	0.31
215.459	0.19
215.842	0.11
216.226	0.26
216.609	0.26
216.993	0.09
217.376	0.45
217.759	0.19
218.142	0.32
218.525	0.42
218.909	0.44
219.292	0.27
219.675	0.38
220.058	0.36
220.441	0.42
220.824	0.39
221.207	0.61
221.59	0.5
221.973	0.43
222.355	0.57
222.738	0.54
223.121	0.51
223.504	0.5
223.886	0.79
224.269	0.83
224.652	0.68
225.034	0.72
225.417	0.65
225.799	0.69
226.182	0.95
226.564	0.84
226.947	0.86
227.329	0.77
227.711	0.97
228.094	0.93
228.476	1.06
228.858	0.73
229.24	0.7
229.623	0.83
230.005	0.93
230.387	0.83
230.769	0.78
231.151	0.97
231.533	1
231.915	0.9
232.297	1.05
232.679	0.98
233.061	0.98
233.442	1.05
233.824	1.05
234.206	1.11
234.588	1.04
234.969	1.03
235.351	0.97
235.733	1.02
236.114	1.1
236.496	0.97
236.877	1.17
237.259	1.04
237.64	1.14
238.022	1.06
238.403	1.07
238.784	1.13
239.165	1.01
239.547	1.32
239.928	1.07
240.309	1.17
240.69	1.04
241.071	1.03
241.452	1.04
241.834	0.99
242.215	1.07
242.595	1.06
242.976	0.98
243.357	0.98
243.738	0.96
244.119	1.4
244.5	1.06
244.881	1.26
245.261	1.15
245.642	1.09
246.023	1.11
246.403	1.18
246.784	1.27
247.164	1.25
247.545	1.26
247.925	1.19
248.306	1.22
248.686	1.5
249.067	1.37
249.447	1.33
249.827	1.35
250.207	1.41
250.588	1.22
250.968	1.31
251.348	1.32
251.728	1.47
252.108	1.38
252.488	1.36
252.868	1.27
253.248	1.33
253.628	1.41
254.008	1.48
254.388	1.32
254.768	1.39
255.147	1.34
255.527	1.41
255.907	1.28
256.287	1.27
256.666	1.31
257.046	1.42
257.425	1.57
257.805	1.34
258.184	1.26
258.564	1.36
258.943	1.36
259.323	1.43
259.702	1.39
260.081	1.35
260.461	1.58
260.84	1.45
261.219	1.53
261.598	1.39
261.977	1.44
262.356	1.53
262.736	1.45
263.115	1.47
263.494	1.32
263.873	1.44
264.251	1.51
264.63	1.52
265.009	1.38
265.388	1.32
265.767	1.32
266.145	1.48
266.524	1.52
266.903	1.46
267.281	1.34
267.66	1.39
268.039	1.49
268.417	1.45
268.796	1.46
269.174	1.42
269.552	1.47
269.931	1.41
270.309	1.49
270.687	1.62
271.066	1.69
271.444	1.41
271.822	1.5
272.2	1.36
272.578	1.43
272.956	1.44
273.334	1.45
273.712	1.27
274.09	1.44
274.468	1.29
274.846	1.27
275.224	1.29
275.602	1.43
275.98	1.43
276.357	1.32
276.735	1.48
277.113	1.41
277.49	1.22
277.868	1.37
278.246	1.56
278.623	1.25
279.001	1.32
279.378	1.43
279.756	1.39
280.133	1.82
280.51	1.36
280.888	1.44
281.265	1.38
281.642	1.51
282.019	1.62
282.396	1.62
282.773	1.41
283.151	1.41
283.528	1.36
283.905	1.37
284.282	1.46
284.659	1.49
285.035	1.33
285.412	1.38
285.789	1.58
286.166	1.52
286.543	1.36
286.919	1.4
287.296	1.32
287.673	1.58
288.049	1.49
288.426	1.46
288.802	1.5
289.179	1.42
289.555	1.43
289.932	1.56
290.308	1.36
290.684	1.33
291.061	1.26
291.437	1.45
291.813	1.36
292.189	1.35
292.565	1.29
292.942	1.33
293.318	1.39
293.694	1.53
294.07	1.33
294.446	1.43
294.822	1.53
295.197	1.38
295.573	1.53
295.949	1.52
296.325	1.33
296.701	1.63
297.076	1.65
297.452	1.56
297.828	1.45
298.203	1.55
298.579	1.37
298.954	1.51
299.33	1.39
299.705	1.47
300.081	1.45
300.456	1.45
300.831	1.5
301.206	1.38
301.582	1.58
301.957	1.51
302.332	1.46
302.707	1.42
303.082	1.46
303.457	1.53
303.832	1.57
304.207	1.42
304.582	1.4
304.957	1.46
305.332	1.44
305.707	1.47
306.082	1.51
306.456	1.65
306.831	1.43
307.206	1.55
307.58	1.63
307.955	1.67
308.33	1.49
308.704	1.43
309.079	1.44
309.453	1.76
309.828	1.63
310.202	1.45
310.576	1.5
310.951	1.62
311.325	1.77
311.699	1.48
312.073	1.48
312.447	1.53
312.821	1.43
313.196	1.51
313.57	1.33
313.944	1.47
314.317	1.48
314.691	1.43
315.065	1.53
315.439	1.63
315.813	1.48
316.187	1.54
316.56	1.55
316.934	1.59
317.308	1.41
317.681	1.62
318.055	1.43
318.428	1.48
318.802	1.79
319.175	1.58
319.549	1.55
319.922	1.38
320.295	1.47
320.669	1.57
321.042	1.62
321.415	1.93
321.788	1.63
322.162	1.4
322.535	1.48
322.908	1.65
323.281	1.52
323.654	1.59
324.027	1.5
324.4	1.65
324.773	1.5
325.145	1.61
325.518	1.43
325.891	1.36
326.264	1.55
326.636	1.42
327.009	1.44
327.382	1.47
327.754	1.68
328.127	1.49
328.499	1.42
328.872	1.47
329.244	1.54
329.616	1.52
329.989	1.62
330.361	1.49
330.733	1.54
331.106	1.45
331.478	1.59
331.85	1.49
332.222	1.36
332.594	1.57
332.966	1.54
333.338	1.54
333.71	1.6
334.082	1.57
334.454	1.36
334.826	1.52
335.197	1.5
335.569	1.51
335.941	1.42
336.312	1.46
336.684	1.54
337.056	1.4
337.427	1.57
337.799	1.53
338.17	1.59
338.542	1.51
338.913	1.58
339.284	1.56
339.656	1.48
340.027	1.69
340.398	1.64
340.769	1.53
341.141	1.79
341.512	1.57
341.883	1.64
342.254	1.5
342.625	1.5
342.996	1.54
343.367	1.56
343.738	1.58
344.108	1.43
344.479	1.73
344.85	1.39
345.221	1.59
345.591	1.37
345.962	1.52
346.333	1.47
346.703	1.28
347.074	1.38
347.444	1.3
347.815	1.42
348.185	1.46
348.556	1.36
348.926	1.33
349.296	1.51
349.666	1.35
350.037	1.31
350.407	1.23
350.777	1.41
351.147	1.47
351.517	1.38
351.887	1.39
352.257	1.46
352.627	1.32
352.997	1.26
353.367	1.47
353.737	1.4
354.106	1.37
354.476	1.29
354.846	1.38
355.216	1.4
355.585	1.38
355.955	1.28
356.324	1.46
356.694	1.26
357.063	1.25
357.433	1.26
357.802	1.26
358.171	1.26
358.541	1.23
358.91	1.2
359.279	1.26
359.648	1.19
360.017	1.25
360.387	1.21
360.756	1.11
361.125	1.15
361.494	1.18
361.863	1.12
362.231	1.09
362.6	1.1
362.969	1.07
363.338	1.02
363.707	1.07
364.075	1.04
364.444	0.95
364.813	0.99
365.181	0.92
365.55	1
365.918	0.98
366.287	0.94
366.655	0.94
367.024	0.94
367.392	0.93
367.76	0.89
368.128	0.9
368.497	0.86
368.865	0.86
369.233	0.85
369.601	0.9
369.969	0.83
370.337	0.83
370.705	0.84
371.073	0.83
371.441	0.83
371.809	0.78
372.177	0.81
372.544	0.78
372.912	0.82
373.28	0.76
373.647	0.79
374.015	0.78
374.383	0.79
374.75	0.8
375.118	0.75
375.485	0.76
375.853	0.75
376.22	0.74
376.587	0.72
376.955	0.79
377.322	0.73
377.689	0.75
378.056	0.71
378.423	0.74
378.79	0.75
379.157	0.76
379.524	0.76
379.891	0.78
380.258	0.74
380.625	0.72
380.992	0.73
381.359	0.75
381.726	0.78
382.092	0.75
382.459	0.76
382.826	0.73
383.192	0.74
383.559	0.76
383.925	0.76
384.292	0.72
384.658	0.76
385.025	0.74
385.391	0.78
385.757	0.77
386.123	0.74
386.49	0.79
386.856	0.76
387.222	0.78
387.588	0.76
387.954	0.78
388.32	0.79
388.686	0.75
389.052	0.77
389.418	0.77
389.784	0.78
390.15	0.76
390.515	0.77
390.881	0.78
391.247	0.78
391.613	0.77
391.978	0.76
392.344	0.78
392.709	0.8
393.075	0.77
393.44	0.73
393.806	0.75
394.171	0.76
394.536	0.78
394.902	0.76
395.267	0.75
395.632	0.73
395.997	0.75
396.362	0.73
396.727	0.75
397.092	0.76
397.457	0.74
397.822	0.72
398.187	0.73
398.552	0.73
398.917	0.73
399.282	0.71
399.646	0.69
400.011	0.72
400.376	0.69
400.74	0.71
401.105	0.69
401.47	0.7
401.834	0.67
402.199	0.66
402.563	0.65
402.927	0.67
403.292	0.67
403.656	0.67
404.02	0.65
404.384	0.67
404.749	0.66
405.113	0.64
405.477	0.63
405.841	0.61
406.205	0.65
406.569	0.63
406.933	0.63
407.296	0.59
407.66	0.59
408.024	0.6
408.388	0.62
408.752	0.6
409.115	0.57
409.479	0.58
409.842	0.57
410.206	0.57
410.569	0.58
410.933	0.59
411.296	0.58
411.66	0.59
412.023	0.55
412.386	0.56
412.749	0.57
413.113	0.54
413.476	0.54
413.839	0.53
414.202	0.52
414.565	0.53
414.928	0.53
415.291	0.53
415.654	0.52
416.017	0.52
416.38	0.52
416.742	0.5
417.105	0.5
417.468	0.52
417.83	0.5
418.193	0.53
418.556	0.51
418.918	0.49
419.281	0.51
419.643	0.51
420.005	0.52
420.368	0.51
420.73	0.5
421.092	0.51
421.455	0.5
421.817	0.49
422.179	0.48
422.541	0.49
422.903	0.5
423.265	0.49
423.627	0.46
423.989	0.45
424.351	0.47
424.713	0.47
425.075	0.46
425.436	0.45
425.798	0.44
426.16	0.46
426.521	0.47
426.883	0.47
427.245	0.47
427.606	0.44
427.967	0.44
428.329	0.46
428.69	0.49
429.052	0.46
429.413	0.45
429.774	0.45
430.135	0.45
430.497	0.46
430.858	0.43
431.219	0.44
431.58	0.43
431.941	0.44
432.302	0.44
432.663	0.43
433.024	0.46
433.384	0.43
433.745	0.41
434.106	0.42
434.467	0.43
434.827	0.44
435.188	0.43
435.548	0.45
435.909	0.42
436.269	0.45
436.63	0.41
436.99	0.41
437.351	0.42
437.711	0.42
438.071	0.42
438.431	0.41
438.792	0.41
439.152	0.41
439.512	0.4
439.872	0.4
440.232	0.41
440.592	0.42
440.952	0.42
441.312	0.41
441.671	0.4
442.031	0.4
442.391	0.4
442.751	0.39
443.11	0.39
443.47	0.37
443.83	0.38
444.189	0.36
444.549	0.38
444.908	0.39
445.267	0.37
445.627	0.36
445.986	0.37
446.345	0.36
446.705	0.36
447.064	0.36
447.423	0.36
447.782	0.35
448.141	0.36
448.5	0.35
448.859	0.35
449.218	0.35
449.577	0.35
449.936	0.36
450.295	0.34
450.653	0.34
451.012	0.34
451.371	0.35
451.729	0.34
452.088	0.34
452.447	0.35
452.805	0.35
453.163	0.35
453.522	0.34
453.88	0.32
454.239	0.33
454.597	0.32
454.955	0.32
455.313	0.32
455.671	0.32
456.029	0.32
456.388	0.31
456.746	0.32
457.104	0.3
457.461	0.3
457.819	0.3
458.177	0.29
458.535	0.3
458.893	0.29
459.25	0.28
459.608	0.29
459.966	0.28
460.323	0.28
460.681	0.27
461.038	0.28
461.396	0.27
461.753	0.28
462.111	0.26
462.468	0.26
462.825	0.26
463.182	0.25
463.54	0.25
463.897	0.26
464.254	0.25
464.611	0.25
464.968	0.25
465.325	0.25
465.682	0.23
466.039	0.24
466.395	0.24
466.752	0.24
467.109	0.24
467.466	0.24
467.822	0.24
468.179	0.23
468.535	0.22
468.892	0.24
469.248	0.23
469.605	0.22
469.961	0.21
470.318	0.22
470.674	0.22
471.03	0.21
471.386	0.21
471.743	0.2
472.099	0.21
472.455	0.21
472.811	0.2
473.167	0.2
473.523	0.2
473.879	0.19
474.235	0.19
474.59	0.19
474.946	0.19
475.302	0.19
475.657	0.19
476.013	0.18
476.369	0.18
476.724	0.19
477.08	0.19
477.435	0.18
477.791	0.18
478.146	0.18
478.501	0.18
478.857	0.18
479.212	0.17
479.567	0.17
479.922	0.16
480.277	0.16
480.632	0.16
480.987	0.16
481.342	0.16
481.697	0.16
482.052	0.15
482.407	0.15
482.762	0.15
483.116	0.15
483.471	0.15
483.826	0.14
484.18	0.14
484.535	0.14
484.89	0.13
485.244	0.14
485.598	0.14
485.953	0.14
486.307	0.14
486.661	0.14
487.016	0.13
487.37	0.13
487.724	0.13
488.078	0.13
488.432	0.13
488.786	0.13
489.14	0.12
489.494	0.12
489.848	0.12
490.202	0.12
490.556	0.13
490.91	0.12
491.263	0.12
491.617	0.12
491.971	0.12
492.324	0.12
492.678	0.12
493.031	0.12
493.385	0.12
493.738	0.11
494.091	0.12
494.445	0.11
494.798	0.11
495.151	0.11
495.504	0.11
495.857	0.11
496.21	0.12
496.564	0.11
496.916	0.12
497.269	0.11
497.622	0.11
497.975	0.11
498.328	0.11
498.681	0.11
499.033	0.1
499.386	0.1
499.739	0.1
500.091	0.1
500.444	0.1
500.796	0.1
501.149	0.09
501.501	0.1
501.854	0.1
502.206	0.1
502.558	0.1
502.91	0.1
503.263	0.09
503.615	0.09
503.967	0.1
504.319	0.1
504.671	0.1
505.023	0.1
505.375	0.09
505.726	0.09
506.078	0.1
506.43	0.09
506.782	0.09
507.133	0.1
507.485	0.1
507.837	0.11
508.188	0.1
508.54	0.1
508.891	0.11
509.243	0.09
509.594	0.1
509.945	0.1
510.296	0.09
510.648	0.1
510.999	0.09
511.35	0.09
511.701	0.09
512.052	0.09
512.403	0.09
512.754	0.09
513.105	0.1
513.456	0.09
513.807	0.09
514.157	0.1
514.508	0.09
514.859	0.09
515.209	0.09
515.56	0.09
515.91	0.09
516.261	0.09
516.611	0.09
516.962	0.09
517.312	0.1
517.662	0.09
518.013	0.09
518.363	0.1
518.713	0.1
519.063	0.1
519.413	0.1
519.763	0.09
520.113	0.1
520.463	0.1
520.813	0.11
521.163	0.1
521.512	0.1
521.862	0.1
522.212	0.1
522.562	0.1
522.911	0.1
523.261	0.1
523.61	0.1
523.96	0.1
524.309	0.1
524.658	0.1
525.008	0.1
525.357	0.09
525.706	0.1
526.056	0.09
526.405	0.1
526.754	0.09
527.103	0.09
527.452	0.1
527.801	0.1
528.15	0.1
528.499	0.1
528.847	0.1
529.196	0.11
529.545	0.1
529.893	0.11
530.242	0.1
530.591	0.1
530.939	0.11
531.288	0.11
531.636	0.11
531.985	0.11
532.333	0.1
532.681	0.1
533.029	0.11
533.378	0.1
533.726	0.11
534.074	0.11
534.422	0.1
534.77	0.1
535.118	0.11
535.466	0.1
535.814	0.1
536.162	0.1
536.509	0.11
536.857	0.1
537.205	0.11
537.552	0.1
537.9	0.11
538.248	0.1
538.595	0.11
538.943	0.1
539.29	0.11
539.637	0.1
539.985	0.1
540.332	0.1
540.679	0.1
541.026	0.1
541.373	0.1
541.721	0.1
542.068	0.1
542.415	0.1
542.762	0.1
543.108	0.1
543.455	0.1
543.802	0.1
544.149	0.1
544.496	0.11
544.842	0.1
545.189	0.09
545.535	0.1
545.882	0.1
546.228	0.09
546.575	0.09
546.921	0.09
547.267	0.09
547.614	0.09
547.96	0.1
548.306	0.09
548.652	0.09
548.998	0.1
549.344	0.1
549.69	0.1
550.036	0.1
550.382	0.1
550.728	0.1
551.074	0.1
551.42	0.1
551.765	0.1
552.111	0.1
552.457	0.11
552.802	0.1
553.148	0.1
553.493	0.1
553.839	0.11
554.184	0.11
554.529	0.09
554.875	0.1
555.22	0.11
555.565	0.1
555.91	0.1
556.255	0.12
556.6	0.11
556.945	0.1
557.29	0.1
557.635	0.11
557.98	0.1
558.325	0.1
558.67	0.1
559.014	0.11
559.359	0.1
559.704	0.1
560.048	0.1
560.393	0.1
560.737	0.09
561.082	0.1
561.426	0.1
561.77	0.1
562.115	0.1
562.459	0.1
562.803	0.1
563.147	0.1
563.491	0.11
563.835	0.1
564.179	0.1
564.523	0.09
564.867	0.1
565.211	0.1
565.555	0.1
565.899	0.1
566.242	0.1
566.586	0.09
566.93	0.09
567.273	0.1
567.617	0.1
567.96	0.1
568.304	0.11
568.647	0.1
568.99	0.1
569.334	0.11
569.677	0.1
570.02	0.11
570.363	0.11
570.706	0.11
571.049	0.1
571.392	0.11
571.735	0.11
572.078	0.11
572.421	0.12
572.764	0.1
573.106	0.11
573.449	0.11
573.792	0.1
574.134	0.1
574.477	0.11
574.819	0.1
575.162	0.1
575.504	0.1
575.847	0.1
576.189	0.1
576.531	0.11
576.873	0.09
577.215	0.1
577.558	0.1
577.9	0.09
578.242	0.1
578.584	0.1
578.926	0.1
579.267	0.1
579.609	0.1
579.951	0.1
580.293	0.1
580.634	0.1
580.976	0.11
581.318	0.1
581.659	0.1
582.001	0.11
582.342	0.1
582.683	0.11
583.025	0.1
583.366	0.1
583.707	0.1
584.049	0.1
584.39	0.11
584.731	0.1
585.072	0.1
585.413	0.11
585.754	0.11
586.095	0.1
586.435	0.1
586.776	0.1
587.117	0.1
587.458	0.1
587.798	0.1
588.139	0.1
588.48	0.1
588.82	0.09
589.161	0.1
589.501	0.1
589.841	0.1
590.182	0.09
590.522	0.09
590.862	0.1
591.202	0.09
591.542	0.09
591.882	0.09
592.222	0.1
592.562	0.1
592.902	0.1
593.242	0.09
593.582	0.1
593.922	0.1
594.261	0.09
594.601	0.09
594.941	0.1
595.28	0.1
595.62	0.1
595.959	0.1
596.299	0.1
596.638	0.1
596.977	0.1
597.317	0.1
597.656	0.1
597.995	0.1
598.334	0.11
598.673	0.1
599.012	0.1
599.351	0.1
599.69	0.1
600.029	0.1
600.368	0.11
600.707	0.1
601.046	0.1
601.384	0.11
601.723	0.1
602.061	0.1
602.4	0.11
602.738	0.11
603.077	0.11
603.415	0.1
603.754	0.1
604.092	0.11
604.43	0.1
604.768	0.1
605.107	0.1
605.445	0.1
605.783	0.1
606.121	0.1
606.459	0.1
606.796	0.1
607.134	0.1
607.472	0.09
607.81	0.1
608.148	0.1
608.485	0.1
608.823	0.1
609.16	0.1
609.498	0.1
609.835	0.1
610.173	0.1
610.51	0.11
610.847	0.1
611.185	0.1
611.522	0.1
611.859	0.1
612.196	0.1
612.533	0.1
612.87	0.11
613.207	0.11
613.544	0.11
613.881	0.11
614.217	0.11
614.554	0.1
614.891	0.1
615.228	0.11
615.564	0.1
615.901	0.11
616.237	0.11
616.574	0.11
616.91	0.11
617.246	0.11
617.583	0.11
617.919	0.12
618.255	0.11
618.591	0.1
618.927	0.11
619.263	0.11
619.599	0.12
619.935	0.11
620.271	0.12
620.607	0.11
620.943	0.1
621.279	0.11
621.614	0.11
621.95	0.11
622.286	0.11
622.621	0.1
622.957	0.11
623.292	0.1
623.627	0.1
623.963	0.1
624.298	0.1
624.633	0.1
624.968	0.1
625.304	0.1
625.639	0.1
625.974	0.1
626.309	0.1
626.644	0.1
626.979	0.11
627.313	0.11
627.648	0.11
627.983	0.11
628.318	0.1
628.652	0.1
628.987	0.11
629.321	0.11
629.656	0.09
629.99	0.09
630.325	0.1
630.659	0.1
630.993	0.09
631.327	0.09
631.662	0.08
631.996	0.09
632.33	0.09
632.664	0.09
632.998	0.08
633.332	0.09
633.666	0.09
633.999	0.09
634.333	0.08
634.667	0.09
635.001	0.09
635.334	0.08
635.668	0.08
636.001	0.09
636.335	0.09
636.668	0.09
637.001	0.08
637.335	0.09
637.668	0.08
638.001	0.08
638.334	0.09
638.668	0.08
639.001	0.09
639.334	0.08
639.667	0.09
639.999	0.09
640.332	0.09
640.665	0.08
640.998	0.09
641.331	0.09
641.663	0.09
641.996	0.09
642.328	0.09
642.661	0.09
642.993	0.08
643.326	0.09
643.658	0.09
643.99	0.09
644.323	0.09
644.655	0.09
644.987	0.09
645.319	0.09
645.651	0.1
645.983	0.09
646.315	0.1
646.647	0.1
646.979	0.1
647.31	0.1
647.642	0.1
647.974	0.1
648.305	0.1
648.637	0.1
648.968	0.09
649.3	0.1
649.631	0.1
649.963	0.09
650.294	0.1
650.625	0.09
650.957	0.09
651.288	0.1
651.619	0.1
651.95	0.1
652.281	0.09
652.612	0.09
652.943	0.09
653.274	0.1
653.604	0.1
653.935	0.09
654.266	0.09
654.596	0.09
654.927	0.09
655.258	0.1
655.588	0.1
655.918	0.09
656.249	0.08
656.579	0.09
656.909	0.09
657.24	0.09
657.57	0.1
657.9	0.09
658.23	0.09
658.56	0.09
658.89	0.09
659.22	0.09
659.55	0.09
659.88	0.09
660.209	0.09
660.539	0.1
660.869	0.09
661.198	0.09
661.528	0.09
661.857	0.09
662.187	0.09
662.516	0.09
662.846	0.09
663.175	0.08
663.504	0.09
663.833	0.09
664.163	0.09
664.492	0.09
664.821	0.09
665.15	0.09
665.479	0.09
665.807	0.09
666.136	0.09
666.465	0.08
666.794	0.09
667.122	0.08
667.451	0.08
667.78	0.09
668.108	0.1
668.437	0.09
668.765	0.09
669.093	0.09
669.422	0.1
669.75	0.09
670.078	0.09
670.406	0.1
670.734	0.09
671.062	0.1
671.39	0.09
671.718	0.1
672.046	0.09
672.374	0.09
672.702	0.09
673.029	0.09
673.357	0.09
673.685	0.1
674.012	0.09
674.34	0.09
674.667	0.1
674.995	0.1
675.322	0.09
675.649	0.09
675.977	0.1
676.304	0.09
676.631	0.09
676.958	0.1
677.285	0.08
677.612	0.08
677.939	0.09
678.266	0.09
678.593	0.08
678.92	0.09
679.246	0.09
679.573	0.09
679.9	0.08
680.226	0.09
680.553	0.08
680.879	0.09
681.206	0.09
681.532	0.08
681.858	0.08
682.184	0.09
682.511	0.09
682.837	0.08
683.163	0.09
683.489	0.09
683.815	0.09
684.141	0.09
684.467	0.09
684.793	0.08
685.118	0.09
685.444	0.09
685.77	0.08
686.095	0.08
686.421	0.09
686.746	0.09
687.072	0.09
687.397	0.08
687.723	0.09
688.048	0.09
688.373	0.08
688.698	0.08
689.023	0.08
689.349	0.09
689.674	0.08
689.999	0.07
690.323	0.08
690.648	0.08
690.973	0.07
691.298	0.07
691.623	0.07
691.947	0.08
692.272	0.08
692.596	0.08
692.921	0.08
693.245	0.07
693.57	0.08
693.894	0.08
694.218	0.09
694.543	0.08
694.867	0.08
695.191	0.08
695.515	0.08
695.839	0.08
696.163	0.08
696.487	0.08
696.811	0.08
697.135	0.08
697.458	0.09
697.782	0.08
698.106	0.08
698.429	0.08
698.753	0.08
699.076	0.08
699.4	0.08
699.723	0.08
700.046	0.08
700.37	0.08
700.693	0.08
701.016	0.08
701.339	0.08
701.662	0.09
701.985	0.09
702.308	0.08
702.631	0.08
702.954	0.08
703.277	0.08
703.599	0.07
703.922	0.07
704.245	0.07
704.567	0.07
704.89	0.07
705.212	0.07
705.535	0.06
705.857	0.06
706.179	0.06
706.502	0.06
706.824	0.06
707.146	0.06
707.468	0.07
707.79	0.07
708.112	0.08
708.434	0.07
708.756	0.07
709.078	0.07
709.399	0.07
709.721	0.06
710.043	0.07
710.364	0.07
710.686	0.07
711.007	0.07
711.329	0.07
711.65	0.07
711.972	0.07
712.293	0.08
712.614	0.08
712.935	0.08
713.256	0.08
713.577	0.08
713.898	0.09
714.219	0.08
714.54	0.08
714.861	0.07
715.182	0.08
715.503	0.08
715.823	0.08
716.144	0.07
716.464	0.07
716.785	0.07
717.105	0.07
717.426	0.08
717.746	0.07
718.066	0.07
718.387	0.06
718.707	0.06
719.027	0.08
719.347	0.07
719.667	0.07
719.987	0.06
720.307	0.07
720.627	0.06
720.947	0.06
721.266	0.06
721.586	0.06
721.906	0.05
722.225	0.05
722.545	0.06
722.864	0.06
723.184	0.07
723.503	0.06
723.823	0.07
724.142	0.06
724.461	0.06
724.78	0.06
725.099	0.06
725.418	0.06
725.737	0.05
726.056	0.06
726.375	0.06
726.694	0.07
727.013	0.07
727.331	0.05
727.65	0.06
727.969	0.07
728.287	0.07
728.606	0.06
728.924	0.06
729.242	0.06
729.561	0.07
729.879	0.06
730.197	0.06
730.515	0.06
730.834	0.05
731.152	0.06
731.47	0.06
731.788	0.06
732.105	0.06
732.423	0.07
732.741	0.06
733.059	0.06
733.376	0.07
733.694	0.06
734.012	0.07
734.329	0.07
734.647	0.07
734.964	0.07
735.281	0.07
735.599	0.07
735.916	0.08
736.233	0.07
736.55	0.07
736.867	0.07
737.184	0.07
737.501	0.06
737.818	0.07
738.135	0.08
738.452	0.07
738.768	0.07
739.085	0.07
739.402	0.06
739.718	0.07
740.035	0.07
740.351	0.07
740.668	0.08
740.984	0.06
741.3	0.07
741.617	0.07
741.933	0.06
742.249	0.06
742.565	0.06
742.881	0.06
743.197	0.06
743.513	0.06
743.829	0.06
744.144	0.06
744.46	0.06
744.776	0.07
745.091	0.06
745.407	0.07
745.722	0.06
746.038	0.06
746.353	0.05
746.669	0.06
746.984	0.05
747.299	0.06
747.614	0.06
747.93	0.06
748.245	0.05
748.56	0.06
748.875	0.06
749.189	0.05
749.504	0.05
749.819	0.05
750.134	0.06
750.448	0.06
750.763	0.05
751.078	0.05
751.392	0.05
751.707	0.06
752.021	0.06
752.335	0.06
752.65	0.07
752.964	0.06
753.278	0.06
753.592	0.06
753.906	0.06
754.22	0.06
754.534	0.06
754.848	0.06
755.162	0.05
755.476	0.05
755.789	0.06
756.103	0.05
756.417	0.06
756.73	0.05
757.044	0.06
757.357	0.05
757.671	0.06
757.984	0.06
758.297	0.06
758.61	0.05
758.924	0.05
759.237	0.05
759.55	0.05
759.863	0.05
760.176	0.05
760.488	0.05
760.801	0.05
761.114	0.05
761.427	0.05
761.739	0.05
762.052	0.05
762.365	0.05
762.677	0.05
762.99	0.04
763.302	0.05
763.614	0.06
763.926	0.06
764.239	0.05
764.551	0.05
764.863	0.05
765.175	0.06
765.487	0.06
765.799	0.05
766.111	0.05
766.423	0.06
766.734	0.06
767.046	0.05
767.358	0.06
767.669	0.05
767.981	0.06
768.292	0.04
768.604	0.05
768.915	0.04
769.226	0.05
769.537	0.04
769.849	0.06
770.16	0.04
770.471	0.04
770.782	0.04
771.093	0.05
771.404	0.03
771.715	0.04
772.025	0.04
772.336	0.04
772.647	0.04
772.957	0.04
773.268	0.05
773.578	0.04
773.889	0.05
774.199	0.06
774.51	0.05
774.82	0.04
775.13	0.05
775.44	0.05
775.75	0.06
776.06	0.05
776.37	0.05
776.68	0.06
776.99	0.06
777.3	0.05
777.61	0.06
777.92	0.05
778.229	0.06
778.539	0.06
778.848	0.06
779.158	0.06
779.467	0.07
779.777	0.06
780.086	0.06
780.395	0.06
780.704	0.06
781.013	0.05
781.323	0.05
781.632	0.06
781.941	0.06
782.249	0.05
782.558	0.05
782.867	0.06
783.176	0.04
783.485	0.05
783.793	0.05
784.102	0.05
784.41	0.05
784.719	0.05
785.027	0.05
785.335	0.06
785.644	0.06
785.952	0.05
786.26	0.05
786.568	0.05
786.876	0.05
787.184	0.05
787.492	0.06
787.8	0.05
788.108	0.05
788.416	0.06
788.723	0.05
789.031	0.05
789.338	0.05
789.646	0.05
789.953	0.06
790.261	0.06
790.568	0.05
790.876	0.06
791.183	0.05
791.49	0.06
791.797	0.06
792.104	0.05
792.411	0.05
792.718	0.05
793.025	0.06
793.332	0.06
793.639	0.06
793.945	0.06
794.252	0.06
794.559	0.05
794.865	0.05
795.172	0.05
795.478	0.05
795.784	0.06
796.091	0.06
796.397	0.06
796.703	0.06
797.009	0.06
797.315	0.06
797.622	0.05
797.927	0.05
798.233	0.05
798.539	0.06
798.845	0.06
799.151	0.06
799.456	0.06
799.762	0.05
800.068	0.06
800.373	0.06
800.679	0.06
800.984	0.06
801.289	0.06
801.595	0.06
801.9	0.06
802.205	0.06
802.51	0.05
802.815	0.06
803.12	0.05
803.425	0.06
803.73	0.05
804.035	0.05
804.339	0.05
804.644	0.05
804.949	0.06
805.253	0.05
805.558	0.05
805.862	0.05
806.167	0.05
806.471	0.05
806.775	0.06
807.08	0.05
807.384	0.05
807.688	0.05
807.992	0.06
808.296	0.06
808.6	0.06
808.904	0.06
809.207	0.05
809.511	0.06
809.815	0.07
810.119	0.06
810.422	0.06
810.726	0.07
811.029	0.06
811.332	0.06
811.636	0.07
811.939	0.06
812.242	0.06
812.546	0.06
812.849	0.06
813.152	0.06
813.455	0.06
813.758	0.06
814.06	0.06
814.363	0.06
814.666	0.06
814.969	0.06
815.271	0.06
815.574	0.06
815.877	0.05
816.179	0.06
816.481	0.06
816.784	0.05
817.086	0.05
817.388	0.04
817.69	0.05
817.993	0.05
818.295	0.05
818.597	0.05
818.899	0.04
819.2	0.04
819.502	0.04
819.804	0.05
820.106	0.04
820.407	0.04
820.709	0.04
821.01	0.04
821.312	0.05
821.613	0.04
821.915	0.04
822.216	0.04
822.517	0.03
822.818	0.04
823.119	0.04
823.42	0.04
823.721	0.03
824.022	0.04
824.323	0.04
824.624	0.04
824.925	0.04
825.226	0.04
825.526	0.03
825.827	0.04
826.127	0.04
826.428	0.04
826.728	0.03
827.028	0.04
827.329	0.03
827.629	0.03
827.929	0.03
828.229	0.04
828.529	0.04
828.829	0.04
829.129	0.03
829.429	0.04
829.729	0.03
830.029	0.03
830.328	0.03
830.628	0.02
830.927	0.02
831.227	0.02
831.526	0.03
831.826	0.03
832.125	0.02
832.424	0.03
832.724	0.03
833.023	0.03
833.322	0.04
833.621	0.02
833.92	0.03
834.219	0.02
834.518	0.03
834.816	0.02
835.115	0.02
835.414	0.02
835.712	0.02
836.011	0.01
836.309	0.01
836.608	0.01
836.906	0.01
837.205	0
837.503	0.01
837.801	0.01
838.099	-0
838.397	-0
838.695	-0
838.993	0
839.291	-0.01
839.589	-0.01
839.887	0
840.184	-0.01
840.482	-0.02
840.78	-0.01
841.077	-0.02
841.375	-0.02
841.672	-0.01
841.969	-0.01
842.267	-0.01
842.564	-0.01
842.861	-0.01
843.158	-0.01
843.455	-0.02
843.752	-0.03
844.049	-0.02
844.346	-0.02
844.643	-0.02
844.94	-0.02
845.236	-0.01
845.533	-0.02
845.83	-0.02
846.126	-0.02
846.423	-0.02
846.719	-0.04
847.015	-0.03
847.312	-0.03
847.608	-0.03
847.904	-0.04
848.2	-0.05
848.496	-0.04
848.792	-0.04
849.088	-0.03
849.384	-0.04
849.68	-0.05
849.975	-0.04
850.271	-0.05
850.567	-0.04
850.862	-0.06
851.158	-0.05
851.453	-0.04
851.748	-0.07
852.044	-0.05
852.339	-0.06
852.634	-0.07
852.929	-0.05
853.224	-0.07
853.519	-0.06
853.814	-0.06
854.109	-0.07
854.404	-0.07
854.699	-0.07
854.994	-0.07
855.288	-0.06
855.583	-0.05
855.877	-0.07
856.172	-0.06
856.466	-0.07
856.76	-0.07
857.055	-0.06
857.349	-0.07
857.643	-0.08
857.937	-0.09
858.231	-0.08
858.525	-0.09
858.819	-0.08
859.113	-0.08
859.407	-0.09
859.701	-0.09
859.994	-0.1
860.288	-0.08
860.581	-0.1
860.875	-0.1
861.168	-0.1
861.462	-0.1
861.755	-0.11
862.048	-0.11
862.341	-0.1
862.634	-0.1
862.928	-0.11
863.221	-0.11
863.513	-0.12
863.806	-0.11
864.099	-0.12
864.392	-0.12
864.685	-0.1
864.977	-0.11
865.27	-0.12
865.562	-0.12
865.855	-0.11
866.147	-0.12
866.44	-0.11
866.732	-0.12
867.024	-0.13
867.316	-0.12
867.608	-0.13
867.9	-0.12
868.192	-0.13
868.484	-0.12
868.776	-0.12
869.068	-0.13
869.359	-0.13
869.651	-0.13
869.943	-0.16
870.234	-0.14
870.526	-0.14
870.817	-0.15
871.108	-0.13
871.4	-0.13
871.691	-0.15
871.982	-0.15
872.273	-0.16
872.564	-0.14
872.855	-0.15
873.146	-0.16
873.437	-0.16
873.728	-0.16
874.019	-0.14
874.309	-0.16
874.6	-0.15
874.89	-0.16
875.181	-0.16
875.471	-0.16
875.762	-0.15
876.052	-0.17
876.342	-0.15
876.632	-0.16
876.922	-0.17
877.213	-0.15
877.503	-0.18
877.792	-0.17
878.082	-0.17
878.372	-0.16
878.662	-0.18
878.952	-0.17
879.241	-0.16
879.531	-0.16
879.82	-0.17
880.11	-0.17
880.399	-0.16
880.688	-0.15
880.978	-0.15
881.267	-0.15
