Data from 12-12-AQDScycling_Absorbance__978__00978.txt Node

Date: Tue Dec 12 15:01:14 EST 2023
User: kyuminlee
Spectrometer: FLMS00943
Trigger mode: 0
Integration Time (sec): 1.000000E-1
Scans to average: 1
Electric dark correction enabled: true
Nonlinearity correction enabled: false
Boxcar width: 0
XAxis mode: Wavelengths
Number of Pixels in Spectrum: 2048
>>>>>Begin Spectral Data<<<<<
179.651	-0
180.037	-0
180.424	-0
180.81	-0
181.197	0.25
181.583	-0
181.97	-0.15
182.356	-1.21
182.743	-1.07
183.129	0.24
183.515	0.08
183.901	-0
184.288	0.68
184.674	-0
185.06	-0.53
185.446	-0
185.832	-0.98
186.218	1.11
186.604	0.66
186.99	-0
187.376	0.5
187.762	0.37
188.148	0.47
188.534	-0.24
188.92	0.11
189.305	0.03
189.691	0.18
190.077	0.15
190.463	0.15
190.848	0.19
191.234	0.21
191.619	0.12
192.005	0.12
192.391	0.12
192.776	0.11
193.161	-0.01
193.547	0.24
193.932	0.06
194.318	0.11
194.703	0.18
195.088	0.27
195.473	0.14
195.859	0.13
196.244	0.18
196.629	0.11
197.014	0.15
197.399	0.18
197.784	0.07
198.169	0.2
198.554	0.24
198.939	0.05
199.324	0.07
199.709	0.11
200.094	0.14
200.478	0.12
200.863	0.08
201.248	0.27
201.633	0.14
202.017	0.26
202.402	0.34
202.787	0.17
203.171	0.07
203.556	0.18
203.94	0.09
204.325	0.18
204.709	0.16
205.093	0.03
205.478	0.13
205.862	0.08
206.246	0.1
206.631	0.17
207.015	0.12
207.399	0.2
207.783	0.15
208.167	0.17
208.551	0.19
208.935	0.21
209.319	0.06
209.703	0.05
210.087	0.18
210.471	0.24
210.855	0.19
211.239	0.18
211.623	0.19
212.007	0.21
212.39	0.45
212.774	0.15
213.158	0.14
213.541	0.42
213.925	0.24
214.309	0.36
214.692	0.39
215.076	0.23
215.459	0.22
215.842	0.22
216.226	0.31
216.609	0.39
216.993	0.25
217.376	0.55
217.759	0.24
218.142	0.35
218.525	0.51
218.909	0.3
219.292	0.39
219.675	0.46
220.058	0.54
220.441	0.46
220.824	0.51
221.207	0.53
221.59	0.5
221.973	0.57
222.355	0.65
222.738	0.67
223.121	0.54
223.504	0.52
223.886	0.56
224.269	0.69
224.652	0.69
225.034	0.75
225.417	0.72
225.799	0.74
226.182	0.83
226.564	0.78
226.947	0.92
227.329	0.89
227.711	0.79
228.094	0.92
228.476	0.93
228.858	0.82
229.24	1.04
229.623	1.04
230.005	0.81
230.387	0.91
230.769	0.84
231.151	0.95
231.533	0.88
231.915	0.94
232.297	1.02
232.679	0.9
233.061	1
233.442	0.99
233.824	0.99
234.206	1.18
234.588	1.1
234.969	0.96
235.351	1.06
235.733	1.07
236.114	1.08
236.496	1.09
236.877	1.05
237.259	1.03
237.64	1.2
238.022	0.95
238.403	0.94
238.784	0.97
239.165	0.97
239.547	1.18
239.928	1.13
240.309	1.14
240.69	1.13
241.071	1.03
241.452	1.13
241.834	1.05
242.215	0.97
242.595	1.03
242.976	1.18
243.357	1.2
243.738	1
244.119	1.36
244.5	1.09
244.881	1.27
245.261	1.11
245.642	1.14
246.023	1.13
246.403	1.2
246.784	1.33
247.164	1.22
247.545	1.35
247.925	1.34
248.306	1.25
248.686	1.48
249.067	1.29
249.447	1.3
249.827	1.34
250.207	1.44
250.588	1.26
250.968	1.45
251.348	1.33
251.728	1.34
252.108	1.35
252.488	1.39
252.868	1.26
253.248	1.36
253.628	1.43
254.008	1.56
254.388	1.29
254.768	1.28
255.147	1.49
255.527	1.45
255.907	1.31
256.287	1.37
256.666	1.45
257.046	1.51
257.425	1.51
257.805	1.37
258.184	1.28
258.564	1.35
258.943	1.4
259.323	1.51
259.702	1.59
260.081	1.52
260.461	1.42
260.84	1.41
261.219	1.72
261.598	1.54
261.977	1.48
262.356	1.56
262.736	1.39
263.115	1.73
263.494	1.48
263.873	1.53
264.251	1.45
264.63	1.51
265.009	1.28
265.388	1.42
265.767	1.32
266.145	1.49
266.524	1.53
266.903	1.41
267.281	1.36
267.66	1.55
268.039	1.4
268.417	1.53
268.796	1.52
269.174	1.38
269.552	1.36
269.931	1.54
270.309	1.47
270.687	1.61
271.066	1.54
271.444	1.36
271.822	1.49
272.2	1.4
272.578	1.44
272.956	1.47
273.334	1.34
273.712	1.44
274.09	1.49
274.468	1.32
274.846	1.3
275.224	1.4
275.602	1.56
275.98	1.54
276.357	1.43
276.735	1.47
277.113	1.32
277.49	1.43
277.868	1.24
278.246	1.46
278.623	1.41
279.001	1.38
279.378	1.38
279.756	1.43
280.133	1.58
280.51	1.46
280.888	1.57
281.265	1.33
281.642	1.57
282.019	1.59
282.396	1.6
282.773	1.47
283.151	1.47
283.528	1.63
283.905	1.49
284.282	1.52
284.659	1.48
285.035	1.28
285.412	1.31
285.789	1.46
286.166	1.5
286.543	1.4
286.919	1.57
287.296	1.37
287.673	1.52
288.049	1.57
288.426	1.75
288.802	1.67
289.179	1.4
289.555	1.65
289.932	1.44
290.308	1.29
290.684	1.37
291.061	1.32
291.437	1.64
291.813	1.41
292.189	1.27
292.565	1.27
292.942	1.41
293.318	1.37
293.694	1.45
294.07	1.41
294.446	1.44
294.822	1.6
295.197	1.44
295.573	1.54
295.949	1.46
296.325	1.56
296.701	1.51
297.076	1.59
297.452	1.64
297.828	1.6
298.203	1.75
298.579	1.37
298.954	1.52
299.33	1.4
299.705	1.53
300.081	1.45
300.456	1.51
300.831	1.45
301.206	1.53
301.582	1.6
301.957	1.5
302.332	1.56
302.707	1.46
303.082	1.52
303.457	1.52
303.832	1.5
304.207	1.44
304.582	1.42
304.957	1.55
305.332	1.53
305.707	1.41
306.082	1.45
306.456	1.59
306.831	1.57
307.206	1.56
307.58	1.58
307.955	1.52
308.33	1.52
308.704	1.42
309.079	1.36
309.453	1.79
309.828	1.52
310.202	1.58
310.576	1.5
310.951	1.53
311.325	1.5
311.699	1.5
312.073	1.38
312.447	1.6
312.821	1.44
313.196	1.55
313.57	1.36
313.944	1.45
314.317	1.45
314.691	1.61
315.065	1.43
315.439	1.53
315.813	1.62
316.187	1.53
316.56	1.68
316.934	1.53
317.308	1.48
317.681	1.42
318.055	1.47
318.428	1.57
318.802	1.67
319.175	1.61
319.549	1.42
319.922	1.4
320.295	1.57
320.669	1.61
321.042	1.58
321.415	1.69
321.788	1.6
322.162	1.64
322.535	1.6
322.908	1.65
323.281	1.54
323.654	1.61
324.027	1.65
324.4	1.61
324.773	1.56
325.145	1.55
325.518	1.5
325.891	1.49
326.264	1.6
326.636	1.38
327.009	1.41
327.382	1.48
327.754	1.5
328.127	1.56
328.499	1.47
328.872	1.53
329.244	1.49
329.616	1.42
329.989	1.43
330.361	1.49
330.733	1.4
331.106	1.42
331.478	1.56
331.85	1.53
332.222	1.45
332.594	1.56
332.966	1.62
333.338	1.53
333.71	1.6
334.082	1.68
334.454	1.49
334.826	1.6
335.197	1.61
335.569	1.54
335.941	1.49
336.312	1.61
336.684	1.51
337.056	1.42
337.427	1.57
337.799	1.58
338.17	1.46
338.542	1.5
338.913	1.57
339.284	1.7
339.656	1.52
340.027	1.69
340.398	1.6
340.769	1.56
341.141	1.66
341.512	1.55
341.883	1.68
342.254	1.46
342.625	1.55
342.996	1.44
343.367	1.55
343.738	1.71
344.108	1.53
344.479	1.67
344.85	1.52
345.221	1.66
345.591	1.48
345.962	1.42
346.333	1.51
346.703	1.37
347.074	1.38
347.444	1.25
347.815	1.51
348.185	1.31
348.556	1.36
348.926	1.38
349.296	1.38
349.666	1.44
350.037	1.38
350.407	1.27
350.777	1.38
351.147	1.47
351.517	1.44
351.887	1.29
352.257	1.41
352.627	1.32
352.997	1.34
353.367	1.39
353.737	1.43
354.106	1.37
354.476	1.33
354.846	1.39
355.216	1.39
355.585	1.38
355.955	1.36
356.324	1.33
356.694	1.33
357.063	1.26
357.433	1.22
357.802	1.31
358.171	1.38
358.541	1.28
358.91	1.32
359.279	1.33
359.648	1.24
360.017	1.27
360.387	1.24
360.756	1.22
361.125	1.19
361.494	1.22
361.863	1.21
362.231	1.17
362.6	1.18
362.969	1.13
363.338	1.14
363.707	1.18
364.075	1.12
364.444	1.03
364.813	1.08
365.181	1.1
365.55	1.12
365.918	1.08
366.287	1.07
366.655	1.13
367.024	1.07
367.392	1.03
367.76	1.02
368.128	1.04
368.497	1.02
368.865	1
369.233	0.99
369.601	1.03
369.969	0.96
370.337	1.01
370.705	0.97
371.073	1.01
371.441	0.93
371.809	0.95
372.177	0.91
372.544	0.94
372.912	0.98
373.28	1.01
373.647	0.96
374.015	0.97
374.383	0.96
374.75	0.99
375.118	0.99
375.485	0.95
375.853	0.96
376.22	0.94
376.587	0.91
376.955	0.94
377.322	0.95
377.689	0.95
378.056	0.94
378.423	0.94
378.79	0.95
379.157	0.99
379.524	0.97
379.891	0.93
380.258	0.98
380.625	0.98
380.992	0.93
381.359	0.97
381.726	1.02
382.092	0.96
382.459	1.02
382.826	0.94
383.192	0.98
383.559	0.99
383.925	1.03
384.292	0.96
384.658	1.02
385.025	0.99
385.391	1.07
385.757	1.04
386.123	1.04
386.49	1.01
386.856	1.05
387.222	1.08
387.588	1.04
387.954	1.09
388.32	1.08
388.686	1.06
389.052	1
389.418	1.06
389.784	1.06
390.15	1.06
390.515	0.95
390.881	1.06
391.247	1.08
391.613	1.11
391.978	1.03
392.344	1.05
392.709	1.07
393.075	1.06
393.44	1.05
393.806	1.05
394.171	1.01
394.536	1.05
394.902	1.04
395.267	0.98
395.632	0.99
395.997	1.01
396.362	1.02
396.727	1.03
397.092	1.02
397.457	1.04
397.822	1.01
398.187	1.01
398.552	0.99
398.917	1.01
399.282	0.98
399.646	0.98
400.011	1
400.376	0.94
400.74	0.94
401.105	0.96
401.47	1
401.834	0.94
402.199	0.93
402.563	0.91
402.927	0.89
403.292	0.95
403.656	0.95
404.02	0.91
404.384	0.94
404.749	0.9
405.113	0.89
405.477	0.86
405.841	0.87
406.205	0.88
406.569	0.86
406.933	0.84
407.296	0.85
407.66	0.84
408.024	0.84
408.388	0.87
408.752	0.81
409.115	0.86
409.479	0.82
409.842	0.84
410.206	0.81
410.569	0.79
410.933	0.81
411.296	0.78
411.66	0.79
412.023	0.77
412.386	0.77
412.749	0.74
413.113	0.76
413.476	0.72
413.839	0.73
414.202	0.74
414.565	0.74
414.928	0.73
415.291	0.74
415.654	0.72
416.017	0.76
416.38	0.72
416.742	0.72
417.105	0.7
417.468	0.73
417.83	0.74
418.193	0.72
418.556	0.72
418.918	0.7
419.281	0.7
419.643	0.75
420.005	0.71
420.368	0.69
420.73	0.69
421.092	0.7
421.455	0.72
421.817	0.67
422.179	0.68
422.541	0.69
422.903	0.67
423.265	0.68
423.627	0.69
423.989	0.67
424.351	0.66
424.713	0.67
425.075	0.67
425.436	0.65
425.798	0.65
426.16	0.67
426.521	0.66
426.883	0.66
427.245	0.64
427.606	0.65
427.967	0.64
428.329	0.65
428.69	0.64
429.052	0.64
429.413	0.65
429.774	0.63
430.135	0.62
430.497	0.61
430.858	0.63
431.219	0.62
431.58	0.63
431.941	0.62
432.302	0.64
432.663	0.63
433.024	0.63
433.384	0.63
433.745	0.61
434.106	0.6
434.467	0.61
434.827	0.61
435.188	0.61
435.548	0.61
435.909	0.6
436.269	0.61
436.63	0.59
436.99	0.6
437.351	0.6
437.711	0.6
438.071	0.6
438.431	0.58
438.792	0.57
439.152	0.57
439.512	0.58
439.872	0.56
440.232	0.59
440.592	0.58
440.952	0.55
441.312	0.56
441.671	0.56
442.031	0.54
442.391	0.55
442.751	0.56
443.11	0.54
443.47	0.55
443.83	0.55
444.189	0.54
444.549	0.54
444.908	0.55
445.267	0.54
445.627	0.53
445.986	0.52
446.345	0.51
446.705	0.52
447.064	0.51
447.423	0.5
447.782	0.5
448.141	0.51
448.5	0.49
448.859	0.5
449.218	0.49
449.577	0.5
449.936	0.5
450.295	0.49
450.653	0.48
451.012	0.49
451.371	0.48
451.729	0.48
452.088	0.49
452.447	0.48
452.805	0.48
453.163	0.48
453.522	0.48
453.88	0.47
454.239	0.45
454.597	0.46
454.955	0.45
455.313	0.45
455.671	0.46
456.029	0.45
456.388	0.43
456.746	0.43
457.104	0.43
457.461	0.42
457.819	0.42
458.177	0.4
458.535	0.4
458.893	0.41
459.25	0.4
459.608	0.39
459.966	0.39
460.323	0.39
460.681	0.38
461.038	0.4
461.396	0.38
461.753	0.37
462.111	0.38
462.468	0.36
462.825	0.36
463.182	0.36
463.54	0.35
463.897	0.36
464.254	0.35
464.611	0.35
464.968	0.35
465.325	0.34
465.682	0.34
466.039	0.34
466.395	0.33
466.752	0.33
467.109	0.32
467.466	0.32
467.822	0.32
468.179	0.32
468.535	0.31
468.892	0.31
469.248	0.31
469.605	0.3
469.961	0.3
470.318	0.3
470.674	0.3
471.03	0.29
471.386	0.29
471.743	0.28
472.099	0.28
472.455	0.28
472.811	0.28
473.167	0.29
473.523	0.27
473.879	0.26
474.235	0.26
474.59	0.26
474.946	0.25
475.302	0.26
475.657	0.26
476.013	0.26
476.369	0.24
476.724	0.25
477.08	0.25
477.435	0.24
477.791	0.24
478.146	0.24
478.501	0.24
478.857	0.24
479.212	0.23
479.567	0.22
479.922	0.21
480.277	0.22
480.632	0.21
480.987	0.22
481.342	0.21
481.697	0.2
482.052	0.2
482.407	0.2
482.762	0.2
483.116	0.2
483.471	0.18
483.826	0.19
484.18	0.19
484.535	0.18
484.89	0.18
485.244	0.18
485.598	0.18
485.953	0.18
486.307	0.18
486.661	0.18
487.016	0.17
487.37	0.17
487.724	0.17
488.078	0.17
488.432	0.17
488.786	0.17
489.14	0.17
489.494	0.16
489.848	0.16
490.202	0.16
490.556	0.16
490.91	0.16
491.263	0.15
491.617	0.16
491.971	0.16
492.324	0.15
492.678	0.15
493.031	0.15
493.385	0.15
493.738	0.15
494.091	0.15
494.445	0.15
494.798	0.15
495.151	0.14
495.504	0.15
495.857	0.15
496.21	0.16
496.564	0.14
496.916	0.15
497.269	0.15
497.622	0.15
497.975	0.14
498.328	0.14
498.681	0.14
499.033	0.13
499.386	0.13
499.739	0.13
500.091	0.13
500.444	0.13
500.796	0.13
501.149	0.13
501.501	0.13
501.854	0.13
502.206	0.13
502.558	0.13
502.91	0.14
503.263	0.13
503.615	0.12
503.967	0.12
504.319	0.12
504.671	0.12
505.023	0.12
505.375	0.12
505.726	0.13
506.078	0.12
506.43	0.12
506.782	0.12
507.133	0.13
507.485	0.13
507.837	0.13
508.188	0.13
508.54	0.13
508.891	0.14
509.243	0.12
509.594	0.13
509.945	0.12
510.296	0.12
510.648	0.13
510.999	0.12
511.35	0.12
511.701	0.13
512.052	0.13
512.403	0.13
512.754	0.12
513.105	0.12
513.456	0.12
513.807	0.12
514.157	0.13
514.508	0.12
514.859	0.11
515.209	0.12
515.56	0.12
515.91	0.12
516.261	0.13
516.611	0.12
516.962	0.13
517.312	0.12
517.662	0.12
518.013	0.13
518.363	0.12
518.713	0.13
519.063	0.13
519.413	0.13
519.763	0.12
520.113	0.13
520.463	0.13
520.813	0.13
521.163	0.13
521.512	0.12
521.862	0.12
522.212	0.13
522.562	0.12
522.911	0.13
523.261	0.12
523.61	0.13
523.96	0.12
524.309	0.13
524.658	0.12
525.008	0.12
525.357	0.12
525.706	0.13
526.056	0.13
526.405	0.12
526.754	0.12
527.103	0.12
527.452	0.13
527.801	0.13
528.15	0.12
528.499	0.13
528.847	0.13
529.196	0.14
529.545	0.13
529.893	0.13
530.242	0.13
530.591	0.14
530.939	0.14
531.288	0.14
531.636	0.14
531.985	0.14
532.333	0.13
532.681	0.14
533.029	0.14
533.378	0.14
533.726	0.14
534.074	0.14
534.422	0.13
534.77	0.14
535.118	0.14
535.466	0.13
535.814	0.13
536.162	0.13
536.509	0.14
536.857	0.13
537.205	0.14
537.552	0.14
537.9	0.14
538.248	0.13
538.595	0.14
538.943	0.14
539.29	0.14
539.637	0.13
539.985	0.13
540.332	0.13
540.679	0.13
541.026	0.13
541.373	0.13
541.721	0.13
542.068	0.13
542.415	0.13
542.762	0.14
543.108	0.13
543.455	0.13
543.802	0.13
544.149	0.14
544.496	0.14
544.842	0.13
545.189	0.13
545.535	0.13
545.882	0.13
546.228	0.13
546.575	0.12
546.921	0.12
547.267	0.13
547.614	0.13
547.96	0.13
548.306	0.12
548.652	0.12
548.998	0.14
549.344	0.12
549.69	0.13
550.036	0.13
550.382	0.12
550.728	0.12
551.074	0.14
551.42	0.13
551.765	0.13
552.111	0.14
552.457	0.14
552.802	0.13
553.148	0.13
553.493	0.13
553.839	0.14
554.184	0.14
554.529	0.12
554.875	0.13
555.22	0.14
555.565	0.13
555.91	0.13
556.255	0.15
556.6	0.14
556.945	0.12
557.29	0.12
557.635	0.14
557.98	0.13
558.325	0.13
558.67	0.13
559.014	0.13
559.359	0.14
559.704	0.13
560.048	0.13
560.393	0.13
560.737	0.13
561.082	0.13
561.426	0.12
561.77	0.13
562.115	0.13
562.459	0.13
562.803	0.13
563.147	0.13
563.491	0.13
563.835	0.14
564.179	0.13
564.523	0.13
564.867	0.13
565.211	0.13
565.555	0.14
565.899	0.14
566.242	0.13
566.586	0.12
566.93	0.13
567.273	0.15
567.617	0.14
567.96	0.14
568.304	0.15
568.647	0.14
568.99	0.14
569.334	0.14
569.677	0.13
570.02	0.14
570.363	0.14
570.706	0.14
571.049	0.13
571.392	0.14
571.735	0.14
572.078	0.14
572.421	0.15
572.764	0.14
573.106	0.15
573.449	0.14
573.792	0.14
574.134	0.14
574.477	0.14
574.819	0.14
575.162	0.13
575.504	0.14
575.847	0.14
576.189	0.14
576.531	0.13
576.873	0.13
577.215	0.14
577.558	0.13
577.9	0.13
578.242	0.13
578.584	0.14
578.926	0.13
579.267	0.13
579.609	0.13
579.951	0.13
580.293	0.13
580.634	0.13
580.976	0.14
581.318	0.13
581.659	0.13
582.001	0.14
582.342	0.14
582.683	0.14
583.025	0.13
583.366	0.13
583.707	0.14
584.049	0.13
584.39	0.13
584.731	0.13
585.072	0.13
585.413	0.14
585.754	0.13
586.095	0.14
586.435	0.14
586.776	0.14
587.117	0.13
587.458	0.13
587.798	0.13
588.139	0.13
588.48	0.12
588.82	0.12
589.161	0.13
589.501	0.13
589.841	0.12
590.182	0.13
590.522	0.13
590.862	0.13
591.202	0.13
591.542	0.12
591.882	0.13
592.222	0.12
592.562	0.13
592.902	0.13
593.242	0.13
593.582	0.13
593.922	0.13
594.261	0.13
594.601	0.13
594.941	0.13
595.28	0.13
595.62	0.13
595.959	0.12
596.299	0.12
596.638	0.14
596.977	0.13
597.317	0.14
597.656	0.14
597.995	0.13
598.334	0.14
598.673	0.13
599.012	0.13
599.351	0.14
599.69	0.13
600.029	0.14
600.368	0.14
600.707	0.14
601.046	0.14
601.384	0.14
601.723	0.14
602.061	0.13
602.4	0.14
602.738	0.13
603.077	0.14
603.415	0.13
603.754	0.13
604.092	0.13
604.43	0.13
604.768	0.13
605.107	0.13
605.445	0.13
605.783	0.13
606.121	0.13
606.459	0.13
606.796	0.13
607.134	0.13
607.472	0.13
607.81	0.13
608.148	0.12
608.485	0.13
608.823	0.13
609.16	0.13
609.498	0.14
609.835	0.14
610.173	0.13
610.51	0.14
610.847	0.13
611.185	0.14
611.522	0.14
611.859	0.13
612.196	0.14
612.533	0.14
612.87	0.13
613.207	0.13
613.544	0.14
613.881	0.14
614.217	0.14
614.554	0.13
614.891	0.13
615.228	0.14
615.564	0.14
615.901	0.14
616.237	0.13
616.574	0.14
616.91	0.14
617.246	0.14
617.583	0.14
617.919	0.14
618.255	0.14
618.591	0.14
618.927	0.14
619.263	0.15
619.599	0.14
619.935	0.14
620.271	0.15
620.607	0.15
620.943	0.14
621.279	0.15
621.614	0.14
621.95	0.14
622.286	0.14
622.621	0.14
622.957	0.13
623.292	0.14
623.627	0.13
623.963	0.13
624.298	0.14
624.633	0.13
624.968	0.13
625.304	0.13
625.639	0.13
625.974	0.13
626.309	0.12
626.644	0.13
626.979	0.14
627.313	0.13
627.648	0.14
627.983	0.13
628.318	0.12
628.652	0.13
628.987	0.13
629.321	0.13
629.656	0.12
629.99	0.12
630.325	0.13
630.659	0.13
630.993	0.12
631.327	0.12
631.662	0.11
631.996	0.12
632.33	0.12
632.664	0.12
632.998	0.12
633.332	0.11
633.666	0.12
633.999	0.12
634.333	0.12
634.667	0.12
635.001	0.11
635.334	0.12
635.668	0.11
636.001	0.11
636.335	0.12
636.668	0.11
637.001	0.1
637.335	0.11
637.668	0.11
638.001	0.11
638.334	0.11
638.668	0.11
639.001	0.11
639.334	0.11
639.667	0.11
639.999	0.11
640.332	0.11
640.665	0.11
640.998	0.11
641.331	0.11
641.663	0.11
641.996	0.11
642.328	0.12
642.661	0.11
642.993	0.12
643.326	0.12
643.658	0.11
643.99	0.12
644.323	0.12
644.655	0.12
644.987	0.12
645.319	0.12
645.651	0.13
645.983	0.12
646.315	0.12
646.647	0.12
646.979	0.13
647.31	0.13
647.642	0.13
647.974	0.12
648.305	0.12
648.637	0.12
648.968	0.13
649.3	0.12
649.631	0.13
649.963	0.12
650.294	0.12
650.625	0.12
650.957	0.12
651.288	0.12
651.619	0.12
651.95	0.12
652.281	0.12
652.612	0.12
652.943	0.12
653.274	0.12
653.604	0.11
653.935	0.12
654.266	0.12
654.596	0.11
654.927	0.11
655.258	0.12
655.588	0.13
655.918	0.12
656.249	0.1
656.579	0.11
656.909	0.11
657.24	0.11
657.57	0.12
657.9	0.11
658.23	0.12
658.56	0.12
658.89	0.12
659.22	0.11
659.55	0.11
659.88	0.11
660.209	0.12
660.539	0.12
660.869	0.12
661.198	0.12
661.528	0.11
661.857	0.11
662.187	0.12
662.516	0.12
662.846	0.11
663.175	0.11
663.504	0.11
663.833	0.11
664.163	0.11
664.492	0.11
664.821	0.11
665.15	0.11
665.479	0.11
665.807	0.11
666.136	0.1
666.465	0.11
666.794	0.11
667.122	0.11
667.451	0.11
667.78	0.12
668.108	0.12
668.437	0.11
668.765	0.11
669.093	0.12
669.422	0.11
669.75	0.12
670.078	0.11
670.406	0.12
670.734	0.11
671.062	0.11
671.39	0.11
671.718	0.12
672.046	0.12
672.374	0.11
672.702	0.11
673.029	0.11
673.357	0.12
673.685	0.12
674.012	0.11
674.34	0.11
674.667	0.11
674.995	0.11
675.322	0.12
675.649	0.11
675.977	0.11
676.304	0.11
676.631	0.11
676.958	0.11
677.285	0.09
677.612	0.1
677.939	0.11
678.266	0.11
678.593	0.11
678.92	0.11
679.246	0.1
679.573	0.11
679.9	0.1
680.226	0.11
680.553	0.11
680.879	0.1
681.206	0.11
681.532	0.1
681.858	0.1
682.184	0.11
682.511	0.11
682.837	0.1
683.163	0.11
683.489	0.11
683.815	0.11
684.141	0.11
684.467	0.11
684.793	0.11
685.118	0.11
685.444	0.11
685.77	0.11
686.095	0.1
686.421	0.11
686.746	0.1
687.072	0.11
687.397	0.1
687.723	0.1
688.048	0.11
688.373	0.1
688.698	0.1
689.023	0.1
689.349	0.1
689.674	0.1
689.999	0.1
690.323	0.09
690.648	0.09
690.973	0.09
691.298	0.09
691.623	0.09
691.947	0.1
692.272	0.09
692.596	0.1
692.921	0.09
693.245	0.1
693.57	0.1
693.894	0.1
694.218	0.09
694.543	0.1
694.867	0.1
695.191	0.1
695.515	0.1
695.839	0.09
696.163	0.1
696.487	0.1
696.811	0.1
697.135	0.1
697.458	0.1
697.782	0.1
698.106	0.1
698.429	0.1
698.753	0.1
699.076	0.1
699.4	0.1
699.723	0.09
700.046	0.09
700.37	0.1
700.693	0.1
701.016	0.1
701.339	0.1
701.662	0.1
701.985	0.1
702.308	0.09
702.631	0.09
702.954	0.1
703.277	0.09
703.599	0.1
703.922	0.08
704.245	0.09
704.567	0.08
704.89	0.08
705.212	0.09
705.535	0.08
705.857	0.08
706.179	0.08
706.502	0.08
706.824	0.08
707.146	0.08
707.468	0.09
707.79	0.08
708.112	0.09
708.434	0.09
708.756	0.09
709.078	0.08
709.399	0.08
709.721	0.08
710.043	0.09
710.364	0.09
710.686	0.08
711.007	0.09
711.329	0.09
711.65	0.08
711.972	0.09
712.293	0.09
712.614	0.09
712.935	0.09
713.256	0.09
713.577	0.09
713.898	0.09
714.219	0.09
714.54	0.09
714.861	0.08
715.182	0.09
715.503	0.09
715.823	0.09
716.144	0.09
716.464	0.08
716.785	0.09
717.105	0.08
717.426	0.09
717.746	0.08
718.066	0.08
718.387	0.09
718.707	0.08
719.027	0.09
719.347	0.08
719.667	0.09
719.987	0.08
720.307	0.07
720.627	0.08
720.947	0.08
721.266	0.08
721.586	0.07
721.906	0.08
722.225	0.07
722.545	0.07
722.864	0.07
723.184	0.08
723.503	0.08
723.823	0.08
724.142	0.07
724.461	0.07
724.78	0.07
725.099	0.08
725.418	0.07
725.737	0.07
726.056	0.08
726.375	0.08
726.694	0.07
727.013	0.08
727.331	0.07
727.65	0.07
727.969	0.08
728.287	0.08
728.606	0.07
728.924	0.07
729.242	0.07
729.561	0.07
729.879	0.08
730.197	0.08
730.515	0.07
730.834	0.07
731.152	0.07
731.47	0.08
731.788	0.07
732.105	0.07
732.423	0.07
732.741	0.07
733.059	0.08
733.376	0.08
733.694	0.07
734.012	0.07
734.329	0.08
734.647	0.08
734.964	0.09
735.281	0.08
735.599	0.09
735.916	0.09
736.233	0.08
736.55	0.08
736.867	0.08
737.184	0.09
737.501	0.07
737.818	0.08
738.135	0.08
738.452	0.08
738.768	0.09
739.085	0.07
739.402	0.07
739.718	0.08
740.035	0.08
740.351	0.08
740.668	0.08
740.984	0.07
741.3	0.07
741.617	0.08
741.933	0.07
742.249	0.08
742.565	0.08
742.881	0.08
743.197	0.08
743.513	0.07
743.829	0.07
744.144	0.07
744.46	0.07
744.776	0.08
745.091	0.07
745.407	0.08
745.722	0.07
746.038	0.07
746.353	0.06
746.669	0.07
746.984	0.06
747.299	0.07
747.614	0.08
747.93	0.08
748.245	0.07
748.56	0.06
748.875	0.06
749.189	0.06
749.504	0.06
749.819	0.07
750.134	0.07
750.448	0.07
750.763	0.06
751.078	0.05
751.392	0.06
751.707	0.07
752.021	0.07
752.335	0.07
752.65	0.07
752.964	0.06
753.278	0.07
753.592	0.07
753.906	0.06
754.22	0.07
754.534	0.06
754.848	0.06
755.162	0.06
755.476	0.07
755.789	0.06
756.103	0.06
756.417	0.07
756.73	0.06
757.044	0.07
757.357	0.06
757.671	0.07
757.984	0.06
758.297	0.07
758.61	0.07
758.924	0.07
759.237	0.06
759.55	0.06
759.863	0.06
760.176	0.06
760.488	0.06
760.801	0.06
761.114	0.06
761.427	0.05
761.739	0.06
762.052	0.06
762.365	0.06
762.677	0.06
762.99	0.05
763.302	0.06
763.614	0.05
763.926	0.07
764.239	0.06
764.551	0.06
764.863	0.07
765.175	0.07
765.487	0.06
765.799	0.06
766.111	0.05
766.423	0.06
766.734	0.06
767.046	0.06
767.358	0.06
767.669	0.06
767.981	0.06
768.292	0.06
768.604	0.06
768.915	0.05
769.226	0.05
769.537	0.05
769.849	0.06
770.16	0.05
770.471	0.05
770.782	0.05
771.093	0.05
771.404	0.05
771.715	0.05
772.025	0.05
772.336	0.05
772.647	0.05
772.957	0.05
773.268	0.05
773.578	0.05
773.889	0.06
774.199	0.06
774.51	0.06
774.82	0.06
775.13	0.06
775.44	0.06
775.75	0.05
776.06	0.06
776.37	0.05
776.68	0.07
776.99	0.06
777.3	0.06
777.61	0.07
777.92	0.07
778.229	0.06
778.539	0.07
778.848	0.07
779.158	0.06
779.467	0.07
779.777	0.06
780.086	0.07
780.395	0.06
780.704	0.06
781.013	0.06
781.323	0.06
781.632	0.06
781.941	0.06
782.249	0.06
782.558	0.05
782.867	0.05
783.176	0.05
783.485	0.05
783.793	0.05
784.102	0.06
784.41	0.06
784.719	0.06
785.027	0.06
785.335	0.06
785.644	0.06
785.952	0.06
786.26	0.06
786.568	0.05
786.876	0.06
787.184	0.06
787.492	0.06
787.8	0.06
788.108	0.06
788.416	0.06
788.723	0.05
789.031	0.05
789.338	0.06
789.646	0.06
789.953	0.06
790.261	0.06
790.568	0.06
790.876	0.06
791.183	0.06
791.49	0.05
791.797	0.06
792.104	0.06
792.411	0.06
792.718	0.05
793.025	0.06
793.332	0.06
793.639	0.07
793.945	0.07
794.252	0.06
794.559	0.06
794.865	0.06
795.172	0.06
795.478	0.06
795.784	0.06
796.091	0.06
796.397	0.06
796.703	0.06
797.009	0.07
797.315	0.06
797.622	0.07
797.927	0.06
798.233	0.06
798.539	0.06
798.845	0.06
799.151	0.07
799.456	0.07
799.762	0.06
800.068	0.07
800.373	0.07
800.679	0.06
800.984	0.06
801.289	0.06
801.595	0.06
801.9	0.06
802.205	0.06
802.51	0.06
802.815	0.06
803.12	0.06
803.425	0.06
803.73	0.06
804.035	0.06
804.339	0.06
804.644	0.06
804.949	0.06
805.253	0.05
805.558	0.06
805.862	0.05
806.167	0.05
806.471	0.05
806.775	0.06
807.08	0.06
807.384	0.05
807.688	0.06
807.992	0.05
808.296	0.06
808.6	0.06
808.904	0.07
809.207	0.07
809.511	0.07
809.815	0.07
810.119	0.06
810.422	0.07
810.726	0.07
811.029	0.07
811.332	0.07
811.636	0.07
811.939	0.07
812.242	0.06
812.546	0.06
812.849	0.06
813.152	0.07
813.455	0.07
813.758	0.07
814.06	0.06
814.363	0.06
814.666	0.06
814.969	0.06
815.271	0.06
815.574	0.06
815.877	0.06
816.179	0.06
816.481	0.06
816.784	0.06
817.086	0.05
817.388	0.05
817.69	0.05
817.993	0.04
818.295	0.05
818.597	0.05
818.899	0.05
819.2	0.05
819.502	0.04
819.804	0.04
820.106	0.04
820.407	0.04
820.709	0.05
821.01	0.05
821.312	0.06
821.613	0.04
821.915	0.04
822.216	0.05
822.517	0.04
822.818	0.04
823.119	0.04
823.42	0.04
823.721	0.03
824.022	0.04
824.323	0.04
824.624	0.05
824.925	0.04
825.226	0.05
825.526	0.04
825.827	0.04
826.127	0.04
826.428	0.04
826.728	0.04
827.028	0.04
827.329	0.03
827.629	0.03
827.929	0.04
828.229	0.04
828.529	0.05
828.829	0.03
829.129	0.04
829.429	0.04
829.729	0.03
830.029	0.03
830.328	0.04
830.628	0.02
830.927	0.02
831.227	0.03
831.526	0.03
831.826	0.04
832.125	0.04
832.424	0.03
832.724	0.03
833.023	0.03
833.322	0.03
833.621	0.03
833.92	0.02
834.219	0.03
834.518	0.02
834.816	0.01
835.115	0.02
835.414	0.02
835.712	0.02
836.011	0.02
836.309	0.02
836.608	0.01
836.906	0.02
837.205	0.01
837.503	0.02
837.801	0
838.099	-0
838.397	-0.01
838.695	-0.01
838.993	0.01
839.291	-0.01
839.589	-0
839.887	-0
840.184	-0.01
840.482	-0.01
840.78	-0
841.077	-0.01
841.375	-0.02
841.672	-0.01
841.969	-0.01
842.267	-0.01
842.564	-0.01
842.861	-0.01
843.158	-0.01
843.455	-0.02
843.752	-0.02
844.049	-0.01
844.346	-0.02
844.643	-0.02
844.94	-0.03
845.236	-0.01
845.533	-0.01
845.83	-0.03
846.126	-0.03
846.423	-0.02
846.719	-0.03
847.015	-0.03
847.312	-0.03
847.608	-0.03
847.904	-0.04
848.2	-0.04
848.496	-0.03
848.792	-0.03
849.088	-0.02
849.384	-0.04
849.68	-0.05
849.975	-0.04
850.271	-0.06
850.567	-0.05
850.862	-0.06
851.158	-0.05
851.453	-0.05
851.748	-0.06
852.044	-0.05
852.339	-0.06
852.634	-0.07
852.929	-0.05
853.224	-0.06
853.519	-0.07
853.814	-0.05
854.109	-0.07
854.404	-0.07
854.699	-0.07
854.994	-0.07
855.288	-0.06
855.583	-0.06
855.877	-0.06
856.172	-0.06
856.466	-0.06
856.76	-0.06
857.055	-0.06
857.349	-0.08
857.643	-0.08
857.937	-0.08
858.231	-0.08
858.525	-0.08
858.819	-0.07
859.113	-0.09
859.407	-0.09
859.701	-0.09
859.994	-0.1
860.288	-0.08
860.581	-0.1
860.875	-0.1
861.168	-0.1
861.462	-0.1
861.755	-0.1
862.048	-0.11
862.341	-0.11
862.634	-0.11
862.928	-0.1
863.221	-0.11
863.513	-0.12
863.806	-0.12
864.099	-0.11
864.392	-0.11
864.685	-0.1
864.977	-0.11
865.27	-0.12
865.562	-0.11
865.855	-0.11
866.147	-0.11
866.44	-0.11
866.732	-0.12
867.024	-0.12
867.316	-0.11
867.608	-0.13
867.9	-0.12
868.192	-0.13
868.484	-0.13
868.776	-0.14
869.068	-0.13
869.359	-0.13
869.651	-0.13
869.943	-0.15
870.234	-0.14
870.526	-0.14
870.817	-0.15
871.108	-0.13
871.4	-0.13
871.691	-0.15
871.982	-0.15
872.273	-0.16
872.564	-0.15
872.855	-0.14
873.146	-0.15
873.437	-0.15
873.728	-0.16
874.019	-0.15
874.309	-0.15
874.6	-0.15
874.89	-0.16
875.181	-0.16
875.471	-0.15
875.762	-0.16
876.052	-0.15
876.342	-0.14
876.632	-0.15
876.922	-0.16
877.213	-0.16
877.503	-0.18
877.792	-0.16
878.082	-0.17
878.372	-0.16
878.662	-0.18
878.952	-0.17
879.241	-0.17
879.531	-0.17
879.82	-0.17
880.11	-0.16
880.399	-0.16
880.688	-0.16
880.978	-0.16
881.267	-0.16
