Data from 12-12-AQDScycling_Absorbance__111__00111.txt Node

Date: Tue Dec 12 11:24:29 EST 2023
User: kyuminlee
Spectrometer: FLMS00943
Trigger mode: 0
Integration Time (sec): 1.000000E-1
Scans to average: 1
Electric dark correction enabled: true
Nonlinearity correction enabled: false
Boxcar width: 0
XAxis mode: Wavelengths
Number of Pixels in Spectrum: 2048
>>>>>Begin Spectral Data<<<<<
179.651	-0.25
180.037	-0.25
180.424	-0.25
180.81	0.1
181.197	0.29
181.583	-0
181.97	-0.56
182.356	-0
182.743	-0.56
183.129	-0.16
183.515	0.2
183.901	-1.76
184.288	-0.06
184.674	-0
185.06	-0.9
185.446	-0
185.832	-0.41
186.218	0.34
186.604	-0
186.99	-0
187.376	-0
187.762	0.17
188.148	-0
188.534	-0.31
188.92	0.14
189.305	0.13
189.691	0.21
190.077	0.21
190.463	0.23
190.848	0.05
191.234	0.16
191.619	0.05
192.005	0.07
192.391	0.11
192.776	0.2
193.161	0.26
193.547	0.09
193.932	0.04
194.318	0
194.703	0.26
195.088	0.19
195.473	0.12
195.859	0.12
196.244	0.09
196.629	0.04
197.014	-0
197.399	0.2
197.784	0.2
198.169	0.22
198.554	0.19
198.939	0.12
199.324	0.11
199.709	0.16
200.094	0.17
200.478	0.14
200.863	0.21
201.248	0.2
201.633	0.12
202.017	0.15
202.402	0.23
202.787	0.13
203.171	0.22
203.556	0.23
203.94	0.12
204.325	0.26
204.709	0.26
205.093	0.29
205.478	0.08
205.862	0.03
206.246	0.31
206.631	0.16
207.015	0.24
207.399	0.25
207.783	0.17
208.167	0.12
208.551	0.17
208.935	0.2
209.319	0.05
209.703	0.12
210.087	0.29
210.471	0.05
210.855	0.46
211.239	0.23
211.623	0.32
212.007	0.53
212.39	0.42
212.774	0.22
213.158	0.16
213.541	0.31
213.925	0.2
214.309	0.52
214.692	0.49
215.076	0.2
215.459	0.25
215.842	0.14
216.226	0.4
216.609	0.34
216.993	0.24
217.376	0.39
217.759	0.26
218.142	0.22
218.525	0.4
218.909	0.33
219.292	0.37
219.675	0.38
220.058	0.49
220.441	0.52
220.824	0.39
221.207	0.52
221.59	0.49
221.973	0.63
222.355	0.65
222.738	0.76
223.121	0.53
223.504	0.64
223.886	0.68
224.269	0.65
224.652	0.72
225.034	0.89
225.417	0.81
225.799	0.64
226.182	0.89
226.564	0.8
226.947	0.67
227.329	0.82
227.711	0.87
228.094	0.92
228.476	0.89
228.858	0.83
229.24	0.86
229.623	0.94
230.005	0.91
230.387	1.01
230.769	0.81
231.151	0.99
231.533	0.83
231.915	0.95
232.297	1.01
232.679	0.98
233.061	0.98
233.442	0.91
233.824	1.13
234.206	1.26
234.588	1.11
234.969	1.02
235.351	1.1
235.733	1.06
236.114	1.37
236.496	1.08
236.877	1.2
237.259	1.13
237.64	1.26
238.022	1.09
238.403	1.02
238.784	1.06
239.165	0.98
239.547	1.19
239.928	1.2
240.309	1.05
240.69	1.05
241.071	1.11
241.452	1.14
241.834	1.02
242.215	1.07
242.595	1.12
242.976	1.2
243.357	1.17
243.738	1.11
244.119	1.3
244.5	1.12
244.881	1.4
245.261	1.14
245.642	1.21
246.023	1.33
246.403	1.13
246.784	1.19
247.164	1.41
247.545	1.46
247.925	1.46
248.306	1.14
248.686	1.46
249.067	1.27
249.447	1.28
249.827	1.42
250.207	1.54
250.588	1.36
250.968	1.55
251.348	1.41
251.728	1.32
252.108	1.38
252.488	1.4
252.868	1.4
253.248	1.32
253.628	1.46
254.008	1.51
254.388	1.28
254.768	1.33
255.147	1.38
255.527	1.49
255.907	1.39
256.287	1.47
256.666	1.39
257.046	1.43
257.425	1.56
257.805	1.37
258.184	1.4
258.564	1.32
258.943	1.33
259.323	1.46
259.702	1.52
260.081	1.52
260.461	1.53
260.84	1.45
261.219	1.64
261.598	1.57
261.977	1.52
262.356	1.47
262.736	1.52
263.115	1.66
263.494	1.44
263.873	1.41
264.251	1.58
264.63	1.45
265.009	1.42
265.388	1.62
265.767	1.32
266.145	1.42
266.524	1.55
266.903	1.5
267.281	1.35
267.66	1.83
268.039	1.69
268.417	1.42
268.796	1.44
269.174	1.4
269.552	1.42
269.931	1.53
270.309	1.39
270.687	1.69
271.066	1.59
271.444	1.4
271.822	1.5
272.2	1.57
272.578	1.42
272.956	1.49
273.334	1.45
273.712	1.36
274.09	1.31
274.468	1.33
274.846	1.34
275.224	1.44
275.602	1.37
275.98	1.46
276.357	1.51
276.735	1.57
277.113	1.48
277.49	1.46
277.868	1.39
278.246	1.45
278.623	1.24
279.001	1.63
279.378	1.38
279.756	1.47
280.133	1.76
280.51	1.3
280.888	1.31
281.265	1.35
281.642	1.57
282.019	1.47
282.396	1.69
282.773	1.43
283.151	1.36
283.528	1.36
283.905	1.37
284.282	1.48
284.659	1.65
285.035	1.42
285.412	1.29
285.789	1.48
286.166	1.54
286.543	1.35
286.919	1.66
287.296	1.37
287.673	1.88
288.049	1.43
288.426	1.46
288.802	1.45
289.179	1.55
289.555	1.83
289.932	1.41
290.308	1.37
290.684	1.39
291.061	1.32
291.437	1.43
291.813	1.42
292.189	1.27
292.565	1.37
292.942	1.32
293.318	1.31
293.694	1.44
294.07	1.39
294.446	1.45
294.822	1.7
295.197	1.46
295.573	1.46
295.949	1.45
296.325	1.43
296.701	1.59
297.076	1.43
297.452	1.39
297.828	1.43
298.203	1.37
298.579	1.35
298.954	1.31
299.33	1.38
299.705	1.38
300.081	1.39
300.456	1.32
300.831	1.31
301.206	1.23
301.582	1.27
301.957	1.23
302.332	1.26
302.707	1.15
303.082	1.14
303.457	1.11
303.832	1.1
304.207	1.07
304.582	1.07
304.957	1.08
305.332	1.04
305.707	1.01
306.082	1.01
306.456	1.03
306.831	0.97
307.206	0.96
307.58	0.95
307.955	0.95
308.33	0.92
308.704	0.87
309.079	0.86
309.453	0.9
309.828	0.86
310.202	0.83
310.576	0.82
310.951	0.81
311.325	0.77
311.699	0.74
312.073	0.74
312.447	0.75
312.821	0.73
313.196	0.7
313.57	0.69
313.944	0.72
314.317	0.7
314.691	0.68
315.065	0.68
315.439	0.69
315.813	0.66
316.187	0.66
316.56	0.65
316.934	0.63
317.308	0.62
317.681	0.65
318.055	0.62
318.428	0.61
318.802	0.64
319.175	0.58
319.549	0.6
319.922	0.59
320.295	0.59
320.669	0.6
321.042	0.6
321.415	0.6
321.788	0.58
322.162	0.56
322.535	0.56
322.908	0.57
323.281	0.55
323.654	0.56
324.027	0.55
324.4	0.56
324.773	0.59
325.145	0.58
325.518	0.55
325.891	0.58
326.264	0.57
326.636	0.55
327.009	0.55
327.382	0.55
327.754	0.57
328.127	0.58
328.499	0.57
328.872	0.56
329.244	0.57
329.616	0.57
329.989	0.57
330.361	0.6
330.733	0.6
331.106	0.59
331.478	0.59
331.85	0.61
332.222	0.62
332.594	0.63
332.966	0.63
333.338	0.68
333.71	0.66
334.082	0.69
334.454	0.66
334.826	0.72
335.197	0.67
335.569	0.7
335.941	0.68
336.312	0.71
336.684	0.71
337.056	0.73
337.427	0.76
337.799	0.73
338.17	0.78
338.542	0.78
338.913	0.8
339.284	0.78
339.656	0.75
340.027	0.8
340.398	0.82
340.769	0.84
341.141	0.82
341.512	0.85
341.883	0.85
342.254	0.87
342.625	0.9
342.996	0.87
343.367	0.88
343.738	0.93
344.108	0.9
344.479	0.96
344.85	0.91
345.221	0.95
345.591	0.93
345.962	1.04
346.333	1.04
346.703	1.02
347.074	1.05
347.444	1.02
347.815	1.03
348.185	1.13
348.556	1.08
348.926	1.09
349.296	1.12
349.666	1.16
350.037	1.11
350.407	1.07
350.777	1.17
351.147	1.13
351.517	1.29
351.887	1.2
352.257	1.36
352.627	1.2
352.997	1.19
353.367	1.29
353.737	1.3
354.106	1.36
354.476	1.32
354.846	1.33
355.216	1.34
355.585	1.38
355.955	1.44
356.324	1.44
356.694	1.35
357.063	1.45
357.433	1.42
357.802	1.46
358.171	1.44
358.541	1.4
358.91	1.57
359.279	1.62
359.648	1.39
360.017	1.53
360.387	1.59
360.756	1.57
361.125	1.57
361.494	1.66
361.863	1.48
362.231	1.57
362.6	1.62
362.969	1.52
363.338	1.46
363.707	1.72
364.075	1.77
364.444	1.42
364.813	1.59
365.181	1.45
365.55	1.64
365.918	1.77
366.287	1.56
366.655	1.54
367.024	1.69
367.392	1.55
367.76	1.58
368.128	1.57
368.497	1.53
368.865	1.51
369.233	1.62
369.601	1.53
369.969	1.57
370.337	1.56
370.705	1.58
371.073	1.55
371.441	1.53
371.809	1.57
372.177	1.48
372.544	1.72
372.912	1.49
373.28	1.61
373.647	1.61
374.015	1.69
374.383	2.16
374.75	1.74
375.118	1.54
375.485	1.57
375.853	1.73
376.22	1.56
376.587	1.54
376.955	1.53
377.322	1.75
377.689	1.49
378.056	1.45
378.423	1.51
378.79	1.64
379.157	1.5
379.524	1.61
379.891	1.48
380.258	1.58
380.625	1.53
380.992	1.65
381.359	1.7
381.726	1.87
382.092	1.67
382.459	1.52
382.826	1.46
383.192	1.5
383.559	1.58
383.925	1.64
384.292	1.5
384.658	1.58
385.025	1.65
385.391	1.7
385.757	1.7
386.123	1.51
386.49	1.51
386.856	1.58
387.222	1.63
387.588	1.5
387.954	2.06
388.32	1.67
388.686	1.6
389.052	1.64
389.418	1.74
389.784	1.56
390.15	1.69
390.515	1.51
390.881	1.72
391.247	1.52
391.613	1.73
391.978	1.59
392.344	1.57
392.709	1.62
393.075	1.59
393.44	1.61
393.806	1.51
394.171	1.56
394.536	1.54
394.902	1.6
395.267	1.55
395.632	1.61
395.997	1.47
396.362	1.51
396.727	1.6
397.092	1.51
397.457	1.63
397.822	1.57
398.187	1.57
398.552	1.49
398.917	1.71
399.282	1.43
399.646	1.4
400.011	1.68
400.376	1.4
400.74	1.59
401.105	1.57
401.47	1.49
401.834	1.49
402.199	1.62
402.563	1.61
402.927	1.49
403.292	1.75
403.656	1.66
404.02	1.65
404.384	1.87
404.749	1.57
405.113	1.78
405.477	1.75
405.841	1.61
406.205	1.55
406.569	1.49
406.933	1.55
407.296	1.65
407.66	1.54
408.024	1.53
408.388	1.62
408.752	1.59
409.115	1.76
409.479	1.62
409.842	1.6
410.206	1.53
410.569	1.51
410.933	1.69
411.296	1.45
411.66	1.55
412.023	1.51
412.386	1.66
412.749	1.43
413.113	1.54
413.476	1.65
413.839	1.53
414.202	1.54
414.565	1.51
414.928	1.53
415.291	1.47
415.654	1.52
416.017	1.49
416.38	1.48
416.742	1.6
417.105	1.49
417.468	1.5
417.83	1.5
418.193	1.76
418.556	1.54
418.918	1.43
419.281	1.47
419.643	1.7
420.005	1.59
420.368	1.52
420.73	1.5
421.092	1.73
421.455	1.65
421.817	1.46
422.179	1.67
422.541	1.65
422.903	1.71
423.265	1.69
423.627	1.54
423.989	1.61
424.351	1.5
424.713	1.66
425.075	1.6
425.436	1.47
425.798	1.62
426.16	1.51
426.521	1.65
426.883	1.68
427.245	1.6
427.606	1.43
427.967	1.45
428.329	1.45
428.69	1.71
429.052	1.48
429.413	1.71
429.774	1.65
430.135	1.53
430.497	1.66
430.858	1.61
431.219	1.63
431.58	1.55
431.941	1.54
432.302	1.55
432.663	1.55
433.024	1.65
433.384	1.53
433.745	1.46
434.106	1.69
434.467	1.59
434.827	1.63
435.188	1.6
435.548	1.71
435.909	1.49
436.269	1.74
436.63	1.56
436.99	1.48
437.351	1.46
437.711	1.54
438.071	1.49
438.431	1.42
438.792	1.51
439.152	1.54
439.512	1.46
439.872	1.48
440.232	1.53
440.592	1.53
440.952	1.5
441.312	1.42
441.671	1.53
442.031	1.45
442.391	1.53
442.751	1.48
443.11	1.6
443.47	1.48
443.83	1.43
444.189	1.45
444.549	1.44
444.908	1.41
445.267	1.46
445.627	1.46
445.986	1.38
446.345	1.41
446.705	1.42
447.064	1.46
447.423	1.39
447.782	1.46
448.141	1.44
448.5	1.35
448.859	1.33
449.218	1.36
449.577	1.43
449.936	1.4
450.295	1.39
450.653	1.42
451.012	1.39
451.371	1.33
451.729	1.32
452.088	1.35
452.447	1.35
452.805	1.32
453.163	1.32
453.522	1.3
453.88	1.28
454.239	1.3
454.597	1.26
454.955	1.23
455.313	1.21
455.671	1.28
456.029	1.24
456.388	1.17
456.746	1.2
457.104	1.18
457.461	1.18
457.819	1.16
458.177	1.12
458.535	1.13
458.893	1.11
459.25	1.09
459.608	1.09
459.966	1.05
460.323	1.05
460.681	1.03
461.038	1.02
461.396	1.01
461.753	0.99
462.111	1.01
462.468	0.99
462.825	0.94
463.182	0.94
463.54	0.91
463.897	0.93
464.254	0.9
464.611	0.9
464.968	0.89
465.325	0.89
465.682	0.86
466.039	0.86
466.395	0.83
466.752	0.82
467.109	0.79
467.466	0.79
467.822	0.8
468.179	0.76
468.535	0.77
468.892	0.74
469.248	0.72
469.605	0.73
469.961	0.72
470.318	0.71
470.674	0.69
471.03	0.69
471.386	0.67
471.743	0.65
472.099	0.63
472.455	0.64
472.811	0.62
473.167	0.6
473.523	0.59
473.879	0.58
474.235	0.58
474.59	0.55
474.946	0.55
475.302	0.55
475.657	0.52
476.013	0.52
476.369	0.5
476.724	0.5
477.08	0.5
477.435	0.49
477.791	0.48
478.146	0.47
478.501	0.47
478.857	0.45
479.212	0.45
479.567	0.43
479.922	0.42
480.277	0.42
480.632	0.41
480.987	0.4
481.342	0.38
481.697	0.38
482.052	0.37
482.407	0.36
482.762	0.36
483.116	0.35
483.471	0.33
483.826	0.32
484.18	0.33
484.535	0.31
484.89	0.3
485.244	0.31
485.598	0.3
485.953	0.3
486.307	0.28
486.661	0.29
487.016	0.27
487.37	0.27
487.724	0.26
488.078	0.25
488.432	0.25
488.786	0.25
489.14	0.24
489.494	0.23
489.848	0.23
490.202	0.22
490.556	0.22
490.91	0.22
491.263	0.2
491.617	0.21
491.971	0.2
492.324	0.2
492.678	0.19
493.031	0.19
493.385	0.18
493.738	0.17
494.091	0.17
494.445	0.17
494.798	0.17
495.151	0.16
495.504	0.16
495.857	0.16
496.21	0.17
496.564	0.16
496.916	0.16
497.269	0.14
497.622	0.15
497.975	0.15
498.328	0.14
498.681	0.13
499.033	0.13
499.386	0.13
499.739	0.13
500.091	0.13
500.444	0.12
500.796	0.12
501.149	0.12
501.501	0.12
501.854	0.11
502.206	0.11
502.558	0.11
502.91	0.11
503.263	0.11
503.615	0.1
503.967	0.1
504.319	0.1
504.671	0.1
505.023	0.09
505.375	0.09
505.726	0.09
506.078	0.08
506.43	0.08
506.782	0.08
507.133	0.08
507.485	0.08
507.837	0.08
508.188	0.08
508.54	0.08
508.891	0.09
509.243	0.08
509.594	0.07
509.945	0.07
510.296	0.07
510.648	0.08
510.999	0.06
511.35	0.07
511.701	0.06
512.052	0.07
512.403	0.07
512.754	0.06
513.105	0.06
513.456	0.06
513.807	0.05
514.157	0.06
514.508	0.06
514.859	0.04
515.209	0.04
515.56	0.05
515.91	0.05
516.261	0.05
516.611	0.04
516.962	0.05
517.312	0.04
517.662	0.05
518.013	0.04
518.363	0.05
518.713	0.04
519.063	0.05
519.413	0.04
519.763	0.04
520.113	0.04
520.463	0.04
520.813	0.05
521.163	0.04
521.512	0.04
521.862	0.04
522.212	0.05
522.562	0.04
522.911	0.04
523.261	0.04
523.61	0.04
523.96	0.04
524.309	0.04
524.658	0.04
525.008	0.04
525.357	0.03
525.706	0.04
526.056	0.04
526.405	0.04
526.754	0.04
527.103	0.03
527.452	0.03
527.801	0.04
528.15	0.04
528.499	0.04
528.847	0.03
529.196	0.05
529.545	0.04
529.893	0.04
530.242	0.04
530.591	0.04
530.939	0.05
531.288	0.04
531.636	0.04
531.985	0.04
532.333	0.04
532.681	0.04
533.029	0.03
533.378	0.03
533.726	0.03
534.074	0.04
534.422	0.03
534.77	0.03
535.118	0.03
535.466	0.03
535.814	0.03
536.162	0.04
536.509	0.03
536.857	0.03
537.205	0.03
537.552	0.03
537.9	0.03
538.248	0.03
538.595	0.03
538.943	0.03
539.29	0.02
539.637	0.02
539.985	0.02
540.332	0.02
540.679	0.02
541.026	0.02
541.373	0.03
541.721	0.02
542.068	0.02
542.415	0.02
542.762	0.02
543.108	0.01
543.455	0.01
543.802	0.02
544.149	0.02
544.496	0.02
544.842	0.02
545.189	0.01
545.535	0.02
545.882	0.02
546.228	0.01
546.575	0.01
546.921	0.01
547.267	0.01
547.614	0.01
547.96	0.02
548.306	0.02
548.652	0.02
548.998	0.02
549.344	0.02
549.69	0.02
550.036	0.02
550.382	0.02
550.728	0.02
551.074	0.02
551.42	0.02
551.765	0.02
552.111	0.03
552.457	0.03
552.802	0.03
553.148	0.02
553.493	0.02
553.839	0.02
554.184	0.02
554.529	0.02
554.875	0.02
555.22	0.02
555.565	0.02
555.91	0.02
556.255	0.03
556.6	0.02
556.945	0.01
557.29	0.02
557.635	0.02
557.98	0.02
558.325	0.02
558.67	0.02
559.014	0.01
559.359	0.02
559.704	0.01
560.048	0
560.393	0.01
560.737	0
561.082	0.01
561.426	0.01
561.77	0.01
562.115	0
562.459	0.01
562.803	0.01
563.147	0
563.491	0.01
563.835	0.02
564.179	0.01
564.523	0.01
564.867	0.01
565.211	0.01
565.555	0.02
565.899	0.02
566.242	0.01
566.586	0.01
566.93	0.02
567.273	0.02
567.617	0.02
567.96	0.02
568.304	0.02
568.647	0.01
568.99	0.02
569.334	0.02
569.677	0.02
570.02	0.02
570.363	0.02
570.706	0.02
571.049	0.02
571.392	0.02
571.735	0.01
572.078	0.02
572.421	0.02
572.764	0.02
573.106	0.02
573.449	0.02
573.792	0.02
574.134	0.02
574.477	0.02
574.819	0.02
575.162	0.01
575.504	0.01
575.847	0.01
576.189	0.02
576.531	0.01
576.873	0.01
577.215	0.01
577.558	0.02
577.9	0
578.242	0.01
578.584	0.01
578.926	0.01
579.267	0
579.609	0.01
579.951	0.01
580.293	0.01
580.634	0.01
580.976	0.01
581.318	0
581.659	0
582.001	0.01
582.342	0
582.683	0.01
583.025	0.01
583.366	0.01
583.707	0.01
584.049	0.01
584.39	0.01
584.731	0.01
585.072	0.01
585.413	0.01
585.754	0.02
586.095	0.02
586.435	0.01
586.776	0.01
587.117	0.01
587.458	0.01
587.798	0.01
588.139	0.01
588.48	0.01
588.82	0.01
589.161	0.01
589.501	0.01
589.841	0.01
590.182	0
590.522	0.01
590.862	0.01
591.202	0.01
591.542	0
591.882	0
592.222	0
592.562	0
592.902	0.01
593.242	0
593.582	0.01
593.922	0.01
594.261	0.01
594.601	0.01
594.941	0.01
595.28	0.01
595.62	0.01
595.959	0.01
596.299	0.01
596.638	0
596.977	0.01
597.317	0.01
597.656	0
597.995	0
598.334	0.01
598.673	0
599.012	0.01
599.351	0.01
599.69	0.01
600.029	0.01
600.368	0.01
600.707	0.01
601.046	0.01
601.384	0.01
601.723	0.01
602.061	0.01
602.4	0.01
602.738	0.01
603.077	0.01
603.415	-0
603.754	0.01
604.092	0.01
604.43	0.01
604.768	0.01
605.107	0.01
605.445	0.01
605.783	0.01
606.121	0
606.459	0.01
606.796	0.01
607.134	0
607.472	0.01
607.81	0.01
608.148	0.01
608.485	0.01
608.823	0.01
609.16	0.01
609.498	0.01
609.835	0.01
610.173	0.01
610.51	0.02
610.847	0.02
611.185	0.02
611.522	0.02
611.859	0.02
612.196	0.02
612.533	0.02
612.87	0.03
613.207	0.03
613.544	0.03
613.881	0.03
614.217	0.03
614.554	0.02
614.891	0.03
615.228	0.02
615.564	0.02
615.901	0.03
616.237	0.03
616.574	0.02
616.91	0.02
617.246	0.03
617.583	0.03
617.919	0.02
618.255	0.03
618.591	0.03
618.927	0.03
619.263	0.03
619.599	0.02
619.935	0.02
620.271	0.02
620.607	0.02
620.943	0.02
621.279	0.03
621.614	0.02
621.95	0.02
622.286	0.02
622.621	0.01
622.957	0.02
623.292	0.01
623.627	0.02
623.963	0.01
624.298	0.01
624.633	0.02
624.968	0.01
625.304	0.02
625.639	0.01
625.974	0.01
626.309	0.01
626.644	0.01
626.979	0.02
627.313	0.01
627.648	0.02
627.983	0.02
628.318	0.01
628.652	0.01
628.987	0.01
629.321	0.02
629.656	0.01
629.99	0.01
630.325	0.02
630.659	0.02
630.993	0.01
631.327	0.02
631.662	0.01
631.996	0.01
632.33	0.01
632.664	0.02
632.998	0.01
633.332	0.01
633.666	0.01
633.999	0.01
634.333	0.01
634.667	0.01
635.001	0.01
635.334	0.01
635.668	0.01
636.001	0.01
636.335	0.01
636.668	0.01
637.001	0
637.335	0.01
637.668	0.01
638.001	0
638.334	0.01
638.668	0
639.001	0.01
639.334	0
639.667	0
639.999	0.01
640.332	0.01
640.665	0.01
640.998	0
641.331	0.02
641.663	0.01
641.996	0.01
642.328	0.01
642.661	0.01
642.993	0.02
643.326	0.02
643.658	0.01
643.99	0.01
644.323	0.01
644.655	0.01
644.987	0.02
645.319	0.02
645.651	0.02
645.983	0.01
646.315	0.01
646.647	0.01
646.979	0.02
647.31	0.02
647.642	0.02
647.974	0.02
648.305	0.03
648.637	0.02
648.968	0.03
649.3	0.02
649.631	0.03
649.963	0.02
650.294	0.03
650.625	0.02
650.957	0.03
651.288	0.02
651.619	0.03
651.95	0.03
652.281	0.02
652.612	0.01
652.943	0.02
653.274	0.03
653.604	0.02
653.935	0.01
654.266	0.02
654.596	0.02
654.927	0.02
655.258	0.02
655.588	0.03
655.918	0.02
656.249	0.01
656.579	0.02
656.909	0.02
657.24	0.02
657.57	0.02
657.9	0.02
658.23	0.03
658.56	0.03
658.89	0.03
659.22	0.02
659.55	0.02
659.88	0.03
660.209	0.03
660.539	0.03
660.869	0.03
661.198	0.03
661.528	0.03
661.857	0.02
662.187	0.02
662.516	0.02
662.846	0.02
663.175	0.02
663.504	0.02
663.833	0.02
664.163	0.02
664.492	0.02
664.821	0.03
665.15	0.02
665.479	0.03
665.807	0.02
666.136	0.03
666.465	0.02
666.794	0.02
667.122	0.02
667.451	0.02
667.78	0.02
668.108	0.03
668.437	0.02
668.765	0.02
669.093	0.02
669.422	0.02
669.75	0.02
670.078	0.02
670.406	0.02
670.734	0.02
671.062	0.02
671.39	0.02
671.718	0.02
672.046	0.02
672.374	0.02
672.702	0.02
673.029	0.02
673.357	0.03
673.685	0.03
674.012	0.02
674.34	0.02
674.667	0.03
674.995	0.03
675.322	0.03
675.649	0.02
675.977	0.02
676.304	0.02
676.631	0.03
676.958	0.02
677.285	0.02
677.612	0.02
677.939	0.02
678.266	0.03
678.593	0.02
678.92	0.02
679.246	0.01
679.573	0.01
679.9	0.01
680.226	0.02
680.553	0.01
680.879	0.01
681.206	0.02
681.532	0.02
681.858	0.02
682.184	0.01
682.511	0.02
682.837	0.01
683.163	0.02
683.489	0.02
683.815	0.02
684.141	0.02
684.467	0.02
684.793	0.02
685.118	0.02
685.444	0.03
685.77	0.02
686.095	0.02
686.421	0.02
686.746	0.03
687.072	0.02
687.397	0.02
687.723	0.03
688.048	0.03
688.373	0.02
688.698	0.02
689.023	0.03
689.349	0.02
689.674	0.02
689.999	0.02
690.323	0.01
690.648	0.01
690.973	0.01
691.298	0.01
691.623	0.01
691.947	0.01
692.272	0
692.596	0.01
692.921	0.01
693.245	0.01
693.57	0.01
693.894	0.02
694.218	0.02
694.543	0.02
694.867	0.02
695.191	0.01
695.515	0.01
695.839	0.01
696.163	0.01
696.487	0.02
696.811	0.01
697.135	0.02
697.458	0.01
697.782	0.02
698.106	0.02
698.429	0.02
698.753	0.01
699.076	0.01
699.4	0.01
699.723	0.02
700.046	0.02
700.37	0.02
700.693	0.02
701.016	0.02
701.339	0.02
701.662	0.02
701.985	0.03
702.308	0.02
702.631	0.03
702.954	0.03
703.277	0.03
703.599	0.02
703.922	0.02
704.245	0.02
704.567	0.02
704.89	0.02
705.212	0.02
705.535	0.02
705.857	0.01
706.179	0.01
706.502	0.01
706.824	0.01
707.146	0.01
707.468	0.02
707.79	0.02
708.112	0.02
708.434	0.02
708.756	0.02
709.078	0.01
709.399	0.01
709.721	0.01
710.043	0.02
710.364	0.01
710.686	0.02
711.007	0.01
711.329	0.03
711.65	0.02
711.972	0.02
712.293	0.02
712.614	0.02
712.935	0.01
713.256	0.02
713.577	0.02
713.898	0.01
714.219	0.02
714.54	0.02
714.861	0.02
715.182	0.02
715.503	0.02
715.823	0.01
716.144	0.02
716.464	0.01
716.785	0.01
717.105	0.01
717.426	0.02
717.746	0.02
718.066	0.01
718.387	0.01
718.707	0.01
719.027	0.02
719.347	0
719.667	0.02
719.987	0.01
720.307	0
720.627	0.01
720.947	0.01
721.266	0.01
721.586	0
721.906	0
722.225	0
722.545	0.01
722.864	0.01
723.184	0
723.503	0
723.823	0.01
724.142	-0
724.461	0.01
724.78	-0
725.099	0.01
725.418	0.01
725.737	0.01
726.056	0.01
726.375	0.02
726.694	0.01
727.013	0.01
727.331	0.01
727.65	0.01
727.969	0.02
728.287	0.01
728.606	0.01
728.924	0.01
729.242	0.02
729.561	0.01
729.879	0.02
730.197	0.01
730.515	0.01
730.834	0.01
731.152	0.01
731.47	0.01
731.788	0.01
732.105	0
732.423	0
732.741	0.01
733.059	0
733.376	0.01
733.694	0
734.012	0
734.329	0.01
734.647	0
734.964	0.01
735.281	0.01
735.599	0.01
735.916	0.02
736.233	0.01
736.55	0.01
736.867	0.02
737.184	0.03
737.501	0.01
737.818	0.01
738.135	0.02
738.452	0.02
738.768	0.02
739.085	0.01
739.402	0.01
739.718	0.02
740.035	0.02
740.351	0.03
740.668	0.02
740.984	0.02
741.3	0.02
741.617	0.02
741.933	0.02
742.249	0.02
742.565	0.02
742.881	0.02
743.197	0.02
743.513	0.02
743.829	0.02
744.144	0.02
744.46	0.02
744.776	0.03
745.091	0.02
745.407	0.02
745.722	0.02
746.038	0.02
746.353	0.01
746.669	0.03
746.984	0
747.299	0.02
747.614	0.02
747.93	0.02
748.245	0.01
748.56	0.02
748.875	0.01
749.189	0.02
749.504	0.02
749.819	0.02
750.134	0.02
750.448	0.02
750.763	0.02
751.078	0.01
751.392	0.01
751.707	0.03
752.021	0.03
752.335	0.03
752.65	0.03
752.964	0.03
753.278	0.02
753.592	0.02
753.906	0.02
754.22	0.02
754.534	0.03
754.848	0.03
755.162	0.03
755.476	0.03
755.789	0.02
756.103	0.02
756.417	0.03
756.73	0.03
757.044	0.03
757.357	0.03
757.671	0.03
757.984	0.02
758.297	0.03
758.61	0.03
758.924	0.04
759.237	0.02
759.55	0.03
759.863	0.02
760.176	0.03
760.488	0.02
760.801	0.02
761.114	0.02
761.427	0.02
761.739	0.03
762.052	0.02
762.365	0.03
762.677	0.03
762.99	0.01
763.302	0.02
763.614	0.03
763.926	0.02
764.239	0.02
764.551	0.01
764.863	0.03
765.175	0.03
765.487	0.02
765.799	0.02
766.111	0.01
766.423	0.02
766.734	0.02
767.046	0.01
767.358	0.02
767.669	0.02
767.981	0.02
768.292	0.02
768.604	0.02
768.915	0.02
769.226	0.01
769.537	0
769.849	0.02
770.16	0.02
770.471	0.01
770.782	0.01
771.093	0.02
771.404	0
771.715	0.01
772.025	0.01
772.336	0.01
772.647	0.01
772.957	0.01
773.268	0.01
773.578	0.01
773.889	0.02
774.199	0.02
774.51	0.01
774.82	0.01
775.13	0.02
775.44	0.02
775.75	0.02
776.06	0.02
776.37	0.02
776.68	0.02
776.99	0.02
777.3	0.02
777.61	0.02
777.92	0.02
778.229	0.02
778.539	0.01
778.848	0.02
779.158	0.02
779.467	0.02
779.777	0.01
780.086	0.02
780.395	0.01
780.704	0.02
781.013	0.01
781.323	0.01
781.632	0.02
781.941	0.01
782.249	0.02
782.558	0.02
782.867	0.02
783.176	0.01
783.485	0.01
783.793	0.02
784.102	0.02
784.41	0.02
784.719	0.02
785.027	0.02
785.335	0.01
785.644	0.01
785.952	0.01
786.26	0.02
786.568	0.01
786.876	0.01
787.184	0.01
787.492	0.02
787.8	0.02
788.108	0.02
788.416	0.01
788.723	0.02
789.031	0.01
789.338	0.02
789.646	0.01
789.953	0.02
790.261	0.02
790.568	0.02
790.876	0.02
791.183	0.02
791.49	0.02
791.797	0.02
792.104	0.02
792.411	0.02
792.718	0.02
793.025	0.02
793.332	0.02
793.639	0.03
793.945	0.03
794.252	0.03
794.559	0.02
794.865	0.03
795.172	0.02
795.478	0.03
795.784	0.02
796.091	0.03
796.397	0.03
796.703	0.03
797.009	0.03
797.315	0.03
797.622	0.03
797.927	0.03
798.233	0.02
798.539	0.03
798.845	0.02
799.151	0.03
799.456	0.03
799.762	0.02
800.068	0.01
800.373	0.03
800.679	0.02
800.984	0.02
801.289	0.02
801.595	0.02
801.9	0.02
802.205	0.02
802.51	0.02
802.815	0.02
803.12	0.02
803.425	0.02
803.73	0.01
804.035	0.02
804.339	0.02
804.644	0.02
804.949	0.02
805.253	0.02
805.558	0.01
805.862	0.02
806.167	0.02
806.471	0.02
806.775	0.02
807.08	0.02
807.384	0.03
807.688	0.03
807.992	0.03
808.296	0.02
808.6	0.03
808.904	0.03
809.207	0.02
809.511	0.04
809.815	0.04
810.119	0.03
810.422	0.03
810.726	0.03
811.029	0.04
811.332	0.04
811.636	0.04
811.939	0.03
812.242	0.03
812.546	0.03
812.849	0.03
813.152	0.04
813.455	0.04
813.758	0.03
814.06	0.03
814.363	0.03
814.666	0.04
814.969	0.03
815.271	0.04
815.574	0.03
815.877	0.03
816.179	0.03
816.481	0.03
816.784	0.03
817.086	0.02
817.388	0.02
817.69	0.02
817.993	0.02
818.295	0.02
818.597	0.02
818.899	0.02
819.2	0.02
819.502	0.02
819.804	0.02
820.106	0.02
820.407	0.02
820.709	0.02
821.01	0.03
821.312	0.02
821.613	0.02
821.915	0.02
822.216	0.03
822.517	0.01
822.818	0.02
823.119	0.02
823.42	0.02
823.721	0.01
824.022	0.02
824.323	0.02
824.624	0.02
824.925	0.02
825.226	0.03
825.526	0.02
825.827	0.02
826.127	0.02
826.428	0.02
826.728	0.02
827.028	0.01
827.329	0.01
827.629	0.01
827.929	0.01
828.229	0.02
828.529	0.02
828.829	0.02
829.129	0.02
829.429	0.02
829.729	0.02
830.029	0.01
830.328	0.02
830.628	0.01
830.927	0
831.227	0.01
831.526	0.02
831.826	0.01
832.125	0.01
832.424	0.01
832.724	0.01
833.023	0.01
833.322	0.01
833.621	0.01
833.92	0
834.219	0.01
834.518	0.01
834.816	0
835.115	0.01
835.414	0.01
835.712	0
836.011	0
836.309	-0
836.608	-0
836.906	0
837.205	-0
837.503	-0.01
837.801	-0
838.099	-0.01
838.397	-0.02
838.695	-0.02
838.993	-0.02
839.291	-0.03
839.589	-0.02
839.887	-0.02
840.184	-0.03
840.482	-0.04
840.78	-0.04
841.077	-0.04
841.375	-0.04
841.672	-0.04
841.969	-0.04
842.267	-0.04
842.564	-0.05
842.861	-0.04
843.158	-0.05
843.455	-0.07
843.752	-0.05
844.049	-0.05
844.346	-0.05
844.643	-0.06
844.94	-0.06
845.236	-0.04
845.533	-0.05
845.83	-0.06
846.126	-0.05
846.423	-0.06
846.719	-0.06
847.015	-0.05
847.312	-0.07
847.608	-0.07
847.904	-0.07
848.2	-0.07
848.496	-0.06
848.792	-0.06
849.088	-0.05
849.384	-0.07
849.68	-0.07
849.975	-0.06
850.271	-0.07
850.567	-0.07
850.862	-0.07
851.158	-0.08
851.453	-0.08
851.748	-0.09
852.044	-0.08
852.339	-0.08
852.634	-0.09
852.929	-0.08
853.224	-0.09
853.519	-0.09
853.814	-0.09
854.109	-0.1
854.404	-0.1
854.699	-0.09
854.994	-0.09
855.288	-0.1
855.583	-0.09
855.877	-0.11
856.172	-0.09
856.466	-0.1
856.76	-0.1
857.055	-0.11
857.349	-0.11
857.643	-0.12
857.937	-0.12
858.231	-0.12
858.525	-0.11
858.819	-0.12
859.113	-0.13
859.407	-0.13
859.701	-0.13
859.994	-0.13
860.288	-0.13
860.581	-0.13
860.875	-0.12
861.168	-0.14
861.462	-0.13
861.755	-0.13
862.048	-0.15
862.341	-0.14
862.634	-0.14
862.928	-0.14
863.221	-0.13
863.513	-0.14
863.806	-0.13
864.099	-0.14
864.392	-0.14
864.685	-0.14
864.977	-0.14
865.27	-0.15
865.562	-0.13
865.855	-0.13
866.147	-0.14
866.44	-0.13
866.732	-0.14
867.024	-0.14
867.316	-0.15
867.608	-0.14
867.9	-0.14
868.192	-0.15
868.484	-0.15
868.776	-0.15
869.068	-0.15
869.359	-0.15
869.651	-0.16
869.943	-0.16
870.234	-0.16
870.526	-0.16
870.817	-0.16
871.108	-0.14
871.4	-0.15
871.691	-0.16
871.982	-0.17
872.273	-0.17
872.564	-0.17
872.855	-0.17
873.146	-0.17
873.437	-0.17
873.728	-0.18
874.019	-0.16
874.309	-0.17
874.6	-0.17
874.89	-0.17
875.181	-0.18
875.471	-0.17
875.762	-0.16
876.052	-0.17
876.342	-0.16
876.632	-0.17
876.922	-0.18
877.213	-0.18
877.503	-0.19
877.792	-0.17
878.082	-0.18
878.372	-0.16
878.662	-0.19
878.952	-0.18
879.241	-0.17
879.531	-0.17
879.82	-0.17
880.11	-0.18
880.399	-0.18
880.688	-0.17
880.978	-0.17
881.267	-0.17
