Data from 12-12-AQDScycling_Absorbance__668__00668.txt Node

Date: Tue Dec 12 13:43:44 EST 2023
User: kyuminlee
Spectrometer: FLMS00943
Trigger mode: 0
Integration Time (sec): 1.000000E-1
Scans to average: 1
Electric dark correction enabled: true
Nonlinearity correction enabled: false
Boxcar width: 0
XAxis mode: Wavelengths
Number of Pixels in Spectrum: 2048
>>>>>Begin Spectral Data<<<<<
179.651	-0
180.037	-0
180.424	-0
180.81	-0
181.197	0.07
181.583	-0
181.97	-0
182.356	-0
182.743	-0
183.129	2.24
183.515	-0
183.901	-2.04
184.288	0.64
184.674	-0.09
185.06	-0.52
185.446	0.05
185.832	-0.74
186.218	0.37
186.604	-0.41
186.99	-0
187.376	-0
187.762	-0.43
188.148	0.33
188.534	-0.15
188.92	0.01
189.305	0.09
189.691	0.18
190.077	0.15
190.463	0.07
190.848	0.1
191.234	0.14
191.619	0.18
192.005	0.28
192.391	0.17
192.776	0.12
193.161	0.16
193.547	0.11
193.932	-0
194.318	0.04
194.703	0.2
195.088	0.29
195.473	0.17
195.859	0.18
196.244	0.17
196.629	0.11
197.014	0.13
197.399	0.1
197.784	0.12
198.169	0.17
198.554	0.17
198.939	0.09
199.324	0.03
199.709	0.02
200.094	0.13
200.478	0.16
200.863	0.14
201.248	0.26
201.633	0.16
202.017	0.14
202.402	0.19
202.787	0.04
203.171	0.08
203.556	0.13
203.94	0.23
204.325	0.3
204.709	0.24
205.093	0.19
205.478	0.28
205.862	0.05
206.246	0.17
206.631	0.02
207.015	0
207.399	0.3
207.783	0.2
208.167	0.28
208.551	0.11
208.935	0.16
209.319	0.08
209.703	0.03
210.087	0.23
210.471	0.1
210.855	0.15
211.239	0.2
211.623	0.2
212.007	0.34
212.39	0.2
212.774	0.22
213.158	0.16
213.541	0.32
213.925	0.23
214.309	0.23
214.692	0.32
215.076	0.29
215.459	0.27
215.842	0.2
216.226	0.23
216.609	0.2
216.993	0.14
217.376	0.41
217.759	0.21
218.142	0.32
218.525	0.57
218.909	0.36
219.292	0.36
219.675	0.46
220.058	0.47
220.441	0.55
220.824	0.41
221.207	0.54
221.59	0.57
221.973	0.5
222.355	0.53
222.738	0.89
223.121	0.58
223.504	0.63
223.886	0.69
224.269	0.69
224.652	0.62
225.034	0.68
225.417	0.76
225.799	0.94
226.182	0.75
226.564	0.82
226.947	0.71
227.329	0.82
227.711	0.89
228.094	0.97
228.476	0.93
228.858	0.78
229.24	0.78
229.623	0.94
230.005	0.77
230.387	0.77
230.769	0.98
231.151	0.95
231.533	0.98
231.915	0.91
232.297	0.96
232.679	1.01
233.061	1.05
233.442	0.89
233.824	0.91
234.206	1.18
234.588	1.14
234.969	1.01
235.351	1.01
235.733	1.05
236.114	1.26
236.496	0.96
236.877	1.08
237.259	1.12
237.64	1
238.022	1
238.403	0.96
238.784	1.03
239.165	0.96
239.547	0.96
239.928	1.24
240.309	1.04
240.69	1
241.071	1.18
241.452	1.22
241.834	1.04
242.215	0.99
242.595	1.11
242.976	1.23
243.357	1.16
243.738	1.03
244.119	1.35
244.5	1.09
244.881	1.19
245.261	1.27
245.642	1.12
246.023	1.19
246.403	1.19
246.784	1.25
247.164	1.36
247.545	1.3
247.925	1.33
248.306	1.16
248.686	1.44
249.067	1.28
249.447	1.46
249.827	1.5
250.207	1.41
250.588	1.28
250.968	1.44
251.348	1.36
251.728	1.66
252.108	1.34
252.488	1.39
252.868	1.37
253.248	1.33
253.628	1.38
254.008	1.44
254.388	1.33
254.768	1.27
255.147	1.32
255.527	1.42
255.907	1.35
256.287	1.43
256.666	1.37
257.046	1.41
257.425	1.46
257.805	1.23
258.184	1.26
258.564	1.42
258.943	1.32
259.323	1.5
259.702	1.46
260.081	1.5
260.461	1.56
260.84	1.34
261.219	1.82
261.598	1.48
261.977	1.53
262.356	1.45
262.736	1.51
263.115	1.48
263.494	1.5
263.873	1.56
264.251	1.49
264.63	1.57
265.009	1.48
265.388	1.43
265.767	1.32
266.145	1.41
266.524	1.53
266.903	1.46
267.281	1.27
267.66	1.36
268.039	1.5
268.417	1.42
268.796	1.48
269.174	1.4
269.552	1.33
269.931	1.49
270.309	1.58
270.687	1.37
271.066	1.69
271.444	1.35
271.822	1.59
272.2	1.41
272.578	1.4
272.956	1.63
273.334	1.42
273.712	1.41
274.09	1.48
274.468	1.39
274.846	1.31
275.224	1.35
275.602	1.38
275.98	1.56
276.357	1.43
276.735	1.54
277.113	1.38
277.49	1.35
277.868	1.47
278.246	1.46
278.623	1.31
279.001	1.31
279.378	1.48
279.756	1.44
280.133	1.64
280.51	1.44
280.888	1.49
281.265	1.44
281.642	1.53
282.019	1.72
282.396	1.59
282.773	1.41
283.151	1.46
283.528	1.49
283.905	1.58
284.282	1.48
284.659	1.42
285.035	1.32
285.412	1.32
285.789	1.61
286.166	1.53
286.543	1.56
286.919	1.49
287.296	1.35
287.673	1.71
288.049	1.49
288.426	1.58
288.802	1.45
289.179	1.62
289.555	1.64
289.932	1.54
290.308	1.51
290.684	1.32
291.061	1.44
291.437	1.56
291.813	1.46
292.189	1.35
292.565	1.4
292.942	1.3
293.318	1.44
293.694	1.55
294.07	1.32
294.446	1.46
294.822	1.57
295.197	1.33
295.573	1.46
295.949	1.36
296.325	1.52
296.701	1.44
297.076	1.62
297.452	1.66
297.828	1.4
298.203	1.85
298.579	1.44
298.954	1.42
299.33	1.47
299.705	1.55
300.081	1.5
300.456	1.43
300.831	1.44
301.206	1.4
301.582	1.55
301.957	1.4
302.332	1.57
302.707	1.5
303.082	1.46
303.457	1.47
303.832	1.59
304.207	1.36
304.582	1.39
304.957	1.48
305.332	1.42
305.707	1.4
306.082	1.54
306.456	1.59
306.831	1.5
307.206	1.49
307.58	1.54
307.955	1.45
308.33	1.47
308.704	1.4
309.079	1.35
309.453	1.51
309.828	1.42
310.202	1.5
310.576	1.46
310.951	1.5
311.325	1.46
311.699	1.42
312.073	1.37
312.447	1.38
312.821	1.44
313.196	1.55
313.57	1.38
313.944	1.44
314.317	1.36
314.691	1.47
315.065	1.48
315.439	1.57
315.813	1.54
316.187	1.43
316.56	1.71
316.934	1.54
317.308	1.44
317.681	1.43
318.055	1.49
318.428	1.47
318.802	1.4
319.175	1.64
319.549	1.45
319.922	1.37
320.295	1.39
320.669	1.5
321.042	1.44
321.415	1.46
321.788	1.42
322.162	1.37
322.535	1.59
322.908	1.45
323.281	1.46
323.654	1.48
324.027	1.43
324.4	1.63
324.773	1.58
325.145	1.54
325.518	1.4
325.891	1.45
326.264	1.64
326.636	1.42
327.009	1.63
327.382	1.47
327.754	1.52
328.127	1.39
328.499	1.53
328.872	1.6
329.244	1.62
329.616	1.38
329.989	1.48
330.361	1.46
330.733	1.49
331.106	1.45
331.478	1.57
331.85	1.43
332.222	1.41
332.594	1.48
332.966	1.52
333.338	1.47
333.71	1.61
334.082	1.61
334.454	1.48
334.826	1.5
335.197	1.53
335.569	1.47
335.941	1.43
336.312	1.47
336.684	1.4
337.056	1.48
337.427	1.52
337.799	1.44
338.17	1.54
338.542	1.49
338.913	1.63
339.284	1.61
339.656	1.45
340.027	1.52
340.398	1.5
340.769	1.57
341.141	1.62
341.512	1.59
341.883	1.52
342.254	1.54
342.625	1.46
342.996	1.47
343.367	1.46
343.738	1.43
344.108	1.43
344.479	1.48
344.85	1.35
345.221	1.51
345.591	1.38
345.962	1.53
346.333	1.39
346.703	1.31
347.074	1.32
347.444	1.3
347.815	1.34
348.185	1.48
348.556	1.42
348.926	1.27
349.296	1.37
349.666	1.41
350.037	1.34
350.407	1.24
350.777	1.28
351.147	1.34
351.517	1.38
351.887	1.34
352.257	1.36
352.627	1.3
352.997	1.39
353.367	1.35
353.737	1.46
354.106	1.48
354.476	1.36
354.846	1.33
355.216	1.46
355.585	1.46
355.955	1.39
356.324	1.36
356.694	1.3
357.063	1.33
357.433	1.34
357.802	1.33
358.171	1.38
358.541	1.36
358.91	1.39
359.279	1.39
359.648	1.32
360.017	1.41
360.387	1.36
360.756	1.27
361.125	1.23
361.494	1.26
361.863	1.25
362.231	1.36
362.6	1.31
362.969	1.34
363.338	1.29
363.707	1.29
364.075	1.35
364.444	1.18
364.813	1.23
365.181	1.26
365.55	1.25
365.918	1.28
366.287	1.27
366.655	1.28
367.024	1.35
367.392	1.26
367.76	1.25
368.128	1.27
368.497	1.19
368.865	1.21
369.233	1.22
369.601	1.22
369.969	1.25
370.337	1.33
370.705	1.21
371.073	1.29
371.441	1.31
371.809	1.19
372.177	1.23
372.544	1.25
372.912	1.24
373.28	1.23
373.647	1.34
374.015	1.31
374.383	1.48
374.75	1.3
375.118	1.3
375.485	1.32
375.853	1.25
376.22	1.32
376.587	1.2
376.955	1.3
377.322	1.25
377.689	1.27
378.056	1.24
378.423	1.23
378.79	1.3
379.157	1.28
379.524	1.32
379.891	1.24
380.258	1.37
380.625	1.31
380.992	1.31
381.359	1.4
381.726	1.41
382.092	1.25
382.459	1.32
382.826	1.34
383.192	1.3
383.559	1.33
383.925	1.32
384.292	1.29
384.658	1.44
385.025	1.38
385.391	1.44
385.757	1.39
386.123	1.41
386.49	1.34
386.856	1.37
387.222	1.49
387.588	1.39
387.954	1.48
388.32	1.4
388.686	1.42
389.052	1.42
389.418	1.49
389.784	1.43
390.15	1.52
390.515	1.36
390.881	1.5
391.247	1.3
391.613	1.47
391.978	1.33
392.344	1.46
392.709	1.41
393.075	1.54
393.44	1.42
393.806	1.47
394.171	1.36
394.536	1.36
394.902	1.39
395.267	1.43
395.632	1.37
395.997	1.38
396.362	1.35
396.727	1.48
397.092	1.31
397.457	1.47
397.822	1.33
398.187	1.4
398.552	1.38
398.917	1.49
399.282	1.35
399.646	1.44
400.011	1.46
400.376	1.29
400.74	1.32
401.105	1.4
401.47	1.34
401.834	1.3
402.199	1.34
402.563	1.29
402.927	1.33
403.292	1.28
403.656	1.29
404.02	1.32
404.384	1.39
404.749	1.31
405.113	1.24
405.477	1.27
405.841	1.29
406.205	1.34
406.569	1.19
406.933	1.21
407.296	1.26
407.66	1.19
408.024	1.25
408.388	1.28
408.752	1.26
409.115	1.25
409.479	1.19
409.842	1.22
410.206	1.16
410.569	1.22
410.933	1.17
411.296	1.12
411.66	1.19
412.023	1.12
412.386	1.12
412.749	1.05
413.113	1.12
413.476	1.11
413.839	1.09
414.202	1.13
414.565	1.09
414.928	1.07
415.291	1.12
415.654	1.09
416.017	1.07
416.38	1.03
416.742	1.07
417.105	1.07
417.468	1.08
417.83	1.07
418.193	1.14
418.556	1.03
418.918	1.04
419.281	1.07
419.643	1.08
420.005	1.02
420.368	1.05
420.73	1.02
421.092	1.02
421.455	1.08
421.817	0.97
422.179	1.03
422.541	1.03
422.903	1.05
423.265	1.11
423.627	1.02
423.989	0.99
424.351	0.98
424.713	1.04
425.075	0.97
425.436	1.01
425.798	1.02
426.16	1.02
426.521	0.97
426.883	1.02
427.245	0.98
427.606	0.94
427.967	0.96
428.329	0.99
428.69	1.02
429.052	0.98
429.413	1.02
429.774	1.01
430.135	0.99
430.497	0.97
430.858	0.95
431.219	0.99
431.58	0.95
431.941	0.98
432.302	0.95
432.663	0.98
433.024	0.93
433.384	0.94
433.745	0.92
434.106	0.95
434.467	0.97
434.827	0.94
435.188	0.95
435.548	0.96
435.909	0.91
436.269	0.95
436.63	0.93
436.99	0.89
437.351	0.88
437.711	0.92
438.071	0.9
438.431	0.9
438.792	0.87
439.152	0.9
439.512	0.88
439.872	0.87
440.232	0.89
440.592	0.89
440.952	0.86
441.312	0.82
441.671	0.87
442.031	0.86
442.391	0.86
442.751	0.86
443.11	0.85
443.47	0.82
443.83	0.79
444.189	0.8
444.549	0.82
444.908	0.8
445.267	0.8
445.627	0.78
445.986	0.79
446.345	0.77
446.705	0.79
447.064	0.79
447.423	0.76
447.782	0.77
448.141	0.77
448.5	0.75
448.859	0.77
449.218	0.74
449.577	0.76
449.936	0.76
450.295	0.73
450.653	0.74
451.012	0.75
451.371	0.74
451.729	0.73
452.088	0.73
452.447	0.72
452.805	0.73
453.163	0.73
453.522	0.73
453.88	0.71
454.239	0.69
454.597	0.69
454.955	0.68
455.313	0.68
455.671	0.66
456.029	0.66
456.388	0.66
456.746	0.66
457.104	0.64
457.461	0.64
457.819	0.64
458.177	0.62
458.535	0.63
458.893	0.62
459.25	0.61
459.608	0.61
459.966	0.59
460.323	0.58
460.681	0.58
461.038	0.57
461.396	0.56
461.753	0.57
462.111	0.55
462.468	0.54
462.825	0.54
463.182	0.53
463.54	0.52
463.897	0.53
464.254	0.52
464.611	0.51
464.968	0.51
465.325	0.5
465.682	0.5
466.039	0.5
466.395	0.48
466.752	0.49
467.109	0.48
467.466	0.48
467.822	0.47
468.179	0.46
468.535	0.46
468.892	0.45
469.248	0.44
469.605	0.43
469.961	0.44
470.318	0.44
470.674	0.44
471.03	0.42
471.386	0.43
471.743	0.41
472.099	0.41
472.455	0.4
472.811	0.39
473.167	0.4
473.523	0.38
473.879	0.38
474.235	0.38
474.59	0.37
474.946	0.37
475.302	0.36
475.657	0.36
476.013	0.35
476.369	0.34
476.724	0.34
477.08	0.34
477.435	0.33
477.791	0.34
478.146	0.33
478.501	0.33
478.857	0.32
479.212	0.32
479.567	0.31
479.922	0.3
480.277	0.3
480.632	0.29
480.987	0.3
481.342	0.29
481.697	0.28
482.052	0.29
482.407	0.28
482.762	0.28
483.116	0.27
483.471	0.27
483.826	0.26
484.18	0.26
484.535	0.26
484.89	0.26
485.244	0.25
485.598	0.25
485.953	0.25
486.307	0.24
486.661	0.25
487.016	0.25
487.37	0.25
487.724	0.24
488.078	0.24
488.432	0.23
488.786	0.23
489.14	0.22
489.494	0.22
489.848	0.22
490.202	0.22
490.556	0.22
490.91	0.22
491.263	0.22
491.617	0.21
491.971	0.21
492.324	0.21
492.678	0.22
493.031	0.21
493.385	0.21
493.738	0.21
494.091	0.21
494.445	0.2
494.798	0.2
495.151	0.2
495.504	0.2
495.857	0.2
496.21	0.2
496.564	0.19
496.916	0.2
497.269	0.19
497.622	0.19
497.975	0.18
498.328	0.19
498.681	0.18
499.033	0.18
499.386	0.18
499.739	0.18
500.091	0.18
500.444	0.18
500.796	0.18
501.149	0.17
501.501	0.18
501.854	0.18
502.206	0.17
502.558	0.17
502.91	0.18
503.263	0.17
503.615	0.18
503.967	0.17
504.319	0.18
504.671	0.17
505.023	0.18
505.375	0.17
505.726	0.17
506.078	0.17
506.43	0.17
506.782	0.17
507.133	0.18
507.485	0.17
507.837	0.18
508.188	0.17
508.54	0.17
508.891	0.18
509.243	0.17
509.594	0.17
509.945	0.17
510.296	0.16
510.648	0.16
510.999	0.16
511.35	0.17
511.701	0.16
512.052	0.17
512.403	0.17
512.754	0.17
513.105	0.17
513.456	0.16
513.807	0.16
514.157	0.17
514.508	0.16
514.859	0.16
515.209	0.16
515.56	0.16
515.91	0.16
516.261	0.17
516.611	0.16
516.962	0.17
517.312	0.16
517.662	0.16
518.013	0.16
518.363	0.17
518.713	0.16
519.063	0.17
519.413	0.17
519.763	0.17
520.113	0.17
520.463	0.17
520.813	0.17
521.163	0.17
521.512	0.17
521.862	0.16
522.212	0.17
522.562	0.17
522.911	0.16
523.261	0.17
523.61	0.17
523.96	0.17
524.309	0.17
524.658	0.17
525.008	0.17
525.357	0.17
525.706	0.17
526.056	0.16
526.405	0.17
526.754	0.17
527.103	0.16
527.452	0.16
527.801	0.17
528.15	0.17
528.499	0.17
528.847	0.16
529.196	0.18
529.545	0.17
529.893	0.18
530.242	0.17
530.591	0.18
530.939	0.18
531.288	0.18
531.636	0.18
531.985	0.17
532.333	0.18
532.681	0.18
533.029	0.18
533.378	0.18
533.726	0.17
534.074	0.18
534.422	0.17
534.77	0.18
535.118	0.17
535.466	0.18
535.814	0.18
536.162	0.18
536.509	0.18
536.857	0.18
537.205	0.19
537.552	0.18
537.9	0.18
538.248	0.17
538.595	0.18
538.943	0.18
539.29	0.17
539.637	0.18
539.985	0.17
540.332	0.18
540.679	0.17
541.026	0.18
541.373	0.18
541.721	0.17
542.068	0.18
542.415	0.18
542.762	0.17
543.108	0.16
543.455	0.17
543.802	0.17
544.149	0.17
544.496	0.17
544.842	0.17
545.189	0.17
545.535	0.17
545.882	0.17
546.228	0.17
546.575	0.17
546.921	0.17
547.267	0.17
547.614	0.17
547.96	0.17
548.306	0.17
548.652	0.16
548.998	0.18
549.344	0.18
549.69	0.17
550.036	0.17
550.382	0.17
550.728	0.17
551.074	0.18
551.42	0.17
551.765	0.18
552.111	0.18
552.457	0.18
552.802	0.18
553.148	0.18
553.493	0.17
553.839	0.18
554.184	0.18
554.529	0.17
554.875	0.19
555.22	0.18
555.565	0.18
555.91	0.18
556.255	0.18
556.6	0.19
556.945	0.17
557.29	0.18
557.635	0.18
557.98	0.19
558.325	0.18
558.67	0.18
559.014	0.18
559.359	0.19
559.704	0.18
560.048	0.18
560.393	0.18
560.737	0.16
561.082	0.18
561.426	0.17
561.77	0.17
562.115	0.17
562.459	0.18
562.803	0.17
563.147	0.18
563.491	0.18
563.835	0.17
564.179	0.18
564.523	0.18
564.867	0.18
565.211	0.18
565.555	0.17
565.899	0.18
566.242	0.19
566.586	0.17
566.93	0.18
567.273	0.19
567.617	0.18
567.96	0.18
568.304	0.19
568.647	0.18
568.99	0.18
569.334	0.19
569.677	0.18
570.02	0.19
570.363	0.19
570.706	0.18
571.049	0.19
571.392	0.19
571.735	0.18
572.078	0.18
572.421	0.19
572.764	0.19
573.106	0.19
573.449	0.18
573.792	0.18
574.134	0.17
574.477	0.18
574.819	0.18
575.162	0.18
575.504	0.18
575.847	0.18
576.189	0.18
576.531	0.18
576.873	0.18
577.215	0.18
577.558	0.18
577.9	0.18
578.242	0.18
578.584	0.19
578.926	0.18
579.267	0.18
579.609	0.18
579.951	0.17
580.293	0.18
580.634	0.18
580.976	0.18
581.318	0.19
581.659	0.18
582.001	0.18
582.342	0.18
582.683	0.19
583.025	0.17
583.366	0.18
583.707	0.18
584.049	0.17
584.39	0.18
584.731	0.17
585.072	0.18
585.413	0.18
585.754	0.18
586.095	0.18
586.435	0.18
586.776	0.18
587.117	0.17
587.458	0.18
587.798	0.18
588.139	0.19
588.48	0.17
588.82	0.17
589.161	0.17
589.501	0.17
589.841	0.18
590.182	0.18
590.522	0.18
590.862	0.17
591.202	0.18
591.542	0.18
591.882	0.18
592.222	0.17
592.562	0.18
592.902	0.17
593.242	0.17
593.582	0.18
593.922	0.17
594.261	0.17
594.601	0.17
594.941	0.17
595.28	0.18
595.62	0.18
595.959	0.17
596.299	0.17
596.638	0.17
596.977	0.18
597.317	0.18
597.656	0.18
597.995	0.17
598.334	0.19
598.673	0.18
599.012	0.18
599.351	0.19
599.69	0.18
600.029	0.18
600.368	0.19
600.707	0.18
601.046	0.18
601.384	0.19
601.723	0.18
602.061	0.18
602.4	0.18
602.738	0.18
603.077	0.19
603.415	0.18
603.754	0.18
604.092	0.18
604.43	0.18
604.768	0.18
605.107	0.18
605.445	0.18
605.783	0.18
606.121	0.17
606.459	0.17
606.796	0.18
607.134	0.17
607.472	0.17
607.81	0.18
608.148	0.17
608.485	0.18
608.823	0.17
609.16	0.17
609.498	0.17
609.835	0.17
610.173	0.17
610.51	0.18
610.847	0.17
611.185	0.17
611.522	0.17
611.859	0.17
612.196	0.17
612.533	0.18
612.87	0.18
613.207	0.18
613.544	0.18
613.881	0.19
614.217	0.18
614.554	0.18
614.891	0.18
615.228	0.18
615.564	0.18
615.901	0.18
616.237	0.18
616.574	0.18
616.91	0.19
617.246	0.18
617.583	0.18
617.919	0.18
618.255	0.18
618.591	0.18
618.927	0.19
619.263	0.18
619.599	0.18
619.935	0.18
620.271	0.18
620.607	0.18
620.943	0.17
621.279	0.18
621.614	0.18
621.95	0.18
622.286	0.17
622.621	0.18
622.957	0.18
623.292	0.17
623.627	0.17
623.963	0.17
624.298	0.17
624.633	0.17
624.968	0.17
625.304	0.17
625.639	0.17
625.974	0.17
626.309	0.17
626.644	0.17
626.979	0.18
627.313	0.17
627.648	0.17
627.983	0.17
628.318	0.16
628.652	0.16
628.987	0.17
629.321	0.17
629.656	0.16
629.99	0.15
630.325	0.16
630.659	0.16
630.993	0.16
631.327	0.16
631.662	0.15
631.996	0.16
632.33	0.15
632.664	0.16
632.998	0.16
633.332	0.15
633.666	0.16
633.999	0.16
634.333	0.15
634.667	0.15
635.001	0.15
635.334	0.16
635.668	0.15
636.001	0.15
636.335	0.15
636.668	0.15
637.001	0.15
637.335	0.16
637.668	0.15
638.001	0.15
638.334	0.15
638.668	0.15
639.001	0.15
639.334	0.15
639.667	0.15
639.999	0.14
640.332	0.15
640.665	0.15
640.998	0.15
641.331	0.16
641.663	0.15
641.996	0.15
642.328	0.15
642.661	0.15
642.993	0.15
643.326	0.15
643.658	0.15
643.99	0.14
644.323	0.15
644.655	0.14
644.987	0.15
645.319	0.15
645.651	0.14
645.983	0.15
646.315	0.15
646.647	0.15
646.979	0.16
647.31	0.16
647.642	0.15
647.974	0.15
648.305	0.15
648.637	0.15
648.968	0.15
649.3	0.15
649.631	0.16
649.963	0.14
650.294	0.15
650.625	0.14
650.957	0.15
651.288	0.15
651.619	0.16
651.95	0.16
652.281	0.15
652.612	0.15
652.943	0.16
653.274	0.16
653.604	0.15
653.935	0.14
654.266	0.15
654.596	0.14
654.927	0.15
655.258	0.15
655.588	0.15
655.918	0.15
656.249	0.13
656.579	0.15
656.909	0.14
657.24	0.14
657.57	0.15
657.9	0.15
658.23	0.15
658.56	0.15
658.89	0.15
659.22	0.14
659.55	0.15
659.88	0.15
660.209	0.15
660.539	0.16
660.869	0.15
661.198	0.14
661.528	0.14
661.857	0.14
662.187	0.14
662.516	0.14
662.846	0.14
663.175	0.14
663.504	0.14
663.833	0.13
664.163	0.14
664.492	0.14
664.821	0.14
665.15	0.14
665.479	0.14
665.807	0.14
666.136	0.15
666.465	0.14
666.794	0.14
667.122	0.14
667.451	0.14
667.78	0.14
668.108	0.15
668.437	0.15
668.765	0.14
669.093	0.14
669.422	0.14
669.75	0.14
670.078	0.14
670.406	0.15
670.734	0.14
671.062	0.14
671.39	0.14
671.718	0.14
672.046	0.13
672.374	0.13
672.702	0.14
673.029	0.14
673.357	0.13
673.685	0.14
674.012	0.14
674.34	0.14
674.667	0.14
674.995	0.13
675.322	0.14
675.649	0.13
675.977	0.14
676.304	0.13
676.631	0.13
676.958	0.13
677.285	0.13
677.612	0.13
677.939	0.13
678.266	0.14
678.593	0.13
678.92	0.14
679.246	0.13
679.573	0.13
679.9	0.12
680.226	0.13
680.553	0.13
680.879	0.13
681.206	0.13
681.532	0.13
681.858	0.13
682.184	0.13
682.511	0.13
682.837	0.13
683.163	0.13
683.489	0.14
683.815	0.13
684.141	0.13
684.467	0.13
684.793	0.12
685.118	0.13
685.444	0.13
685.77	0.12
686.095	0.13
686.421	0.12
686.746	0.13
687.072	0.12
687.397	0.12
687.723	0.13
688.048	0.12
688.373	0.12
688.698	0.12
689.023	0.12
689.349	0.13
689.674	0.12
689.999	0.12
690.323	0.11
690.648	0.12
690.973	0.11
691.298	0.11
691.623	0.11
691.947	0.12
692.272	0.12
692.596	0.12
692.921	0.12
693.245	0.12
693.57	0.12
693.894	0.13
694.218	0.12
694.543	0.12
694.867	0.12
695.191	0.12
695.515	0.13
695.839	0.12
696.163	0.12
696.487	0.12
696.811	0.11
697.135	0.12
697.458	0.12
697.782	0.12
698.106	0.12
698.429	0.12
698.753	0.12
699.076	0.12
699.4	0.12
699.723	0.11
700.046	0.11
700.37	0.12
700.693	0.12
701.016	0.11
701.339	0.12
701.662	0.12
701.985	0.12
702.308	0.12
702.631	0.12
702.954	0.12
703.277	0.12
703.599	0.12
703.922	0.11
704.245	0.11
704.567	0.11
704.89	0.1
705.212	0.11
705.535	0.11
705.857	0.11
706.179	0.1
706.502	0.1
706.824	0.09
707.146	0.1
707.468	0.11
707.79	0.11
708.112	0.11
708.434	0.11
708.756	0.11
709.078	0.11
709.399	0.1
709.721	0.11
710.043	0.11
710.364	0.11
710.686	0.12
711.007	0.1
711.329	0.12
711.65	0.11
711.972	0.11
712.293	0.12
712.614	0.12
712.935	0.12
713.256	0.11
713.577	0.11
713.898	0.11
714.219	0.1
714.54	0.1
714.861	0.1
715.182	0.1
715.503	0.09
715.823	0.1
716.144	0.1
716.464	0.1
716.785	0.1
717.105	0.09
717.426	0.1
717.746	0.1
718.066	0.09
718.387	0.09
718.707	0.09
719.027	0.1
719.347	0.09
719.667	0.1
719.987	0.09
720.307	0.09
720.627	0.09
720.947	0.09
721.266	0.09
721.586	0.09
721.906	0.09
722.225	0.08
722.545	0.09
722.864	0.09
723.184	0.1
723.503	0.09
723.823	0.09
724.142	0.09
724.461	0.09
724.78	0.09
725.099	0.09
725.418	0.09
725.737	0.09
726.056	0.1
726.375	0.1
726.694	0.09
727.013	0.09
727.331	0.08
727.65	0.09
727.969	0.09
728.287	0.09
728.606	0.09
728.924	0.08
729.242	0.09
729.561	0.09
729.879	0.09
730.197	0.09
730.515	0.08
730.834	0.09
731.152	0.09
731.47	0.09
731.788	0.09
732.105	0.08
732.423	0.09
732.741	0.08
733.059	0.08
733.376	0.09
733.694	0.08
734.012	0.08
734.329	0.09
734.647	0.09
734.964	0.1
735.281	0.09
735.599	0.09
735.916	0.1
736.233	0.09
736.55	0.09
736.867	0.09
737.184	0.09
737.501	0.08
737.818	0.09
738.135	0.09
738.452	0.09
738.768	0.09
739.085	0.09
739.402	0.08
739.718	0.09
740.035	0.09
740.351	0.09
740.668	0.09
740.984	0.09
741.3	0.08
741.617	0.09
741.933	0.08
742.249	0.09
742.565	0.08
742.881	0.09
743.197	0.09
743.513	0.09
743.829	0.08
744.144	0.08
744.46	0.08
744.776	0.09
745.091	0.08
745.407	0.08
745.722	0.08
746.038	0.07
746.353	0.07
746.669	0.08
746.984	0.07
747.299	0.07
747.614	0.08
747.93	0.08
748.245	0.07
748.56	0.08
748.875	0.07
749.189	0.07
749.504	0.07
749.819	0.08
750.134	0.07
750.448	0.08
750.763	0.08
751.078	0.06
751.392	0.07
751.707	0.08
752.021	0.09
752.335	0.08
752.65	0.08
752.964	0.08
753.278	0.08
753.592	0.08
753.906	0.07
754.22	0.07
754.534	0.08
754.848	0.07
755.162	0.08
755.476	0.08
755.789	0.09
756.103	0.07
756.417	0.08
756.73	0.08
757.044	0.08
757.357	0.07
757.671	0.08
757.984	0.08
758.297	0.08
758.61	0.08
758.924	0.08
759.237	0.08
759.55	0.07
759.863	0.07
760.176	0.08
760.488	0.07
760.801	0.07
761.114	0.07
761.427	0.07
761.739	0.08
762.052	0.06
762.365	0.07
762.677	0.07
762.99	0.06
763.302	0.07
763.614	0.06
763.926	0.07
764.239	0.07
764.551	0.06
764.863	0.07
765.175	0.08
765.487	0.07
765.799	0.07
766.111	0.06
766.423	0.07
766.734	0.07
767.046	0.06
767.358	0.08
767.669	0.07
767.981	0.07
768.292	0.07
768.604	0.07
768.915	0.07
769.226	0.06
769.537	0.06
769.849	0.08
770.16	0.07
770.471	0.06
770.782	0.07
771.093	0.07
771.404	0.06
771.715	0.06
772.025	0.07
772.336	0.06
772.647	0.06
772.957	0.06
773.268	0.07
773.578	0.06
773.889	0.08
774.199	0.08
774.51	0.07
774.82	0.07
775.13	0.07
775.44	0.06
775.75	0.08
776.06	0.07
776.37	0.06
776.68	0.07
776.99	0.07
777.3	0.06
777.61	0.07
777.92	0.07
778.229	0.06
778.539	0.07
778.848	0.07
779.158	0.07
779.467	0.07
779.777	0.06
780.086	0.07
780.395	0.05
780.704	0.06
781.013	0.05
781.323	0.06
781.632	0.06
781.941	0.06
782.249	0.06
782.558	0.06
782.867	0.07
783.176	0.05
783.485	0.05
783.793	0.06
784.102	0.06
784.41	0.05
784.719	0.05
785.027	0.05
785.335	0.06
785.644	0.06
785.952	0.05
786.26	0.06
786.568	0.06
786.876	0.05
787.184	0.06
787.492	0.06
787.8	0.06
788.108	0.06
788.416	0.06
788.723	0.06
789.031	0.05
789.338	0.06
789.646	0.06
789.953	0.06
790.261	0.06
790.568	0.06
790.876	0.06
791.183	0.06
791.49	0.05
791.797	0.06
792.104	0.05
792.411	0.06
792.718	0.05
793.025	0.06
793.332	0.06
793.639	0.07
793.945	0.07
794.252	0.06
794.559	0.07
794.865	0.06
795.172	0.07
795.478	0.06
795.784	0.07
796.091	0.06
796.397	0.07
796.703	0.06
797.009	0.07
797.315	0.07
797.622	0.07
797.927	0.07
798.233	0.06
798.539	0.08
798.845	0.08
799.151	0.06
799.456	0.08
799.762	0.06
800.068	0.07
800.373	0.08
800.679	0.06
800.984	0.07
801.289	0.07
801.595	0.07
801.9	0.07
802.205	0.07
802.51	0.07
802.815	0.07
803.12	0.07
803.425	0.07
803.73	0.06
804.035	0.07
804.339	0.06
804.644	0.06
804.949	0.07
805.253	0.06
805.558	0.07
805.862	0.06
806.167	0.06
806.471	0.05
806.775	0.07
807.08	0.07
807.384	0.06
807.688	0.06
807.992	0.06
808.296	0.05
808.6	0.06
808.904	0.06
809.207	0.06
809.511	0.07
809.815	0.07
810.119	0.06
810.422	0.07
810.726	0.08
811.029	0.07
811.332	0.07
811.636	0.08
811.939	0.07
812.242	0.07
812.546	0.07
812.849	0.07
813.152	0.07
813.455	0.07
813.758	0.07
814.06	0.07
814.363	0.08
814.666	0.08
814.969	0.07
815.271	0.07
815.574	0.07
815.877	0.07
816.179	0.07
816.481	0.06
816.784	0.07
817.086	0.07
817.388	0.06
817.69	0.06
817.993	0.05
818.295	0.06
818.597	0.06
818.899	0.06
819.2	0.05
819.502	0.05
819.804	0.06
820.106	0.05
820.407	0.04
820.709	0.05
821.01	0.06
821.312	0.06
821.613	0.05
821.915	0.05
822.216	0.05
822.517	0.04
822.818	0.04
823.119	0.05
823.42	0.05
823.721	0.04
824.022	0.04
824.323	0.05
824.624	0.04
824.925	0.05
825.226	0.05
825.526	0.05
825.827	0.05
826.127	0.05
826.428	0.05
826.728	0.04
827.028	0.04
827.329	0.04
827.629	0.04
827.929	0.04
828.229	0.04
828.529	0.05
828.829	0.04
829.129	0.04
829.429	0.05
829.729	0.04
830.029	0.04
830.328	0.05
830.628	0.04
830.927	0.03
831.227	0.04
831.526	0.05
831.826	0.04
832.125	0.04
832.424	0.04
832.724	0.04
833.023	0.04
833.322	0.04
833.621	0.03
833.92	0.03
834.219	0.03
834.518	0.03
834.816	0.02
835.115	0.03
835.414	0.03
835.712	0.03
836.011	0.02
836.309	0.03
836.608	0.02
836.906	0.02
837.205	0.01
837.503	0.02
837.801	0.01
838.099	0
838.397	-0
838.695	0
838.993	0
839.291	-0.01
839.589	0
839.887	0
840.184	-0.01
840.482	-0
840.78	-0
841.077	-0.01
841.375	-0
841.672	-0
841.969	-0.01
842.267	-0.01
842.564	-0
842.861	0
843.158	-0.01
843.455	-0.02
843.752	-0.01
844.049	-0.01
844.346	0
844.643	-0.02
844.94	-0.02
845.236	-0.01
845.533	-0.02
845.83	-0.02
846.126	-0.02
846.423	-0.02
846.719	-0.03
847.015	-0.02
847.312	-0.03
847.608	-0.03
847.904	-0.03
848.2	-0.03
848.496	-0.03
848.792	-0.02
849.088	-0.02
849.384	-0.03
849.68	-0.03
849.975	-0.03
850.271	-0.04
850.567	-0.03
850.862	-0.05
851.158	-0.04
851.453	-0.04
851.748	-0.05
852.044	-0.05
852.339	-0.04
852.634	-0.06
852.929	-0.05
853.224	-0.05
853.519	-0.04
853.814	-0.05
854.109	-0.05
854.404	-0.05
854.699	-0.05
854.994	-0.05
855.288	-0.04
855.583	-0.04
855.877	-0.06
856.172	-0.05
856.466	-0.07
856.76	-0.06
857.055	-0.06
857.349	-0.07
857.643	-0.08
857.937	-0.08
858.231	-0.08
858.525	-0.08
858.819	-0.09
859.113	-0.1
859.407	-0.09
859.701	-0.1
859.994	-0.1
860.288	-0.09
860.581	-0.1
860.875	-0.1
861.168	-0.1
861.462	-0.1
861.755	-0.09
862.048	-0.1
862.341	-0.11
862.634	-0.1
862.928	-0.09
863.221	-0.1
863.513	-0.11
863.806	-0.11
864.099	-0.11
864.392	-0.1
864.685	-0.1
864.977	-0.1
865.27	-0.11
865.562	-0.11
865.855	-0.11
866.147	-0.11
866.44	-0.1
866.732	-0.12
867.024	-0.13
867.316	-0.12
867.608	-0.12
867.9	-0.11
868.192	-0.11
868.484	-0.12
868.776	-0.12
869.068	-0.13
869.359	-0.13
869.651	-0.14
869.943	-0.14
870.234	-0.14
870.526	-0.13
870.817	-0.15
871.108	-0.13
871.4	-0.13
871.691	-0.14
871.982	-0.15
872.273	-0.15
872.564	-0.14
872.855	-0.15
873.146	-0.15
873.437	-0.15
873.728	-0.18
874.019	-0.15
874.309	-0.15
874.6	-0.17
874.89	-0.16
875.181	-0.16
875.471	-0.16
875.762	-0.15
876.052	-0.17
876.342	-0.15
876.632	-0.16
876.922	-0.15
877.213	-0.16
877.503	-0.18
877.792	-0.16
878.082	-0.17
878.372	-0.17
878.662	-0.18
878.952	-0.18
879.241	-0.16
879.531	-0.16
879.82	-0.16
880.11	-0.15
880.399	-0.16
880.688	-0.14
880.978	-0.14
881.267	-0.14
