Data from 12-12-AQDScycling_Absorbance__329__00329.txt Node

Date: Tue Dec 12 12:18:59 EST 2023
User: kyuminlee
Spectrometer: FLMS00943
Trigger mode: 0
Integration Time (sec): 1.000000E-1
Scans to average: 1
Electric dark correction enabled: true
Nonlinearity correction enabled: false
Boxcar width: 0
XAxis mode: Wavelengths
Number of Pixels in Spectrum: 2048
>>>>>Begin Spectral Data<<<<<
179.651	-0
180.037	-0
180.424	-0
180.81	0.14
181.197	0.52
181.583	-0
181.97	-0.52
182.356	-0
182.743	-0
183.129	0.9
183.515	-0
183.901	-2.62
184.288	0.07
184.674	-0
185.06	-0
185.446	-0.24
185.832	-0.65
186.218	-0.09
186.604	-0
186.99	-0
187.376	1.02
187.762	-0.32
188.148	0.42
188.534	-0.12
188.92	0.1
189.305	-0.04
189.691	0.2
190.077	0.08
190.463	0.01
190.848	-0.04
191.234	0.06
191.619	0.03
192.005	0.03
192.391	0.17
192.776	0.09
193.161	0.05
193.547	0.08
193.932	-0.05
194.318	0.04
194.703	0.11
195.088	0.09
195.473	0.1
195.859	0.18
196.244	0.2
196.629	0.1
197.014	0.08
197.399	-0.02
197.784	-0
198.169	0.09
198.554	0.11
198.939	0.12
199.324	0.13
199.709	0.06
200.094	0.04
200.478	-0.05
200.863	0.16
201.248	0.08
201.633	0.1
202.017	0.16
202.402	0.27
202.787	0.02
203.171	0.07
203.556	0.27
203.94	0.19
204.325	0.25
204.709	0.15
205.093	-0
205.478	0.1
205.862	0.15
206.246	0.25
206.631	0.23
207.015	-0.04
207.399	0.16
207.783	0.16
208.167	0.11
208.551	0.23
208.935	0.25
209.319	0.14
209.703	0.14
210.087	0.16
210.471	0.04
210.855	0.11
211.239	0.19
211.623	0.27
212.007	0.08
212.39	0.33
212.774	0.06
213.158	0.03
213.541	0.14
213.925	0.18
214.309	0.13
214.692	0.18
215.076	0.17
215.459	0.19
215.842	0.16
216.226	0.19
216.609	0.31
216.993	0.22
217.376	0.38
217.759	0.27
218.142	0.24
218.525	0.3
218.909	0.35
219.292	0.24
219.675	0.38
220.058	0.43
220.441	0.4
220.824	0.43
221.207	0.43
221.59	0.44
221.973	0.47
222.355	0.59
222.738	0.69
223.121	0.52
223.504	0.52
223.886	0.63
224.269	0.64
224.652	0.65
225.034	0.65
225.417	0.7
225.799	0.73
226.182	0.81
226.564	0.73
226.947	0.68
227.329	0.81
227.711	0.91
228.094	1.04
228.476	0.78
228.858	0.75
229.24	0.75
229.623	0.92
230.005	0.72
230.387	0.79
230.769	0.77
231.151	0.9
231.533	0.83
231.915	0.96
232.297	0.86
232.679	0.93
233.061	0.92
233.442	0.99
233.824	0.98
234.206	1.09
234.588	1.02
234.969	0.96
235.351	0.87
235.733	1.03
236.114	1.24
236.496	0.98
236.877	0.99
237.259	1.06
237.64	1.03
238.022	0.87
238.403	0.99
238.784	1.01
239.165	0.91
239.547	1.07
239.928	0.91
240.309	0.91
240.69	1.11
241.071	1.07
241.452	1.09
241.834	1.07
242.215	1.04
242.595	1.06
242.976	1.19
243.357	1.11
243.738	1.02
244.119	1.32
244.5	1.07
244.881	1.22
245.261	1.1
245.642	1.16
246.023	1.07
246.403	1.09
246.784	1.19
247.164	1.28
247.545	1.22
247.925	1.21
248.306	1.18
248.686	1.22
249.067	1.15
249.447	1.28
249.827	1.49
250.207	1.29
250.588	1.33
250.968	1.33
251.348	1.46
251.728	1.5
252.108	1.38
252.488	1.29
252.868	1.31
253.248	1.45
253.628	1.28
254.008	1.52
254.388	1.25
254.768	1.21
255.147	1.45
255.527	1.35
255.907	1.33
256.287	1.4
256.666	1.33
257.046	1.45
257.425	1.35
257.805	1.27
258.184	1.34
258.564	1.3
258.943	1.3
259.323	1.49
259.702	1.43
260.081	1.4
260.461	1.47
260.84	1.39
261.219	1.53
261.598	1.41
261.977	1.42
262.356	1.42
262.736	1.47
263.115	1.59
263.494	1.39
263.873	1.35
264.251	1.33
264.63	1.57
265.009	1.5
265.388	1.37
265.767	1.3
266.145	1.31
266.524	1.34
266.903	1.37
267.281	1.36
267.66	1.42
268.039	1.47
268.417	1.38
268.796	1.42
269.174	1.33
269.552	1.33
269.931	1.41
270.309	1.47
270.687	1.35
271.066	1.44
271.444	1.36
271.822	1.42
272.2	1.35
272.578	1.39
272.956	1.34
273.334	1.34
273.712	1.28
274.09	1.33
274.468	1.27
274.846	1.34
275.224	1.29
275.602	1.39
275.98	1.74
276.357	1.32
276.735	1.41
277.113	1.34
277.49	1.35
277.868	1.31
278.246	1.28
278.623	1.25
279.001	1.36
279.378	1.46
279.756	1.55
280.133	1.56
280.51	1.27
280.888	1.44
281.265	1.37
281.642	1.43
282.019	1.56
282.396	1.63
282.773	1.34
283.151	1.4
283.528	1.42
283.905	1.34
284.282	1.57
284.659	1.53
285.035	1.33
285.412	1.3
285.789	1.34
286.166	1.42
286.543	1.44
286.919	1.41
287.296	1.37
287.673	1.52
288.049	1.47
288.426	1.52
288.802	1.45
289.179	1.38
289.555	1.52
289.932	1.39
290.308	1.25
290.684	1.26
291.061	1.33
291.437	1.4
291.813	1.41
292.189	1.23
292.565	1.34
292.942	1.26
293.318	1.26
293.694	1.38
294.07	1.26
294.446	1.35
294.822	1.54
295.197	1.28
295.573	1.42
295.949	1.36
296.325	1.37
296.701	1.45
297.076	1.43
297.452	1.44
297.828	1.38
298.203	1.45
298.579	1.35
298.954	1.32
299.33	1.25
299.705	1.34
300.081	1.36
300.456	1.28
300.831	1.27
301.206	1.16
301.582	1.25
301.957	1.21
302.332	1.22
302.707	1.17
303.082	1.21
303.457	1.18
303.832	1.12
304.207	1.08
304.582	1.09
304.957	1.08
305.332	1.16
305.707	1.05
306.082	1.07
306.456	1.11
306.831	0.98
307.206	1
307.58	1.06
307.955	0.99
308.33	0.94
308.704	0.95
309.079	0.92
309.453	0.97
309.828	0.91
310.202	0.88
310.576	0.88
310.951	0.88
311.325	0.88
311.699	0.86
312.073	0.84
312.447	0.85
312.821	0.8
313.196	0.85
313.57	0.77
313.944	0.8
314.317	0.77
314.691	0.79
315.065	0.81
315.439	0.76
315.813	0.77
316.187	0.74
316.56	0.77
316.934	0.76
317.308	0.74
317.681	0.77
318.055	0.75
318.428	0.75
318.802	0.74
319.175	0.71
319.549	0.71
319.922	0.71
320.295	0.72
320.669	0.7
321.042	0.73
321.415	0.72
321.788	0.69
322.162	0.71
322.535	0.72
322.908	0.68
323.281	0.71
323.654	0.72
324.027	0.69
324.4	0.69
324.773	0.74
325.145	0.72
325.518	0.68
325.891	0.68
326.264	0.7
326.636	0.7
327.009	0.7
327.382	0.71
327.754	0.72
328.127	0.68
328.499	0.72
328.872	0.76
329.244	0.74
329.616	0.74
329.989	0.75
330.361	0.76
330.733	0.74
331.106	0.73
331.478	0.77
331.85	0.73
332.222	0.72
332.594	0.76
332.966	0.76
333.338	0.81
333.71	0.8
334.082	0.83
334.454	0.78
334.826	0.82
335.197	0.82
335.569	0.83
335.941	0.82
336.312	0.86
336.684	0.86
337.056	0.86
337.427	0.88
337.799	0.88
338.17	0.89
338.542	0.89
338.913	0.9
339.284	0.94
339.656	0.89
340.027	0.94
340.398	0.91
340.769	0.92
341.141	0.95
341.512	0.92
341.883	0.95
342.254	0.97
342.625	0.96
342.996	1
343.367	0.98
343.738	0.99
344.108	0.97
344.479	1.06
344.85	1.02
345.221	1.05
345.591	1.02
345.962	1.03
346.333	1.13
346.703	1.01
347.074	1.09
347.444	1.11
347.815	1.1
348.185	1.16
348.556	1.08
348.926	1.08
349.296	1.17
349.666	1.15
350.037	1.07
350.407	1.07
350.777	1.15
351.147	1.16
351.517	1.17
351.887	1.18
352.257	1.21
352.627	1.21
352.997	1.28
353.367	1.26
353.737	1.35
354.106	1.26
354.476	1.26
354.846	1.41
355.216	1.31
355.585	1.34
355.955	1.36
356.324	1.41
356.694	1.35
357.063	1.42
357.433	1.39
357.802	1.39
358.171	1.53
358.541	1.39
358.91	1.57
359.279	1.51
359.648	1.33
360.017	1.46
360.387	1.45
360.756	1.37
361.125	1.41
361.494	1.4
361.863	1.45
362.231	1.55
362.6	1.55
362.969	1.48
363.338	1.53
363.707	1.52
364.075	1.49
364.444	1.38
364.813	1.39
365.181	1.54
365.55	1.49
365.918	1.6
366.287	1.46
366.655	1.58
367.024	1.51
367.392	1.51
367.76	1.39
368.128	1.54
368.497	1.57
368.865	1.53
369.233	1.51
369.601	1.51
369.969	1.69
370.337	1.49
370.705	1.42
371.073	1.48
371.441	1.43
371.809	1.49
372.177	1.39
372.544	1.68
372.912	1.6
373.28	1.54
373.647	1.58
374.015	1.67
374.383	1.72
374.75	1.7
375.118	1.49
375.485	1.57
375.853	1.56
376.22	1.43
376.587	1.53
376.955	1.48
377.322	1.54
377.689	1.57
378.056	1.47
378.423	1.42
378.79	1.48
379.157	1.45
379.524	1.5
379.891	1.42
380.258	1.59
380.625	1.41
380.992	1.5
381.359	1.44
381.726	1.72
382.092	1.43
382.459	1.58
382.826	1.43
383.192	1.59
383.559	1.46
383.925	1.49
384.292	1.53
384.658	1.74
385.025	1.48
385.391	1.54
385.757	1.63
386.123	1.55
386.49	1.51
386.856	1.59
387.222	1.62
387.588	1.66
387.954	1.6
388.32	1.6
388.686	1.56
389.052	1.46
389.418	1.63
389.784	1.53
390.15	1.63
390.515	1.39
390.881	1.49
391.247	1.42
391.613	1.5
391.978	1.44
392.344	1.5
392.709	1.48
393.075	1.68
393.44	1.54
393.806	1.45
394.171	1.46
394.536	1.48
394.902	1.61
395.267	1.53
395.632	1.45
395.997	1.57
396.362	1.5
396.727	1.55
397.092	1.54
397.457	1.53
397.822	1.55
398.187	1.63
398.552	1.55
398.917	1.54
399.282	1.42
399.646	1.38
400.011	1.52
400.376	1.54
400.74	1.41
401.105	1.5
401.47	1.64
401.834	1.6
402.199	1.52
402.563	1.48
402.927	1.46
403.292	1.58
403.656	1.46
404.02	1.57
404.384	1.78
404.749	1.59
405.113	1.56
405.477	1.61
405.841	1.48
406.205	1.56
406.569	1.47
406.933	1.57
407.296	1.58
407.66	1.54
408.024	1.49
408.388	1.71
408.752	1.53
409.115	1.63
409.479	1.56
409.842	1.48
410.206	1.5
410.569	1.53
410.933	1.52
411.296	1.45
411.66	1.53
412.023	1.34
412.386	1.47
412.749	1.46
413.113	1.49
413.476	1.46
413.839	1.45
414.202	1.55
414.565	1.41
414.928	1.54
415.291	1.32
415.654	1.44
416.017	1.64
416.38	1.42
416.742	1.4
417.105	1.35
417.468	1.39
417.83	1.41
418.193	1.56
418.556	1.49
418.918	1.46
419.281	1.55
419.643	1.59
420.005	1.58
420.368	1.51
420.73	1.46
421.092	1.55
421.455	1.48
421.817	1.43
422.179	1.47
422.541	1.57
422.903	1.6
423.265	1.44
423.627	1.45
423.989	1.53
424.351	1.41
424.713	1.53
425.075	1.49
425.436	1.5
425.798	1.51
426.16	1.57
426.521	1.5
426.883	1.62
427.245	1.43
427.606	1.45
427.967	1.37
428.329	1.52
428.69	1.58
429.052	1.47
429.413	1.65
429.774	1.46
430.135	1.54
430.497	1.69
430.858	1.44
431.219	1.56
431.58	1.47
431.941	1.52
432.302	1.39
432.663	1.5
433.024	1.65
433.384	1.5
433.745	1.45
434.106	1.49
434.467	1.45
434.827	1.55
435.188	1.48
435.548	1.53
435.909	1.54
436.269	1.49
436.63	1.45
436.99	1.54
437.351	1.36
437.711	1.43
438.071	1.48
438.431	1.37
438.792	1.46
439.152	1.46
439.512	1.44
439.872	1.43
440.232	1.42
440.592	1.49
440.952	1.44
441.312	1.45
441.671	1.38
442.031	1.44
442.391	1.38
442.751	1.46
443.11	1.46
443.47	1.43
443.83	1.33
444.189	1.37
444.549	1.41
444.908	1.35
445.267	1.4
445.627	1.38
445.986	1.33
446.345	1.28
446.705	1.37
447.064	1.32
447.423	1.32
447.782	1.38
448.141	1.33
448.5	1.29
448.859	1.32
449.218	1.33
449.577	1.39
449.936	1.3
450.295	1.29
450.653	1.3
451.012	1.3
451.371	1.29
451.729	1.29
452.088	1.34
452.447	1.31
452.805	1.23
453.163	1.27
453.522	1.26
453.88	1.22
454.239	1.25
454.597	1.22
454.955	1.16
455.313	1.19
455.671	1.19
456.029	1.2
456.388	1.15
456.746	1.14
457.104	1.15
457.461	1.1
457.819	1.11
458.177	1.1
458.535	1.07
458.893	1.08
459.25	1.07
459.608	1.04
459.966	1.02
460.323	1.02
460.681	1
461.038	0.99
461.396	0.97
461.753	0.96
462.111	0.94
462.468	0.94
462.825	0.92
463.182	0.91
463.54	0.89
463.897	0.89
464.254	0.88
464.611	0.85
464.968	0.85
465.325	0.86
465.682	0.83
466.039	0.83
466.395	0.79
466.752	0.8
467.109	0.76
467.466	0.77
467.822	0.74
468.179	0.75
468.535	0.73
468.892	0.72
469.248	0.7
469.605	0.69
469.961	0.68
470.318	0.69
470.674	0.67
471.03	0.66
471.386	0.65
471.743	0.63
472.099	0.62
472.455	0.62
472.811	0.6
473.167	0.59
473.523	0.58
473.879	0.57
474.235	0.56
474.59	0.55
474.946	0.53
475.302	0.53
475.657	0.52
476.013	0.5
476.369	0.49
476.724	0.49
477.08	0.49
477.435	0.47
477.791	0.47
478.146	0.47
478.501	0.45
478.857	0.45
479.212	0.43
479.567	0.42
479.922	0.41
480.277	0.42
480.632	0.4
480.987	0.4
481.342	0.39
481.697	0.37
482.052	0.37
482.407	0.36
482.762	0.36
483.116	0.34
483.471	0.33
483.826	0.33
484.18	0.33
484.535	0.32
484.89	0.31
485.244	0.31
485.598	0.3
485.953	0.29
486.307	0.29
486.661	0.3
487.016	0.28
487.37	0.28
487.724	0.27
488.078	0.26
488.432	0.26
488.786	0.25
489.14	0.25
489.494	0.24
489.848	0.23
490.202	0.23
490.556	0.23
490.91	0.23
491.263	0.22
491.617	0.21
491.971	0.21
492.324	0.21
492.678	0.21
493.031	0.2
493.385	0.2
493.738	0.2
494.091	0.2
494.445	0.19
494.798	0.18
495.151	0.18
495.504	0.17
495.857	0.18
496.21	0.17
496.564	0.17
496.916	0.17
497.269	0.16
497.622	0.17
497.975	0.16
498.328	0.16
498.681	0.16
499.033	0.15
499.386	0.14
499.739	0.14
500.091	0.14
500.444	0.14
500.796	0.14
501.149	0.13
501.501	0.13
501.854	0.14
502.206	0.13
502.558	0.13
502.91	0.13
503.263	0.12
503.615	0.12
503.967	0.12
504.319	0.12
504.671	0.11
505.023	0.11
505.375	0.11
505.726	0.11
506.078	0.11
506.43	0.11
506.782	0.11
507.133	0.1
507.485	0.1
507.837	0.11
508.188	0.11
508.54	0.11
508.891	0.11
509.243	0.1
509.594	0.1
509.945	0.1
510.296	0.09
510.648	0.09
510.999	0.09
511.35	0.1
511.701	0.09
512.052	0.09
512.403	0.09
512.754	0.09
513.105	0.09
513.456	0.08
513.807	0.09
514.157	0.09
514.508	0.09
514.859	0.08
515.209	0.09
515.56	0.09
515.91	0.08
516.261	0.08
516.611	0.08
516.962	0.08
517.312	0.08
517.662	0.07
518.013	0.08
518.363	0.08
518.713	0.08
519.063	0.08
519.413	0.07
519.763	0.08
520.113	0.08
520.463	0.08
520.813	0.09
521.163	0.08
521.512	0.08
521.862	0.08
522.212	0.08
522.562	0.08
522.911	0.07
523.261	0.07
523.61	0.07
523.96	0.07
524.309	0.08
524.658	0.08
525.008	0.07
525.357	0.07
525.706	0.08
526.056	0.07
526.405	0.07
526.754	0.07
527.103	0.07
527.452	0.07
527.801	0.07
528.15	0.08
528.499	0.07
528.847	0.07
529.196	0.07
529.545	0.07
529.893	0.07
530.242	0.07
530.591	0.07
530.939	0.08
531.288	0.08
531.636	0.08
531.985	0.08
532.333	0.07
532.681	0.07
533.029	0.07
533.378	0.07
533.726	0.07
534.074	0.08
534.422	0.07
534.77	0.08
535.118	0.07
535.466	0.07
535.814	0.07
536.162	0.07
536.509	0.08
536.857	0.08
537.205	0.08
537.552	0.07
537.9	0.07
538.248	0.07
538.595	0.07
538.943	0.07
539.29	0.08
539.637	0.07
539.985	0.07
540.332	0.07
540.679	0.07
541.026	0.06
541.373	0.07
541.721	0.06
542.068	0.07
542.415	0.07
542.762	0.06
543.108	0.05
543.455	0.06
543.802	0.05
544.149	0.05
544.496	0.06
544.842	0.06
545.189	0.05
545.535	0.05
545.882	0.06
546.228	0.06
546.575	0.05
546.921	0.06
547.267	0.05
547.614	0.06
547.96	0.05
548.306	0.06
548.652	0.05
548.998	0.06
549.344	0.05
549.69	0.05
550.036	0.05
550.382	0.05
550.728	0.05
551.074	0.07
551.42	0.06
551.765	0.06
552.111	0.07
552.457	0.07
552.802	0.06
553.148	0.06
553.493	0.06
553.839	0.07
554.184	0.07
554.529	0.05
554.875	0.06
555.22	0.07
555.565	0.06
555.91	0.06
556.255	0.07
556.6	0.07
556.945	0.06
557.29	0.06
557.635	0.06
557.98	0.06
558.325	0.06
558.67	0.06
559.014	0.06
559.359	0.07
559.704	0.07
560.048	0.06
560.393	0.06
560.737	0.05
561.082	0.07
561.426	0.05
561.77	0.06
562.115	0.05
562.459	0.05
562.803	0.05
563.147	0.05
563.491	0.06
563.835	0.06
564.179	0.05
564.523	0.05
564.867	0.05
565.211	0.06
565.555	0.05
565.899	0.06
566.242	0.06
566.586	0.05
566.93	0.06
567.273	0.06
567.617	0.06
567.96	0.06
568.304	0.06
568.647	0.06
568.99	0.06
569.334	0.07
569.677	0.06
570.02	0.06
570.363	0.07
570.706	0.05
571.049	0.06
571.392	0.06
571.735	0.06
572.078	0.06
572.421	0.07
572.764	0.06
573.106	0.06
573.449	0.05
573.792	0.05
574.134	0.05
574.477	0.06
574.819	0.06
575.162	0.05
575.504	0.05
575.847	0.06
576.189	0.05
576.531	0.06
576.873	0.05
577.215	0.05
577.558	0.06
577.9	0.05
578.242	0.06
578.584	0.06
578.926	0.06
579.267	0.05
579.609	0.06
579.951	0.06
580.293	0.06
580.634	0.06
580.976	0.06
581.318	0.05
581.659	0.05
582.001	0.06
582.342	0.05
582.683	0.06
583.025	0.05
583.366	0.06
583.707	0.05
584.049	0.06
584.39	0.05
584.731	0.05
585.072	0.05
585.413	0.06
585.754	0.06
586.095	0.06
586.435	0.06
586.776	0.06
587.117	0.06
587.458	0.05
587.798	0.05
588.139	0.06
588.48	0.05
588.82	0.05
589.161	0.05
589.501	0.05
589.841	0.05
590.182	0.06
590.522	0.05
590.862	0.06
591.202	0.05
591.542	0.05
591.882	0.05
592.222	0.05
592.562	0.05
592.902	0.05
593.242	0.05
593.582	0.06
593.922	0.05
594.261	0.05
594.601	0.05
594.941	0.05
595.28	0.06
595.62	0.05
595.959	0.05
596.299	0.05
596.638	0.05
596.977	0.05
597.317	0.06
597.656	0.06
597.995	0.05
598.334	0.06
598.673	0.05
599.012	0.06
599.351	0.06
599.69	0.05
600.029	0.06
600.368	0.06
600.707	0.06
601.046	0.05
601.384	0.06
601.723	0.06
602.061	0.05
602.4	0.05
602.738	0.06
603.077	0.06
603.415	0.05
603.754	0.06
604.092	0.06
604.43	0.06
604.768	0.06
605.107	0.06
605.445	0.05
605.783	0.05
606.121	0.04
606.459	0.05
606.796	0.06
607.134	0.05
607.472	0.05
607.81	0.05
608.148	0.04
608.485	0.05
608.823	0.05
609.16	0.05
609.498	0.05
609.835	0.06
610.173	0.05
610.51	0.05
610.847	0.05
611.185	0.06
611.522	0.07
611.859	0.06
612.196	0.06
612.533	0.07
612.87	0.06
613.207	0.07
613.544	0.07
613.881	0.07
614.217	0.06
614.554	0.06
614.891	0.06
615.228	0.07
615.564	0.06
615.901	0.07
616.237	0.06
616.574	0.06
616.91	0.07
617.246	0.06
617.583	0.07
617.919	0.07
618.255	0.07
618.591	0.07
618.927	0.07
619.263	0.07
619.599	0.06
619.935	0.06
620.271	0.07
620.607	0.07
620.943	0.07
621.279	0.07
621.614	0.06
621.95	0.07
622.286	0.06
622.621	0.06
622.957	0.06
623.292	0.05
623.627	0.05
623.963	0.05
624.298	0.05
624.633	0.05
624.968	0.05
625.304	0.05
625.639	0.05
625.974	0.05
626.309	0.05
626.644	0.05
626.979	0.06
627.313	0.06
627.648	0.06
627.983	0.05
628.318	0.05
628.652	0.05
628.987	0.05
629.321	0.05
629.656	0.04
629.99	0.04
630.325	0.05
630.659	0.05
630.993	0.05
631.327	0.06
631.662	0.05
631.996	0.05
632.33	0.05
632.664	0.05
632.998	0.04
633.332	0.05
633.666	0.05
633.999	0.05
634.333	0.04
634.667	0.05
635.001	0.05
635.334	0.04
635.668	0.05
636.001	0.05
636.335	0.05
636.668	0.05
637.001	0.04
637.335	0.05
637.668	0.05
638.001	0.04
638.334	0.05
638.668	0.05
639.001	0.05
639.334	0.04
639.667	0.04
639.999	0.04
640.332	0.04
640.665	0.04
640.998	0.05
641.331	0.04
641.663	0.03
641.996	0.04
642.328	0.05
642.661	0.04
642.993	0.04
643.326	0.04
643.658	0.04
643.99	0.04
644.323	0.03
644.655	0.04
644.987	0.03
645.319	0.05
645.651	0.04
645.983	0.03
646.315	0.04
646.647	0.04
646.979	0.05
647.31	0.05
647.642	0.05
647.974	0.04
648.305	0.05
648.637	0.05
648.968	0.05
649.3	0.05
649.631	0.04
649.963	0.05
650.294	0.05
650.625	0.05
650.957	0.06
651.288	0.06
651.619	0.06
651.95	0.05
652.281	0.06
652.612	0.05
652.943	0.05
653.274	0.06
653.604	0.05
653.935	0.05
654.266	0.05
654.596	0.05
654.927	0.05
655.258	0.06
655.588	0.06
655.918	0.06
656.249	0.04
656.579	0.05
656.909	0.05
657.24	0.05
657.57	0.06
657.9	0.05
658.23	0.05
658.56	0.06
658.89	0.05
659.22	0.05
659.55	0.06
659.88	0.06
660.209	0.06
660.539	0.07
660.869	0.06
661.198	0.07
661.528	0.06
661.857	0.06
662.187	0.06
662.516	0.06
662.846	0.05
663.175	0.06
663.504	0.06
663.833	0.05
664.163	0.06
664.492	0.05
664.821	0.06
665.15	0.05
665.479	0.06
665.807	0.05
666.136	0.06
666.465	0.05
666.794	0.05
667.122	0.05
667.451	0.05
667.78	0.05
668.108	0.05
668.437	0.05
668.765	0.05
669.093	0.05
669.422	0.05
669.75	0.05
670.078	0.05
670.406	0.05
670.734	0.05
671.062	0.05
671.39	0.05
671.718	0.06
672.046	0.06
672.374	0.05
672.702	0.05
673.029	0.05
673.357	0.05
673.685	0.06
674.012	0.05
674.34	0.05
674.667	0.05
674.995	0.06
675.322	0.06
675.649	0.05
675.977	0.06
676.304	0.06
676.631	0.06
676.958	0.06
677.285	0.06
677.612	0.05
677.939	0.06
678.266	0.06
678.593	0.06
678.92	0.05
679.246	0.05
679.573	0.06
679.9	0.05
680.226	0.05
680.553	0.05
680.879	0.05
681.206	0.05
681.532	0.05
681.858	0.05
682.184	0.04
682.511	0.05
682.837	0.04
683.163	0.05
683.489	0.05
683.815	0.04
684.141	0.05
684.467	0.05
684.793	0.04
685.118	0.04
685.444	0.05
685.77	0.04
686.095	0.05
686.421	0.05
686.746	0.06
687.072	0.05
687.397	0.04
687.723	0.06
688.048	0.06
688.373	0.05
688.698	0.06
689.023	0.05
689.349	0.05
689.674	0.05
689.999	0.05
690.323	0.04
690.648	0.04
690.973	0.05
691.298	0.05
691.623	0.05
691.947	0.04
692.272	0.05
692.596	0.05
692.921	0.05
693.245	0.05
693.57	0.05
693.894	0.05
694.218	0.05
694.543	0.05
694.867	0.05
695.191	0.04
695.515	0.04
695.839	0.04
696.163	0.04
696.487	0.05
696.811	0.04
697.135	0.05
697.458	0.05
697.782	0.05
698.106	0.05
698.429	0.05
698.753	0.05
699.076	0.05
699.4	0.04
699.723	0.05
700.046	0.04
700.37	0.05
700.693	0.05
701.016	0.05
701.339	0.05
701.662	0.05
701.985	0.05
702.308	0.04
702.631	0.05
702.954	0.05
703.277	0.05
703.599	0.05
703.922	0.05
704.245	0.04
704.567	0.03
704.89	0.04
705.212	0.04
705.535	0.03
705.857	0.03
706.179	0.04
706.502	0.04
706.824	0.03
707.146	0.03
707.468	0.04
707.79	0.04
708.112	0.04
708.434	0.04
708.756	0.04
709.078	0.05
709.399	0.03
709.721	0.04
710.043	0.04
710.364	0.04
710.686	0.04
711.007	0.04
711.329	0.05
711.65	0.04
711.972	0.04
712.293	0.05
712.614	0.05
712.935	0.04
713.256	0.05
713.577	0.05
713.898	0.04
714.219	0.04
714.54	0.04
714.861	0.04
715.182	0.04
715.503	0.04
715.823	0.04
716.144	0.04
716.464	0.03
716.785	0.04
717.105	0.04
717.426	0.04
717.746	0.03
718.066	0.03
718.387	0.03
718.707	0.03
719.027	0.03
719.347	0.02
719.667	0.04
719.987	0.03
720.307	0.03
720.627	0.03
720.947	0.03
721.266	0.03
721.586	0.03
721.906	0.03
722.225	0.02
722.545	0.03
722.864	0.02
723.184	0.04
723.503	0.03
723.823	0.04
724.142	0.03
724.461	0.02
724.78	0.03
725.099	0.03
725.418	0.03
725.737	0.02
726.056	0.03
726.375	0.04
726.694	0.03
727.013	0.02
727.331	0.02
727.65	0.03
727.969	0.03
728.287	0.03
728.606	0.04
728.924	0.03
729.242	0.03
729.561	0.04
729.879	0.03
730.197	0.03
730.515	0.03
730.834	0.03
731.152	0.03
731.47	0.03
731.788	0.03
732.105	0.02
732.423	0.03
732.741	0.03
733.059	0.03
733.376	0.03
733.694	0.03
734.012	0.02
734.329	0.04
734.647	0.04
734.964	0.04
735.281	0.04
735.599	0.04
735.916	0.04
736.233	0.03
736.55	0.04
736.867	0.04
737.184	0.04
737.501	0.03
737.818	0.03
738.135	0.04
738.452	0.03
738.768	0.04
739.085	0.03
739.402	0.03
739.718	0.04
740.035	0.03
740.351	0.04
740.668	0.04
740.984	0.04
741.3	0.04
741.617	0.04
741.933	0.04
742.249	0.04
742.565	0.04
742.881	0.04
743.197	0.04
743.513	0.03
743.829	0.03
744.144	0.03
744.46	0.04
744.776	0.04
745.091	0.03
745.407	0.03
745.722	0.04
746.038	0.03
746.353	0.02
746.669	0.04
746.984	0.03
747.299	0.03
747.614	0.04
747.93	0.05
748.245	0.03
748.56	0.03
748.875	0.03
749.189	0.03
749.504	0.04
749.819	0.04
750.134	0.04
750.448	0.03
750.763	0.04
751.078	0.03
751.392	0.04
751.707	0.04
752.021	0.04
752.335	0.05
752.65	0.04
752.964	0.04
753.278	0.04
753.592	0.04
753.906	0.03
754.22	0.04
754.534	0.04
754.848	0.04
755.162	0.04
755.476	0.04
755.789	0.04
756.103	0.04
756.417	0.05
756.73	0.04
757.044	0.04
757.357	0.04
757.671	0.04
757.984	0.04
758.297	0.04
758.61	0.04
758.924	0.04
759.237	0.04
759.55	0.04
759.863	0.04
760.176	0.04
760.488	0.04
760.801	0.03
761.114	0.04
761.427	0.04
761.739	0.04
762.052	0.03
762.365	0.04
762.677	0.04
762.99	0.03
763.302	0.04
763.614	0.03
763.926	0.04
764.239	0.03
764.551	0.03
764.863	0.03
765.175	0.04
765.487	0.04
765.799	0.03
766.111	0.03
766.423	0.04
766.734	0.03
767.046	0.03
767.358	0.04
767.669	0.04
767.981	0.03
768.292	0.03
768.604	0.04
768.915	0.03
769.226	0.03
769.537	0.03
769.849	0.04
770.16	0.03
770.471	0.03
770.782	0.03
771.093	0.03
771.404	0.02
771.715	0.03
772.025	0.03
772.336	0.03
772.647	0.03
772.957	0.02
773.268	0.03
773.578	0.03
773.889	0.03
774.199	0.04
774.51	0.03
774.82	0.03
775.13	0.03
775.44	0.03
775.75	0.04
776.06	0.04
776.37	0.03
776.68	0.03
776.99	0.04
777.3	0.03
777.61	0.03
777.92	0.03
778.229	0.03
778.539	0.03
778.848	0.03
779.158	0.03
779.467	0.04
779.777	0.03
780.086	0.04
780.395	0.02
780.704	0.04
781.013	0.03
781.323	0.03
781.632	0.03
781.941	0.04
782.249	0.03
782.558	0.03
782.867	0.03
783.176	0.03
783.485	0.03
783.793	0.03
784.102	0.03
784.41	0.02
784.719	0.03
785.027	0.03
785.335	0.03
785.644	0.03
785.952	0.03
786.26	0.03
786.568	0.02
786.876	0.02
787.184	0.03
787.492	0.03
787.8	0.03
788.108	0.03
788.416	0.03
788.723	0.03
789.031	0.02
789.338	0.03
789.646	0.03
789.953	0.03
790.261	0.03
790.568	0.03
790.876	0.03
791.183	0.03
791.49	0.03
791.797	0.03
792.104	0.02
792.411	0.04
792.718	0.03
793.025	0.03
793.332	0.03
793.639	0.04
793.945	0.04
794.252	0.04
794.559	0.03
794.865	0.03
795.172	0.04
795.478	0.04
795.784	0.04
796.091	0.04
796.397	0.05
796.703	0.05
797.009	0.05
797.315	0.05
797.622	0.04
797.927	0.05
798.233	0.04
798.539	0.06
798.845	0.04
799.151	0.05
799.456	0.04
799.762	0.04
800.068	0.04
800.373	0.05
800.679	0.04
800.984	0.04
801.289	0.04
801.595	0.04
801.9	0.04
802.205	0.03
802.51	0.03
802.815	0.04
803.12	0.03
803.425	0.04
803.73	0.03
804.035	0.03
804.339	0.03
804.644	0.03
804.949	0.04
805.253	0.03
805.558	0.04
805.862	0.04
806.167	0.04
806.471	0.03
806.775	0.04
807.08	0.04
807.384	0.03
807.688	0.04
807.992	0.04
808.296	0.04
808.6	0.05
808.904	0.04
809.207	0.04
809.511	0.05
809.815	0.05
810.119	0.05
810.422	0.04
810.726	0.06
811.029	0.05
811.332	0.05
811.636	0.06
811.939	0.05
812.242	0.05
812.546	0.05
812.849	0.05
813.152	0.05
813.455	0.05
813.758	0.05
814.06	0.05
814.363	0.05
814.666	0.05
814.969	0.05
815.271	0.04
815.574	0.04
815.877	0.04
816.179	0.04
816.481	0.04
816.784	0.04
817.086	0.04
817.388	0.03
817.69	0.04
817.993	0.03
818.295	0.04
818.597	0.04
818.899	0.03
819.2	0.04
819.502	0.03
819.804	0.04
820.106	0.03
820.407	0.03
820.709	0.03
821.01	0.03
821.312	0.03
821.613	0.04
821.915	0.03
822.216	0.04
822.517	0.03
822.818	0.04
823.119	0.03
823.42	0.03
823.721	0.03
824.022	0.03
824.323	0.03
824.624	0.03
824.925	0.03
825.226	0.04
825.526	0.03
825.827	0.03
826.127	0.03
826.428	0.03
826.728	0.02
827.028	0.03
827.329	0.03
827.629	0.02
827.929	0.03
828.229	0.04
828.529	0.03
828.829	0.02
829.129	0.03
829.429	0.03
829.729	0.02
830.029	0.02
830.328	0.03
830.628	0.02
830.927	0.01
831.227	0.02
831.526	0.03
831.826	0.02
832.125	0.01
832.424	0.02
832.724	0.03
833.023	0.02
833.322	0.03
833.621	0.02
833.92	0.02
834.219	0.02
834.518	0.02
834.816	0
835.115	0.01
835.414	0.02
835.712	0.01
836.011	0.01
836.309	0
836.608	0.01
836.906	0.01
837.205	0
837.503	-0
837.801	0
838.099	-0
838.397	-0.01
838.695	-0.01
838.993	0
839.291	-0.01
839.589	-0
839.887	0
840.184	-0.02
840.482	-0.01
840.78	-0.01
841.077	-0.02
841.375	-0.02
841.672	-0.01
841.969	-0.02
842.267	-0.02
842.564	-0.02
842.861	-0.02
843.158	-0.02
843.455	-0.04
843.752	-0.03
844.049	-0.03
844.346	-0.03
844.643	-0.04
844.94	-0.04
845.236	-0.03
845.533	-0.04
845.83	-0.04
846.126	-0.05
846.423	-0.05
846.719	-0.05
847.015	-0.05
847.312	-0.05
847.608	-0.06
847.904	-0.06
848.2	-0.06
848.496	-0.06
848.792	-0.05
849.088	-0.05
849.384	-0.06
849.68	-0.06
849.975	-0.05
850.271	-0.06
850.567	-0.06
850.862	-0.06
851.158	-0.06
851.453	-0.05
851.748	-0.08
852.044	-0.07
852.339	-0.07
852.634	-0.09
852.929	-0.06
853.224	-0.08
853.519	-0.07
853.814	-0.06
854.109	-0.07
854.404	-0.08
854.699	-0.08
854.994	-0.08
855.288	-0.08
855.583	-0.08
855.877	-0.08
856.172	-0.08
856.466	-0.09
856.76	-0.09
857.055	-0.09
857.349	-0.1
857.643	-0.1
857.937	-0.11
858.231	-0.1
858.525	-0.1
858.819	-0.1
859.113	-0.11
859.407	-0.1
859.701	-0.11
859.994	-0.11
860.288	-0.1
860.581	-0.1
860.875	-0.11
861.168	-0.12
861.462	-0.11
861.755	-0.11
862.048	-0.12
862.341	-0.11
862.634	-0.11
862.928	-0.11
863.221	-0.11
863.513	-0.12
863.806	-0.12
864.099	-0.12
864.392	-0.14
864.685	-0.12
864.977	-0.12
865.27	-0.12
865.562	-0.12
865.855	-0.12
866.147	-0.12
866.44	-0.13
866.732	-0.13
867.024	-0.13
867.316	-0.13
867.608	-0.13
867.9	-0.14
868.192	-0.13
868.484	-0.14
868.776	-0.13
869.068	-0.14
869.359	-0.14
869.651	-0.15
869.943	-0.16
870.234	-0.16
870.526	-0.16
870.817	-0.16
871.108	-0.16
871.4	-0.16
871.691	-0.17
871.982	-0.17
872.273	-0.18
872.564	-0.17
872.855	-0.17
873.146	-0.18
873.437	-0.18
873.728	-0.18
874.019	-0.17
874.309	-0.18
874.6	-0.17
874.89	-0.18
875.181	-0.17
875.471	-0.16
875.762	-0.17
876.052	-0.17
876.342	-0.16
876.632	-0.17
876.922	-0.17
877.213	-0.17
877.503	-0.19
877.792	-0.18
878.082	-0.19
878.372	-0.16
878.662	-0.19
878.952	-0.18
879.241	-0.18
879.531	-0.17
879.82	-0.18
880.11	-0.19
880.399	-0.18
880.688	-0.17
880.978	-0.17
881.267	-0.17
