Data from 12-12-AQDScycling_Absorbance__69__00069.txt Node

Date: Tue Dec 12 11:13:59 EST 2023
User: kyuminlee
Spectrometer: FLMS00943
Trigger mode: 0
Integration Time (sec): 1.000000E-1
Scans to average: 1
Electric dark correction enabled: true
Nonlinearity correction enabled: false
Boxcar width: 0
XAxis mode: Wavelengths
Number of Pixels in Spectrum: 2048
>>>>>Begin Spectral Data<<<<<
179.651	-0
180.037	-0
180.424	-0
180.81	-0.43
181.197	0.29
181.583	-0
181.97	-0
182.356	-0
182.743	-0
183.129	-0
183.515	0.33
183.901	-0
184.288	0.1
184.674	-0
185.06	-0
185.446	-0
185.832	-0
186.218	0.33
186.604	-0.5
186.99	-0
187.376	-0
187.762	-0.51
188.148	0.5
188.534	0.12
188.92	0.09
189.305	0.05
189.691	0.07
190.077	0.18
190.463	0.14
190.848	0.15
191.234	0.01
191.619	0.09
192.005	0.08
192.391	0.15
192.776	0.2
193.161	0.17
193.547	0.15
193.932	0.11
194.318	0.02
194.703	0.3
195.088	0.32
195.473	0.16
195.859	0.21
196.244	0.25
196.629	0.09
197.014	0.19
197.399	0.05
197.784	0.17
198.169	0.09
198.554	0.3
198.939	0.09
199.324	0.09
199.709	0.04
200.094	0.15
200.478	0.01
200.863	0.14
201.248	0.13
201.633	0.11
202.017	0.13
202.402	0.35
202.787	0.19
203.171	0.01
203.556	0.22
203.94	0.29
204.325	0.16
204.709	0.19
205.093	0.09
205.478	0.13
205.862	0.25
206.246	0.19
206.631	0.22
207.015	0.12
207.399	0.36
207.783	0.09
208.167	0.26
208.551	0.37
208.935	0.21
209.319	0.28
209.703	0.15
210.087	0.29
210.471	0.04
210.855	0.22
211.239	0.25
211.623	0.22
212.007	0.21
212.39	0.25
212.774	0.07
213.158	0.13
213.541	0.24
213.925	0.24
214.309	0.22
214.692	0.32
215.076	0.26
215.459	0.15
215.842	0.06
216.226	0.27
216.609	0.38
216.993	0.32
217.376	0.65
217.759	0.16
218.142	0.45
218.525	0.75
218.909	0.42
219.292	0.33
219.675	0.35
220.058	0.45
220.441	0.5
220.824	0.45
221.207	0.55
221.59	0.51
221.973	0.52
222.355	0.69
222.738	0.78
223.121	0.55
223.504	0.52
223.886	0.59
224.269	0.66
224.652	0.6
225.034	0.75
225.417	0.76
225.799	0.83
226.182	0.9
226.564	0.83
226.947	0.73
227.329	0.79
227.711	0.92
228.094	0.83
228.476	0.9
228.858	0.86
229.24	1.03
229.623	0.9
230.005	0.81
230.387	0.9
230.769	0.89
231.151	0.92
231.533	0.91
231.915	0.9
232.297	1.07
232.679	1.05
233.061	1.06
233.442	1
233.824	1.06
234.206	1.15
234.588	1
234.969	1.18
235.351	1.04
235.733	0.99
236.114	1.27
236.496	1.17
236.877	1.15
237.259	1.05
237.64	1.09
238.022	1.03
238.403	1.05
238.784	1.14
239.165	0.97
239.547	1.01
239.928	1.1
240.309	1.02
240.69	1.15
241.071	1.14
241.452	1.01
241.834	1.15
242.215	1.09
242.595	1.1
242.976	1.11
243.357	1.11
243.738	1.06
244.119	1.2
244.5	1.08
244.881	1.24
245.261	1.25
245.642	1.17
246.023	1.18
246.403	1.13
246.784	1.23
247.164	1.32
247.545	1.29
247.925	1.24
248.306	1.26
248.686	1.44
249.067	1.35
249.447	1.42
249.827	1.47
250.207	1.44
250.588	1.21
250.968	1.51
251.348	1.26
251.728	1.74
252.108	1.34
252.488	1.38
252.868	1.24
253.248	1.44
253.628	1.4
254.008	1.52
254.388	1.39
254.768	1.39
255.147	1.38
255.527	1.33
255.907	1.37
256.287	1.39
256.666	1.47
257.046	1.61
257.425	1.5
257.805	1.36
258.184	1.35
258.564	1.31
258.943	1.33
259.323	1.58
259.702	1.44
260.081	1.53
260.461	1.57
260.84	1.33
261.219	1.68
261.598	1.54
261.977	1.43
262.356	1.52
262.736	1.54
263.115	1.75
263.494	1.47
263.873	1.44
264.251	1.47
264.63	1.54
265.009	1.45
265.388	1.5
265.767	1.35
266.145	1.4
266.524	1.45
266.903	1.37
267.281	1.38
267.66	1.43
268.039	1.45
268.417	1.47
268.796	1.42
269.174	1.5
269.552	1.4
269.931	1.35
270.309	1.39
270.687	1.62
271.066	1.68
271.444	1.4
271.822	1.72
272.2	1.59
272.578	1.45
272.956	1.43
273.334	1.42
273.712	1.38
274.09	1.41
274.468	1.33
274.846	1.41
275.224	1.32
275.602	1.51
275.98	1.43
276.357	1.49
276.735	1.42
277.113	1.6
277.49	1.34
277.868	1.3
278.246	1.39
278.623	1.35
279.001	1.41
279.378	1.4
279.756	1.57
280.133	1.61
280.51	1.66
280.888	1.49
281.265	1.48
281.642	1.56
282.019	1.5
282.396	1.45
282.773	1.48
283.151	1.48
283.528	1.44
283.905	1.4
284.282	1.52
284.659	1.6
285.035	1.33
285.412	1.43
285.789	1.48
286.166	1.41
286.543	1.5
286.919	1.5
287.296	1.41
287.673	1.56
288.049	1.47
288.426	1.52
288.802	1.42
289.179	1.52
289.555	1.7
289.932	1.47
290.308	1.37
290.684	1.34
291.061	1.3
291.437	1.56
291.813	1.43
292.189	1.34
292.565	1.29
292.942	1.27
293.318	1.3
293.694	1.34
294.07	1.33
294.446	1.51
294.822	1.68
295.197	1.33
295.573	1.44
295.949	1.53
296.325	1.55
296.701	1.54
297.076	1.47
297.452	1.5
297.828	1.42
298.203	1.51
298.579	1.47
298.954	1.38
299.33	1.41
299.705	1.49
300.081	1.44
300.456	1.53
300.831	1.32
301.206	1.43
301.582	1.54
301.957	1.48
302.332	1.43
302.707	1.35
303.082	1.39
303.457	1.54
303.832	1.4
304.207	1.39
304.582	1.32
304.957	1.38
305.332	1.4
305.707	1.38
306.082	1.39
306.456	1.41
306.831	1.3
307.206	1.29
307.58	1.29
307.955	1.3
308.33	1.29
308.704	1.3
309.079	1.3
309.453	1.33
309.828	1.34
310.202	1.25
310.576	1.2
310.951	1.26
311.325	1.28
311.699	1.33
312.073	1.23
312.447	1.4
312.821	1.27
313.196	1.34
313.57	1.24
313.944	1.18
314.317	1.25
314.691	1.3
315.065	1.27
315.439	1.33
315.813	1.24
316.187	1.23
316.56	1.37
316.934	1.25
317.308	1.24
317.681	1.26
318.055	1.31
318.428	1.23
318.802	1.33
319.175	1.3
319.549	1.24
319.922	1.22
320.295	1.24
320.669	1.41
321.042	1.28
321.415	1.34
321.788	1.34
322.162	1.25
322.535	1.37
322.908	1.31
323.281	1.23
323.654	1.37
324.027	1.25
324.4	1.27
324.773	1.39
325.145	1.37
325.518	1.18
325.891	1.29
326.264	1.4
326.636	1.29
327.009	1.3
327.382	1.29
327.754	1.35
328.127	1.27
328.499	1.33
328.872	1.35
329.244	1.37
329.616	1.27
329.989	1.36
330.361	1.35
330.733	1.26
331.106	1.37
331.478	1.37
331.85	1.26
332.222	1.3
332.594	1.35
332.966	1.32
333.338	1.46
333.71	1.39
334.082	1.56
334.454	1.33
334.826	1.38
335.197	1.44
335.569	1.36
335.941	1.31
336.312	1.34
336.684	1.37
337.056	1.37
337.427	1.42
337.799	1.59
338.17	1.34
338.542	1.3
338.913	1.36
339.284	1.52
339.656	1.39
340.027	1.3
340.398	1.4
340.769	1.44
341.141	1.46
341.512	1.41
341.883	1.41
342.254	1.36
342.625	1.37
342.996	1.32
343.367	1.37
343.738	1.48
344.108	1.3
344.479	1.49
344.85	1.32
345.221	1.41
345.591	1.27
345.962	1.32
346.333	1.21
346.703	1.21
347.074	1.32
347.444	1.23
347.815	1.39
348.185	1.33
348.556	1.29
348.926	1.3
349.296	1.2
349.666	1.38
350.037	1.21
350.407	1.28
350.777	1.3
351.147	1.32
351.517	1.35
351.887	1.26
352.257	1.34
352.627	1.23
352.997	1.32
353.367	1.4
353.737	1.37
354.106	1.35
354.476	1.33
354.846	1.48
355.216	1.38
355.585	1.35
355.955	1.39
356.324	1.49
356.694	1.35
357.063	1.37
357.433	1.3
357.802	1.39
358.171	1.4
358.541	1.38
358.91	1.44
359.279	1.38
359.648	1.32
360.017	1.44
360.387	1.34
360.756	1.36
361.125	1.4
361.494	1.54
361.863	1.38
362.231	1.46
362.6	1.4
362.969	1.51
363.338	1.36
363.707	1.55
364.075	1.64
364.444	1.35
364.813	1.47
365.181	1.4
365.55	1.43
365.918	1.64
366.287	1.36
366.655	1.54
367.024	1.52
367.392	1.5
367.76	1.38
368.128	1.44
368.497	1.5
368.865	1.36
369.233	1.57
369.601	1.44
369.969	1.51
370.337	1.5
370.705	1.53
371.073	1.49
371.441	1.44
371.809	1.45
372.177	1.48
372.544	1.45
372.912	1.36
373.28	1.43
373.647	1.43
374.015	1.53
374.383	1.6
374.75	1.59
375.118	1.51
375.485	1.46
375.853	1.59
376.22	1.51
376.587	1.45
376.955	1.52
377.322	1.49
377.689	1.58
378.056	1.42
378.423	1.38
378.79	1.62
379.157	1.56
379.524	1.54
379.891	1.64
380.258	1.56
380.625	1.46
380.992	1.49
381.359	1.57
381.726	1.7
382.092	1.49
382.459	1.67
382.826	1.46
383.192	1.47
383.559	1.43
383.925	1.55
384.292	1.48
384.658	1.65
385.025	1.48
385.391	1.58
385.757	1.6
386.123	1.51
386.49	1.58
386.856	1.83
387.222	1.73
387.588	1.51
387.954	1.79
388.32	1.73
388.686	1.6
389.052	1.47
389.418	1.67
389.784	1.48
390.15	1.58
390.515	1.36
390.881	1.73
391.247	1.52
391.613	1.63
391.978	1.62
392.344	1.74
392.709	1.59
393.075	1.64
393.44	1.5
393.806	1.61
394.171	1.48
394.536	1.55
394.902	1.67
395.267	1.58
395.632	1.48
395.997	1.45
396.362	1.5
396.727	1.52
397.092	1.49
397.457	1.55
397.822	1.5
398.187	1.61
398.552	1.49
398.917	1.62
399.282	1.42
399.646	1.58
400.011	1.55
400.376	1.43
400.74	1.54
401.105	1.64
401.47	1.5
401.834	1.4
402.199	1.49
402.563	1.48
402.927	1.57
403.292	1.56
403.656	1.54
404.02	1.5
404.384	1.57
404.749	1.56
405.113	1.64
405.477	1.56
405.841	1.56
406.205	1.56
406.569	1.52
406.933	1.52
407.296	1.56
407.66	1.43
408.024	1.5
408.388	1.54
408.752	1.47
409.115	1.5
409.479	1.49
409.842	1.39
410.206	1.38
410.569	1.42
410.933	1.32
411.296	1.37
411.66	1.39
412.023	1.28
412.386	1.42
412.749	1.35
413.113	1.32
413.476	1.31
413.839	1.39
414.202	1.46
414.565	1.31
414.928	1.43
415.291	1.28
415.654	1.39
416.017	1.47
416.38	1.27
416.742	1.34
417.105	1.34
417.468	1.25
417.83	1.27
418.193	1.56
418.556	1.25
418.918	1.28
419.281	1.42
419.643	1.46
420.005	1.38
420.368	1.42
420.73	1.32
421.092	1.43
421.455	1.36
421.817	1.27
422.179	1.37
422.541	1.5
422.903	1.44
423.265	1.4
423.627	1.38
423.989	1.28
424.351	1.3
424.713	1.32
425.075	1.33
425.436	1.36
425.798	1.29
426.16	1.35
426.521	1.31
426.883	1.33
427.245	1.33
427.606	1.28
427.967	1.25
428.329	1.28
428.69	1.39
429.052	1.23
429.413	1.27
429.774	1.29
430.135	1.26
430.497	1.31
430.858	1.35
431.219	1.34
431.58	1.23
431.941	1.26
432.302	1.24
432.663	1.26
433.024	1.31
433.384	1.29
433.745	1.18
434.106	1.31
434.467	1.3
434.827	1.23
435.188	1.25
435.548	1.28
435.909	1.22
436.269	1.32
436.63	1.26
436.99	1.23
437.351	1.17
437.711	1.24
438.071	1.19
438.431	1.2
438.792	1.19
439.152	1.2
439.512	1.09
439.872	1.16
440.232	1.19
440.592	1.24
440.952	1.2
441.312	1.11
441.671	1.13
442.031	1.14
442.391	1.13
442.751	1.13
443.11	1.19
443.47	1.12
443.83	1.1
444.189	1.11
444.549	1.09
444.908	1.07
445.267	1.07
445.627	1.07
445.986	1.07
446.345	1.03
446.705	1.06
447.064	1.08
447.423	1.08
447.782	1.04
448.141	1.03
448.5	1
448.859	1.04
449.218	1.01
449.577	1.03
449.936	1.01
450.295	1
450.653	0.99
451.012	1
451.371	0.97
451.729	0.97
452.088	0.99
452.447	0.98
452.805	0.97
453.163	0.97
453.522	0.96
453.88	0.95
454.239	0.92
454.597	0.92
454.955	0.9
455.313	0.9
455.671	0.9
456.029	0.88
456.388	0.87
456.746	0.87
457.104	0.86
457.461	0.85
457.819	0.83
458.177	0.84
458.535	0.83
458.893	0.81
459.25	0.8
459.608	0.79
459.966	0.77
460.323	0.77
460.681	0.76
461.038	0.76
461.396	0.74
461.753	0.74
462.111	0.73
462.468	0.73
462.825	0.71
463.182	0.7
463.54	0.69
463.897	0.69
464.254	0.68
464.611	0.68
464.968	0.68
465.325	0.65
465.682	0.65
466.039	0.63
466.395	0.62
466.752	0.61
467.109	0.61
467.466	0.62
467.822	0.6
468.179	0.58
468.535	0.58
468.892	0.57
469.248	0.57
469.605	0.56
469.961	0.56
470.318	0.57
470.674	0.54
471.03	0.53
471.386	0.53
471.743	0.51
472.099	0.5
472.455	0.49
472.811	0.49
473.167	0.48
473.523	0.47
473.879	0.48
474.235	0.47
474.59	0.46
474.946	0.45
475.302	0.46
475.657	0.44
476.013	0.44
476.369	0.43
476.724	0.43
477.08	0.43
477.435	0.41
477.791	0.41
478.146	0.4
478.501	0.39
478.857	0.39
479.212	0.4
479.567	0.39
479.922	0.37
480.277	0.37
480.632	0.37
480.987	0.35
481.342	0.36
481.697	0.34
482.052	0.34
482.407	0.33
482.762	0.33
483.116	0.32
483.471	0.31
483.826	0.31
484.18	0.31
484.535	0.3
484.89	0.29
485.244	0.3
485.598	0.3
485.953	0.29
486.307	0.29
486.661	0.3
487.016	0.28
487.37	0.28
487.724	0.28
488.078	0.28
488.432	0.27
488.786	0.26
489.14	0.26
489.494	0.26
489.848	0.25
490.202	0.25
490.556	0.25
490.91	0.24
491.263	0.25
491.617	0.25
491.971	0.24
492.324	0.23
492.678	0.23
493.031	0.23
493.385	0.23
493.738	0.22
494.091	0.22
494.445	0.22
494.798	0.22
495.151	0.22
495.504	0.22
495.857	0.21
496.21	0.21
496.564	0.22
496.916	0.22
497.269	0.21
497.622	0.22
497.975	0.21
498.328	0.21
498.681	0.21
499.033	0.2
499.386	0.2
499.739	0.2
500.091	0.2
500.444	0.2
500.796	0.2
501.149	0.2
501.501	0.19
501.854	0.19
502.206	0.19
502.558	0.19
502.91	0.2
503.263	0.19
503.615	0.19
503.967	0.18
504.319	0.18
504.671	0.18
505.023	0.18
505.375	0.18
505.726	0.18
506.078	0.18
506.43	0.17
506.782	0.17
507.133	0.17
507.485	0.18
507.837	0.18
508.188	0.18
508.54	0.18
508.891	0.18
509.243	0.17
509.594	0.17
509.945	0.17
510.296	0.17
510.648	0.18
510.999	0.17
511.35	0.17
511.701	0.16
512.052	0.17
512.403	0.17
512.754	0.16
513.105	0.16
513.456	0.16
513.807	0.16
514.157	0.17
514.508	0.16
514.859	0.16
515.209	0.15
515.56	0.16
515.91	0.15
516.261	0.16
516.611	0.15
516.962	0.16
517.312	0.16
517.662	0.16
518.013	0.16
518.363	0.17
518.713	0.16
519.063	0.15
519.413	0.16
519.763	0.15
520.113	0.16
520.463	0.16
520.813	0.17
521.163	0.16
521.512	0.16
521.862	0.16
522.212	0.16
522.562	0.16
522.911	0.16
523.261	0.16
523.61	0.16
523.96	0.16
524.309	0.16
524.658	0.16
525.008	0.16
525.357	0.15
525.706	0.17
526.056	0.16
526.405	0.16
526.754	0.16
527.103	0.16
527.452	0.16
527.801	0.16
528.15	0.16
528.499	0.16
528.847	0.16
529.196	0.17
529.545	0.16
529.893	0.16
530.242	0.16
530.591	0.17
530.939	0.16
531.288	0.16
531.636	0.16
531.985	0.16
532.333	0.16
532.681	0.16
533.029	0.15
533.378	0.16
533.726	0.16
534.074	0.17
534.422	0.16
534.77	0.16
535.118	0.16
535.466	0.16
535.814	0.16
536.162	0.17
536.509	0.16
536.857	0.16
537.205	0.17
537.552	0.17
537.9	0.16
538.248	0.16
538.595	0.16
538.943	0.17
539.29	0.16
539.637	0.16
539.985	0.16
540.332	0.15
540.679	0.15
541.026	0.15
541.373	0.16
541.721	0.15
542.068	0.16
542.415	0.16
542.762	0.15
543.108	0.15
543.455	0.15
543.802	0.16
544.149	0.15
544.496	0.16
544.842	0.15
545.189	0.16
545.535	0.15
545.882	0.16
546.228	0.15
546.575	0.15
546.921	0.16
547.267	0.16
547.614	0.16
547.96	0.16
548.306	0.16
548.652	0.15
548.998	0.16
549.344	0.15
549.69	0.16
550.036	0.16
550.382	0.15
550.728	0.15
551.074	0.16
551.42	0.16
551.765	0.16
552.111	0.17
552.457	0.16
552.802	0.16
553.148	0.16
553.493	0.16
553.839	0.17
554.184	0.17
554.529	0.15
554.875	0.16
555.22	0.17
555.565	0.17
555.91	0.16
556.255	0.17
556.6	0.17
556.945	0.16
557.29	0.17
557.635	0.17
557.98	0.16
558.325	0.16
558.67	0.17
559.014	0.16
559.359	0.16
559.704	0.16
560.048	0.15
560.393	0.16
560.737	0.15
561.082	0.16
561.426	0.15
561.77	0.16
562.115	0.15
562.459	0.15
562.803	0.16
563.147	0.16
563.491	0.16
563.835	0.16
564.179	0.16
564.523	0.16
564.867	0.16
565.211	0.16
565.555	0.16
565.899	0.17
566.242	0.16
566.586	0.16
566.93	0.16
567.273	0.17
567.617	0.17
567.96	0.17
568.304	0.17
568.647	0.16
568.99	0.16
569.334	0.17
569.677	0.17
570.02	0.17
570.363	0.16
570.706	0.17
571.049	0.17
571.392	0.17
571.735	0.16
572.078	0.16
572.421	0.17
572.764	0.16
573.106	0.17
573.449	0.16
573.792	0.16
574.134	0.17
574.477	0.17
574.819	0.16
575.162	0.17
575.504	0.16
575.847	0.17
576.189	0.16
576.531	0.16
576.873	0.16
577.215	0.16
577.558	0.16
577.9	0.16
578.242	0.16
578.584	0.16
578.926	0.16
579.267	0.16
579.609	0.15
579.951	0.16
580.293	0.16
580.634	0.16
580.976	0.16
581.318	0.15
581.659	0.15
582.001	0.16
582.342	0.16
582.683	0.16
583.025	0.15
583.366	0.15
583.707	0.16
584.049	0.16
584.39	0.16
584.731	0.15
585.072	0.15
585.413	0.16
585.754	0.16
586.095	0.15
586.435	0.16
586.776	0.16
587.117	0.15
587.458	0.16
587.798	0.15
588.139	0.15
588.48	0.15
588.82	0.15
589.161	0.15
589.501	0.15
589.841	0.15
590.182	0.15
590.522	0.15
590.862	0.15
591.202	0.15
591.542	0.15
591.882	0.15
592.222	0.15
592.562	0.15
592.902	0.15
593.242	0.16
593.582	0.16
593.922	0.16
594.261	0.15
594.601	0.15
594.941	0.15
595.28	0.15
595.62	0.15
595.959	0.15
596.299	0.14
596.638	0.14
596.977	0.15
597.317	0.15
597.656	0.15
597.995	0.15
598.334	0.16
598.673	0.15
599.012	0.15
599.351	0.15
599.69	0.14
600.029	0.16
600.368	0.15
600.707	0.15
601.046	0.15
601.384	0.15
601.723	0.15
602.061	0.14
602.4	0.15
602.738	0.15
603.077	0.15
603.415	0.14
603.754	0.15
604.092	0.15
604.43	0.15
604.768	0.16
605.107	0.15
605.445	0.15
605.783	0.15
606.121	0.14
606.459	0.15
606.796	0.15
607.134	0.15
607.472	0.15
607.81	0.15
608.148	0.15
608.485	0.15
608.823	0.15
609.16	0.15
609.498	0.16
609.835	0.15
610.173	0.16
610.51	0.15
610.847	0.16
611.185	0.16
611.522	0.16
611.859	0.16
612.196	0.16
612.533	0.16
612.87	0.16
613.207	0.16
613.544	0.17
613.881	0.17
614.217	0.16
614.554	0.17
614.891	0.16
615.228	0.16
615.564	0.16
615.901	0.16
616.237	0.16
616.574	0.15
616.91	0.16
617.246	0.15
617.583	0.15
617.919	0.16
618.255	0.16
618.591	0.16
618.927	0.15
619.263	0.16
619.599	0.16
619.935	0.16
620.271	0.16
620.607	0.16
620.943	0.15
621.279	0.16
621.614	0.15
621.95	0.15
622.286	0.15
622.621	0.15
622.957	0.14
623.292	0.15
623.627	0.15
623.963	0.15
624.298	0.14
624.633	0.14
624.968	0.15
625.304	0.15
625.639	0.15
625.974	0.15
626.309	0.14
626.644	0.14
626.979	0.15
627.313	0.15
627.648	0.15
627.983	0.15
628.318	0.14
628.652	0.14
628.987	0.15
629.321	0.15
629.656	0.14
629.99	0.14
630.325	0.15
630.659	0.14
630.993	0.14
631.327	0.15
631.662	0.14
631.996	0.14
632.33	0.14
632.664	0.14
632.998	0.14
633.332	0.13
633.666	0.14
633.999	0.13
634.333	0.13
634.667	0.13
635.001	0.13
635.334	0.13
635.668	0.13
636.001	0.12
636.335	0.13
636.668	0.13
637.001	0.12
637.335	0.13
637.668	0.13
638.001	0.12
638.334	0.13
638.668	0.13
639.001	0.13
639.334	0.13
639.667	0.12
639.999	0.13
640.332	0.13
640.665	0.13
640.998	0.13
641.331	0.14
641.663	0.13
641.996	0.13
642.328	0.14
642.661	0.13
642.993	0.13
643.326	0.13
643.658	0.13
643.99	0.13
644.323	0.13
644.655	0.13
644.987	0.13
645.319	0.14
645.651	0.14
645.983	0.13
646.315	0.12
646.647	0.14
646.979	0.13
647.31	0.14
647.642	0.14
647.974	0.13
648.305	0.15
648.637	0.14
648.968	0.14
649.3	0.14
649.631	0.14
649.963	0.13
650.294	0.14
650.625	0.13
650.957	0.13
651.288	0.14
651.619	0.13
651.95	0.13
652.281	0.13
652.612	0.13
652.943	0.13
653.274	0.14
653.604	0.13
653.935	0.13
654.266	0.13
654.596	0.13
654.927	0.12
655.258	0.13
655.588	0.13
655.918	0.13
656.249	0.11
656.579	0.12
656.909	0.13
657.24	0.12
657.57	0.13
657.9	0.13
658.23	0.13
658.56	0.13
658.89	0.13
659.22	0.13
659.55	0.13
659.88	0.13
660.209	0.12
660.539	0.14
660.869	0.13
661.198	0.13
661.528	0.13
661.857	0.13
662.187	0.13
662.516	0.13
662.846	0.12
663.175	0.12
663.504	0.13
663.833	0.13
664.163	0.13
664.492	0.12
664.821	0.12
665.15	0.12
665.479	0.12
665.807	0.12
666.136	0.13
666.465	0.12
666.794	0.12
667.122	0.12
667.451	0.12
667.78	0.12
668.108	0.12
668.437	0.12
668.765	0.11
669.093	0.13
669.422	0.12
669.75	0.12
670.078	0.11
670.406	0.12
670.734	0.12
671.062	0.12
671.39	0.11
671.718	0.11
672.046	0.12
672.374	0.11
672.702	0.12
673.029	0.11
673.357	0.12
673.685	0.13
674.012	0.11
674.34	0.12
674.667	0.12
674.995	0.12
675.322	0.11
675.649	0.11
675.977	0.12
676.304	0.11
676.631	0.12
676.958	0.11
677.285	0.1
677.612	0.1
677.939	0.1
678.266	0.11
678.593	0.11
678.92	0.11
679.246	0.1
679.573	0.1
679.9	0.1
680.226	0.1
680.553	0.1
680.879	0.1
681.206	0.11
681.532	0.1
681.858	0.1
682.184	0.1
682.511	0.1
682.837	0.09
683.163	0.1
683.489	0.1
683.815	0.1
684.141	0.1
684.467	0.1
684.793	0.09
685.118	0.1
685.444	0.1
685.77	0.1
686.095	0.1
686.421	0.1
686.746	0.1
687.072	0.1
687.397	0.1
687.723	0.1
688.048	0.1
688.373	0.1
688.698	0.1
689.023	0.1
689.349	0.1
689.674	0.1
689.999	0.09
690.323	0.09
690.648	0.09
690.973	0.08
691.298	0.09
691.623	0.08
691.947	0.09
692.272	0.08
692.596	0.08
692.921	0.09
693.245	0.08
693.57	0.09
693.894	0.09
694.218	0.09
694.543	0.09
694.867	0.08
695.191	0.09
695.515	0.09
695.839	0.08
696.163	0.08
696.487	0.09
696.811	0.09
697.135	0.09
697.458	0.09
697.782	0.09
698.106	0.09
698.429	0.09
698.753	0.09
699.076	0.09
699.4	0.09
699.723	0.08
700.046	0.08
700.37	0.09
700.693	0.09
701.016	0.09
701.339	0.09
701.662	0.1
701.985	0.09
702.308	0.08
702.631	0.09
702.954	0.09
703.277	0.09
703.599	0.09
703.922	0.08
704.245	0.09
704.567	0.08
704.89	0.08
705.212	0.07
705.535	0.08
705.857	0.08
706.179	0.07
706.502	0.07
706.824	0.07
707.146	0.07
707.468	0.08
707.79	0.07
708.112	0.08
708.434	0.08
708.756	0.08
709.078	0.08
709.399	0.07
709.721	0.07
710.043	0.07
710.364	0.07
710.686	0.07
711.007	0.07
711.329	0.08
711.65	0.07
711.972	0.07
712.293	0.08
712.614	0.07
712.935	0.08
713.256	0.07
713.577	0.08
713.898	0.07
714.219	0.08
714.54	0.07
714.861	0.07
715.182	0.08
715.503	0.07
715.823	0.07
716.144	0.07
716.464	0.07
716.785	0.07
717.105	0.08
717.426	0.07
717.746	0.07
718.066	0.06
718.387	0.07
718.707	0.06
719.027	0.07
719.347	0.06
719.667	0.07
719.987	0.06
720.307	0.06
720.627	0.06
720.947	0.06
721.266	0.06
721.586	0.06
721.906	0.06
722.225	0.05
722.545	0.06
722.864	0.05
723.184	0.06
723.503	0.06
723.823	0.06
724.142	0.06
724.461	0.06
724.78	0.06
725.099	0.06
725.418	0.06
725.737	0.07
726.056	0.07
726.375	0.07
726.694	0.06
727.013	0.06
727.331	0.06
727.65	0.06
727.969	0.06
728.287	0.06
728.606	0.06
728.924	0.05
729.242	0.06
729.561	0.06
729.879	0.06
730.197	0.06
730.515	0.05
730.834	0.05
731.152	0.05
731.47	0.06
731.788	0.05
732.105	0.05
732.423	0.05
732.741	0.05
733.059	0.05
733.376	0.06
733.694	0.05
734.012	0.05
734.329	0.05
734.647	0.06
734.964	0.06
735.281	0.06
735.599	0.06
735.916	0.06
736.233	0.05
736.55	0.06
736.867	0.06
737.184	0.07
737.501	0.06
737.818	0.06
738.135	0.06
738.452	0.05
738.768	0.06
739.085	0.06
739.402	0.05
739.718	0.06
740.035	0.06
740.351	0.06
740.668	0.06
740.984	0.06
741.3	0.06
741.617	0.06
741.933	0.06
742.249	0.06
742.565	0.06
742.881	0.06
743.197	0.06
743.513	0.06
743.829	0.05
744.144	0.05
744.46	0.06
744.776	0.06
745.091	0.05
745.407	0.06
745.722	0.05
746.038	0.05
746.353	0.04
746.669	0.05
746.984	0.05
747.299	0.05
747.614	0.06
747.93	0.05
748.245	0.05
748.56	0.05
748.875	0.05
749.189	0.05
749.504	0.05
749.819	0.05
750.134	0.04
750.448	0.05
750.763	0.05
751.078	0.04
751.392	0.05
751.707	0.06
752.021	0.06
752.335	0.06
752.65	0.06
752.964	0.05
753.278	0.06
753.592	0.06
753.906	0.06
754.22	0.06
754.534	0.06
754.848	0.05
755.162	0.06
755.476	0.06
755.789	0.06
756.103	0.05
756.417	0.06
756.73	0.06
757.044	0.05
757.357	0.06
757.671	0.06
757.984	0.07
758.297	0.06
758.61	0.06
758.924	0.06
759.237	0.05
759.55	0.05
759.863	0.05
760.176	0.06
760.488	0.05
760.801	0.05
761.114	0.05
761.427	0.05
761.739	0.06
762.052	0.05
762.365	0.05
762.677	0.05
762.99	0.05
763.302	0.05
763.614	0.05
763.926	0.05
764.239	0.05
764.551	0.05
764.863	0.05
765.175	0.06
765.487	0.04
765.799	0.04
766.111	0.05
766.423	0.05
766.734	0.05
767.046	0.04
767.358	0.04
767.669	0.04
767.981	0.04
768.292	0.04
768.604	0.04
768.915	0.04
769.226	0.05
769.537	0.04
769.849	0.05
770.16	0.04
770.471	0.04
770.782	0.04
771.093	0.04
771.404	0.03
771.715	0.03
772.025	0.04
772.336	0.03
772.647	0.03
772.957	0.03
773.268	0.04
773.578	0.03
773.889	0.04
774.199	0.05
774.51	0.03
774.82	0.04
775.13	0.04
775.44	0.04
775.75	0.04
776.06	0.04
776.37	0.04
776.68	0.05
776.99	0.04
777.3	0.04
777.61	0.05
777.92	0.04
778.229	0.04
778.539	0.03
778.848	0.04
779.158	0.04
779.467	0.05
779.777	0.04
780.086	0.05
780.395	0.03
780.704	0.04
781.013	0.03
781.323	0.03
781.632	0.03
781.941	0.03
782.249	0.04
782.558	0.03
782.867	0.04
783.176	0.03
783.485	0.03
783.793	0.04
784.102	0.03
784.41	0.03
784.719	0.03
785.027	0.03
785.335	0.04
785.644	0.04
785.952	0.03
786.26	0.04
786.568	0.03
786.876	0.03
787.184	0.03
787.492	0.04
787.8	0.03
788.108	0.04
788.416	0.04
788.723	0.04
789.031	0.03
789.338	0.03
789.646	0.04
789.953	0.05
790.261	0.04
790.568	0.04
790.876	0.04
791.183	0.04
791.49	0.04
791.797	0.03
792.104	0.04
792.411	0.05
792.718	0.04
793.025	0.04
793.332	0.04
793.639	0.05
793.945	0.05
794.252	0.04
794.559	0.05
794.865	0.05
795.172	0.04
795.478	0.04
795.784	0.04
796.091	0.05
796.397	0.05
796.703	0.04
797.009	0.05
797.315	0.04
797.622	0.04
797.927	0.04
798.233	0.04
798.539	0.05
798.845	0.04
799.151	0.04
799.456	0.04
799.762	0.04
800.068	0.04
800.373	0.05
800.679	0.04
800.984	0.04
801.289	0.04
801.595	0.04
801.9	0.03
802.205	0.03
802.51	0.04
802.815	0.03
803.12	0.04
803.425	0.03
803.73	0.03
804.035	0.04
804.339	0.03
804.644	0.03
804.949	0.03
805.253	0.03
805.558	0.04
805.862	0.03
806.167	0.03
806.471	0.03
806.775	0.04
807.08	0.04
807.384	0.03
807.688	0.04
807.992	0.04
808.296	0.04
808.6	0.04
808.904	0.04
809.207	0.04
809.511	0.04
809.815	0.05
810.119	0.04
810.422	0.05
810.726	0.05
811.029	0.06
811.332	0.04
811.636	0.05
811.939	0.04
812.242	0.04
812.546	0.04
812.849	0.04
813.152	0.05
813.455	0.04
813.758	0.05
814.06	0.04
814.363	0.04
814.666	0.05
814.969	0.04
815.271	0.04
815.574	0.04
815.877	0.04
816.179	0.04
816.481	0.04
816.784	0.04
817.086	0.04
817.388	0.03
817.69	0.03
817.993	0.03
818.295	0.03
818.597	0.03
818.899	0.03
819.2	0.03
819.502	0.03
819.804	0.03
820.106	0.03
820.407	0.02
820.709	0.04
821.01	0.03
821.312	0.03
821.613	0.03
821.915	0.03
822.216	0.03
822.517	0.02
822.818	0.03
823.119	0.02
823.42	0.02
823.721	0.02
824.022	0.02
824.323	0.03
824.624	0.02
824.925	0.03
825.226	0.03
825.526	0.02
825.827	0.02
826.127	0.02
826.428	0.02
826.728	0.02
827.028	0.02
827.329	0.02
827.629	0.01
827.929	0.02
828.229	0.03
828.529	0.03
828.829	0.02
829.129	0.02
829.429	0.02
829.729	0.02
830.029	0.01
830.328	0.01
830.628	0.01
830.927	0.01
831.227	0.02
831.526	0.02
831.826	0.02
832.125	0.01
832.424	0.01
832.724	0.01
833.023	0.01
833.322	0.01
833.621	0.02
833.92	0
834.219	0
834.518	0.01
834.816	-0
835.115	0.01
835.414	0
835.712	0
836.011	0
836.309	0
836.608	0
836.906	-0
837.205	-0.01
837.503	-0.01
837.801	-0.01
838.099	-0.01
838.397	-0.03
838.695	-0.02
838.993	-0.01
839.291	-0.02
839.589	-0.03
839.887	-0.02
840.184	-0.04
840.482	-0.04
840.78	-0.03
841.077	-0.04
841.375	-0.04
841.672	-0.04
841.969	-0.04
842.267	-0.04
842.564	-0.05
842.861	-0.04
843.158	-0.05
843.455	-0.06
843.752	-0.05
844.049	-0.05
844.346	-0.05
844.643	-0.05
844.94	-0.05
845.236	-0.03
845.533	-0.04
845.83	-0.05
846.126	-0.05
846.423	-0.04
846.719	-0.05
847.015	-0.05
847.312	-0.05
847.608	-0.06
847.904	-0.06
848.2	-0.06
848.496	-0.06
848.792	-0.06
849.088	-0.04
849.384	-0.06
849.68	-0.07
849.975	-0.06
850.271	-0.07
850.567	-0.06
850.862	-0.08
851.158	-0.08
851.453	-0.08
851.748	-0.09
852.044	-0.08
852.339	-0.09
852.634	-0.1
852.929	-0.09
853.224	-0.11
853.519	-0.1
853.814	-0.09
854.109	-0.1
854.404	-0.1
854.699	-0.11
854.994	-0.09
855.288	-0.1
855.583	-0.1
855.877	-0.12
856.172	-0.1
856.466	-0.11
856.76	-0.11
857.055	-0.11
857.349	-0.13
857.643	-0.13
857.937	-0.13
858.231	-0.12
858.525	-0.12
858.819	-0.13
859.113	-0.14
859.407	-0.14
859.701	-0.13
859.994	-0.13
860.288	-0.13
860.581	-0.13
860.875	-0.14
861.168	-0.14
861.462	-0.14
861.755	-0.13
862.048	-0.13
862.341	-0.13
862.634	-0.14
862.928	-0.13
863.221	-0.13
863.513	-0.14
863.806	-0.13
864.099	-0.14
864.392	-0.14
864.685	-0.13
864.977	-0.13
865.27	-0.14
865.562	-0.13
865.855	-0.13
866.147	-0.14
866.44	-0.13
866.732	-0.13
867.024	-0.14
867.316	-0.14
867.608	-0.14
867.9	-0.14
868.192	-0.16
868.484	-0.14
868.776	-0.15
869.068	-0.14
869.359	-0.14
869.651	-0.14
869.943	-0.15
870.234	-0.15
870.526	-0.15
870.817	-0.16
871.108	-0.14
871.4	-0.14
871.691	-0.15
871.982	-0.16
872.273	-0.17
872.564	-0.16
872.855	-0.16
873.146	-0.16
873.437	-0.17
873.728	-0.17
874.019	-0.16
874.309	-0.17
874.6	-0.16
874.89	-0.17
875.181	-0.16
875.471	-0.15
875.762	-0.16
876.052	-0.16
876.342	-0.15
876.632	-0.17
876.922	-0.18
877.213	-0.17
877.503	-0.18
877.792	-0.18
878.082	-0.16
878.372	-0.17
878.662	-0.18
878.952	-0.18
879.241	-0.18
879.531	-0.17
879.82	-0.17
880.11	-0.18
880.399	-0.19
880.688	-0.17
880.978	-0.17
881.267	-0.17
