Data from 12-12-AQDScycling_Absorbance__747__00747.txt Node

Date: Tue Dec 12 14:03:29 EST 2023
User: kyuminlee
Spectrometer: FLMS00943
Trigger mode: 0
Integration Time (sec): 1.000000E-1
Scans to average: 1
Electric dark correction enabled: true
Nonlinearity correction enabled: false
Boxcar width: 0
XAxis mode: Wavelengths
Number of Pixels in Spectrum: 2048
>>>>>Begin Spectral Data<<<<<
179.651	1.38
180.037	1.38
180.424	1.38
180.81	0.02
181.197	0.2
181.583	-0.35
181.97	-0.11
182.356	-0
182.743	-0
183.129	-0.05
183.515	1.42
183.901	-2.65
184.288	0.44
184.674	0.96
185.06	-0
185.446	-0.51
185.832	-1.51
186.218	-0.07
186.604	-0.39
186.99	-0
187.376	-0.21
187.762	-0
188.148	0.22
188.534	0.25
188.92	0.09
189.305	0.08
189.691	0.15
190.077	0.23
190.463	-0.01
190.848	0.07
191.234	0.12
191.619	0.1
192.005	0.19
192.391	0.15
192.776	0.17
193.161	0.08
193.547	0.2
193.932	0.25
194.318	0.08
194.703	0.23
195.088	0.25
195.473	0.06
195.859	0.29
196.244	0.23
196.629	0.08
197.014	0.11
197.399	0.13
197.784	0.13
198.169	0.22
198.554	0.33
198.939	0.19
199.324	0.14
199.709	0.03
200.094	0.14
200.478	0.07
200.863	0.17
201.248	0.22
201.633	0.12
202.017	0.03
202.402	0.14
202.787	0.15
203.171	0.18
203.556	0.14
203.94	0.19
204.325	0.15
204.709	0.17
205.093	0.04
205.478	0.12
205.862	0.17
206.246	0.1
206.631	0.35
207.015	0.19
207.399	0.14
207.783	0.31
208.167	0.14
208.551	0.28
208.935	0.14
209.319	0.3
209.703	0.06
210.087	0.31
210.471	-0.03
210.855	0.13
211.239	0.25
211.623	0.2
212.007	0.44
212.39	0.38
212.774	0.25
213.158	0.09
213.541	0.22
213.925	0.21
214.309	0.39
214.692	0.47
215.076	0.28
215.459	0.19
215.842	0.06
216.226	0.38
216.609	0.26
216.993	0.25
217.376	0.31
217.759	0.1
218.142	0.29
218.525	0.49
218.909	0.51
219.292	0.31
219.675	0.44
220.058	0.41
220.441	0.48
220.824	0.32
221.207	0.62
221.59	0.55
221.973	0.47
222.355	0.53
222.738	0.82
223.121	0.66
223.504	0.56
223.886	0.71
224.269	0.77
224.652	0.74
225.034	0.95
225.417	0.76
225.799	0.73
226.182	0.86
226.564	0.8
226.947	0.81
227.329	0.85
227.711	1.04
228.094	0.92
228.476	0.92
228.858	0.77
229.24	0.88
229.623	0.95
230.005	0.91
230.387	0.92
230.769	0.79
231.151	1.06
231.533	0.89
231.915	0.95
232.297	0.94
232.679	0.9
233.061	0.94
233.442	1
233.824	0.98
234.206	1.11
234.588	1.07
234.969	1
235.351	1
235.733	1.05
236.114	0.95
236.496	1.04
236.877	1.14
237.259	1.21
237.64	0.94
238.022	1
238.403	0.99
238.784	1.25
239.165	0.95
239.547	1.11
239.928	1.11
240.309	1.1
240.69	1.07
241.071	1.19
241.452	1.11
241.834	1.07
242.215	0.98
242.595	1.1
242.976	1.06
243.357	1.03
243.738	1.06
244.119	1.31
244.5	1.08
244.881	1.19
245.261	1.2
245.642	1.17
246.023	1.3
246.403	1.2
246.784	1.24
247.164	1.23
247.545	1.23
247.925	1.3
248.306	1.26
248.686	1.45
249.067	1.43
249.447	1.37
249.827	1.49
250.207	1.36
250.588	1.2
250.968	1.39
251.348	1.29
251.728	1.48
252.108	1.41
252.488	1.43
252.868	1.27
253.248	1.29
253.628	1.42
254.008	1.57
254.388	1.33
254.768	1.27
255.147	1.54
255.527	1.4
255.907	1.53
256.287	1.3
256.666	1.48
257.046	1.68
257.425	1.45
257.805	1.41
258.184	1.35
258.564	1.38
258.943	1.45
259.323	1.55
259.702	1.47
260.081	1.47
260.461	1.43
260.84	1.44
261.219	1.98
261.598	1.55
261.977	1.42
262.356	1.64
262.736	1.49
263.115	1.57
263.494	1.45
263.873	1.54
264.251	1.52
264.63	1.56
265.009	1.41
265.388	1.42
265.767	1.51
266.145	1.41
266.524	1.44
266.903	1.45
267.281	1.35
267.66	1.46
268.039	1.38
268.417	1.61
268.796	1.49
269.174	1.59
269.552	1.39
269.931	1.41
270.309	1.44
270.687	1.59
271.066	1.64
271.444	1.38
271.822	1.48
272.2	1.39
272.578	1.33
272.956	1.49
273.334	1.44
273.712	1.53
274.09	1.41
274.468	1.4
274.846	1.34
275.224	1.51
275.602	1.47
275.98	1.51
276.357	1.51
276.735	1.46
277.113	1.39
277.49	1.39
277.868	1.39
278.246	1.41
278.623	1.34
279.001	1.33
279.378	1.32
279.756	1.95
280.133	1.42
280.51	1.35
280.888	1.51
281.265	1.38
281.642	1.61
282.019	1.52
282.396	1.46
282.773	1.48
283.151	1.55
283.528	1.5
283.905	1.43
284.282	1.67
284.659	1.52
285.035	1.36
285.412	1.36
285.789	1.53
286.166	1.59
286.543	1.48
286.919	1.51
287.296	1.5
287.673	1.52
288.049	1.57
288.426	1.46
288.802	1.44
289.179	1.46
289.555	1.66
289.932	1.43
290.308	1.34
290.684	1.32
291.061	1.32
291.437	1.6
291.813	1.31
292.189	1.26
292.565	1.32
292.942	1.43
293.318	1.4
293.694	1.51
294.07	1.36
294.446	1.48
294.822	1.54
295.197	1.43
295.573	1.44
295.949	1.49
296.325	1.52
296.701	1.41
297.076	1.55
297.452	1.55
297.828	1.41
298.203	1.54
298.579	1.43
298.954	1.46
299.33	1.43
299.705	1.44
300.081	1.62
300.456	1.49
300.831	1.4
301.206	1.52
301.582	1.51
301.957	1.41
302.332	1.55
302.707	1.46
303.082	1.47
303.457	1.46
303.832	1.42
304.207	1.38
304.582	1.48
304.957	1.47
305.332	1.6
305.707	1.5
306.082	1.63
306.456	1.46
306.831	1.36
307.206	1.45
307.58	1.54
307.955	1.4
308.33	1.46
308.704	1.42
309.079	1.46
309.453	1.55
309.828	1.45
310.202	1.4
310.576	1.44
310.951	1.56
311.325	1.35
311.699	1.42
312.073	1.43
312.447	1.5
312.821	1.48
313.196	1.49
313.57	1.37
313.944	1.4
314.317	1.38
314.691	1.46
315.065	1.41
315.439	1.53
315.813	1.56
316.187	1.46
316.56	1.54
316.934	1.48
317.308	1.58
317.681	1.72
318.055	1.49
318.428	1.56
318.802	1.54
319.175	1.5
319.549	1.62
319.922	1.32
320.295	1.34
320.669	1.53
321.042	1.52
321.415	1.59
321.788	1.53
322.162	1.54
322.535	1.7
322.908	1.52
323.281	1.45
323.654	1.51
324.027	1.39
324.4	1.69
324.773	1.61
325.145	1.67
325.518	1.44
325.891	1.4
326.264	1.72
326.636	1.39
327.009	1.52
327.382	1.48
327.754	1.52
328.127	1.44
328.499	1.4
328.872	1.57
329.244	1.47
329.616	1.55
329.989	1.49
330.361	1.51
330.733	1.54
331.106	1.42
331.478	1.63
331.85	1.42
332.222	1.4
332.594	1.41
332.966	1.6
333.338	1.75
333.71	1.69
334.082	1.68
334.454	1.39
334.826	1.56
335.197	1.44
335.569	1.52
335.941	1.48
336.312	1.57
336.684	1.41
337.056	1.55
337.427	1.6
337.799	1.5
338.17	1.57
338.542	1.55
338.913	1.48
339.284	1.67
339.656	1.47
340.027	1.5
340.398	1.61
340.769	1.56
341.141	1.61
341.512	1.47
341.883	1.6
342.254	1.6
342.625	1.52
342.996	1.66
343.367	1.53
343.738	1.45
344.108	1.39
344.479	1.8
344.85	1.49
345.221	1.61
345.591	1.42
345.962	1.55
346.333	1.51
346.703	1.28
347.074	1.29
347.444	1.31
347.815	1.45
348.185	1.44
348.556	1.3
348.926	1.41
349.296	1.34
349.666	1.28
350.037	1.28
350.407	1.2
350.777	1.39
351.147	1.38
351.517	1.35
351.887	1.32
352.257	1.44
352.627	1.29
352.997	1.34
353.367	1.45
353.737	1.44
354.106	1.43
354.476	1.31
354.846	1.46
355.216	1.35
355.585	1.37
355.955	1.43
356.324	1.44
356.694	1.32
357.063	1.35
357.433	1.32
357.802	1.35
358.171	1.37
358.541	1.31
358.91	1.39
359.279	1.38
359.648	1.26
360.017	1.4
360.387	1.33
360.756	1.22
361.125	1.25
361.494	1.33
361.863	1.28
362.231	1.32
362.6	1.31
362.969	1.33
363.338	1.28
363.707	1.28
364.075	1.24
364.444	1.18
364.813	1.25
365.181	1.26
365.55	1.21
365.918	1.3
366.287	1.25
366.655	1.27
367.024	1.26
367.392	1.27
367.76	1.24
368.128	1.24
368.497	1.23
368.865	1.2
369.233	1.24
369.601	1.25
369.969	1.17
370.337	1.24
370.705	1.2
371.073	1.18
371.441	1.23
371.809	1.18
372.177	1.18
372.544	1.17
372.912	1.3
373.28	1.23
373.647	1.26
374.015	1.31
374.383	1.31
374.75	1.28
375.118	1.28
375.485	1.27
375.853	1.32
376.22	1.26
376.587	1.26
376.955	1.26
377.322	1.35
377.689	1.29
378.056	1.29
378.423	1.33
378.79	1.27
379.157	1.28
379.524	1.26
379.891	1.3
380.258	1.36
380.625	1.3
380.992	1.29
381.359	1.38
381.726	1.35
382.092	1.33
382.459	1.28
382.826	1.26
383.192	1.33
383.559	1.33
383.925	1.31
384.292	1.31
384.658	1.43
385.025	1.31
385.391	1.46
385.757	1.42
386.123	1.39
386.49	1.32
386.856	1.42
387.222	1.38
387.588	1.29
387.954	1.44
388.32	1.54
388.686	1.41
389.052	1.38
389.418	1.42
389.784	1.41
390.15	1.48
390.515	1.3
390.881	1.45
391.247	1.38
391.613	1.45
391.978	1.33
392.344	1.49
392.709	1.51
393.075	1.42
393.44	1.41
393.806	1.39
394.171	1.25
394.536	1.39
394.902	1.42
395.267	1.46
395.632	1.3
395.997	1.31
396.362	1.37
396.727	1.47
397.092	1.37
397.457	1.43
397.822	1.28
398.187	1.39
398.552	1.34
398.917	1.5
399.282	1.3
399.646	1.38
400.011	1.36
400.376	1.3
400.74	1.32
401.105	1.32
401.47	1.34
401.834	1.33
402.199	1.26
402.563	1.27
402.927	1.22
403.292	1.32
403.656	1.29
404.02	1.25
404.384	1.33
404.749	1.29
405.113	1.24
405.477	1.3
405.841	1.3
406.205	1.26
406.569	1.26
406.933	1.22
407.296	1.21
407.66	1.18
408.024	1.18
408.388	1.2
408.752	1.13
409.115	1.21
409.479	1.15
409.842	1.18
410.206	1.13
410.569	1.16
410.933	1.12
411.296	1.13
411.66	1.11
412.023	1.03
412.386	1.07
412.749	1.1
413.113	1.08
413.476	1.05
413.839	1.04
414.202	1.11
414.565	0.99
414.928	1.04
415.291	1.02
415.654	1.06
416.017	1.08
416.38	1.04
416.742	1.02
417.105	1
417.468	1.02
417.83	1
418.193	1.08
418.556	1.05
418.918	1
419.281	0.98
419.643	1.02
420.005	1.03
420.368	1.04
420.73	0.99
421.092	1.09
421.455	1.01
421.817	0.93
422.179	1.01
422.541	1.02
422.903	1.02
423.265	1.01
423.627	0.98
423.989	0.98
424.351	0.99
424.713	1.01
425.075	1.01
425.436	0.96
425.798	0.96
426.16	0.98
426.521	0.97
426.883	0.98
427.245	0.97
427.606	0.95
427.967	0.93
428.329	0.94
428.69	0.94
429.052	0.93
429.413	0.98
429.774	0.94
430.135	0.96
430.497	0.96
430.858	0.91
431.219	0.91
431.58	0.9
431.941	0.91
432.302	0.91
432.663	0.9
433.024	0.96
433.384	0.95
433.745	0.89
434.106	0.93
434.467	0.92
434.827	0.91
435.188	0.92
435.548	0.92
435.909	0.89
436.269	0.89
436.63	0.88
436.99	0.86
437.351	0.88
437.711	0.91
438.071	0.86
438.431	0.88
438.792	0.86
439.152	0.86
439.512	0.85
439.872	0.84
440.232	0.87
440.592	0.85
440.952	0.85
441.312	0.81
441.671	0.8
442.031	0.82
442.391	0.82
442.751	0.83
443.11	0.81
443.47	0.81
443.83	0.81
444.189	0.8
444.549	0.79
444.908	0.77
445.267	0.78
445.627	0.77
445.986	0.75
446.345	0.75
446.705	0.77
447.064	0.78
447.423	0.75
447.782	0.75
448.141	0.75
448.5	0.72
448.859	0.74
449.218	0.73
449.577	0.75
449.936	0.73
450.295	0.72
450.653	0.72
451.012	0.71
451.371	0.71
451.729	0.71
452.088	0.72
452.447	0.7
452.805	0.7
453.163	0.69
453.522	0.69
453.88	0.68
454.239	0.67
454.597	0.67
454.955	0.65
455.313	0.65
455.671	0.65
456.029	0.64
456.388	0.62
456.746	0.64
457.104	0.63
457.461	0.62
457.819	0.62
458.177	0.6
458.535	0.61
458.893	0.59
459.25	0.59
459.608	0.59
459.966	0.58
460.323	0.56
460.681	0.55
461.038	0.55
461.396	0.55
461.753	0.55
462.111	0.54
462.468	0.53
462.825	0.53
463.182	0.52
463.54	0.51
463.897	0.52
464.254	0.51
464.611	0.5
464.968	0.5
465.325	0.49
465.682	0.48
466.039	0.48
466.395	0.47
466.752	0.47
467.109	0.47
467.466	0.46
467.822	0.46
468.179	0.44
468.535	0.44
468.892	0.45
469.248	0.43
469.605	0.42
469.961	0.43
470.318	0.43
470.674	0.43
471.03	0.41
471.386	0.41
471.743	0.4
472.099	0.4
472.455	0.39
472.811	0.4
473.167	0.38
473.523	0.38
473.879	0.37
474.235	0.38
474.59	0.36
474.946	0.36
475.302	0.36
475.657	0.35
476.013	0.35
476.369	0.34
476.724	0.34
477.08	0.34
477.435	0.34
477.791	0.33
478.146	0.33
478.501	0.32
478.857	0.32
479.212	0.32
479.567	0.31
479.922	0.3
480.277	0.3
480.632	0.29
480.987	0.29
481.342	0.29
481.697	0.28
482.052	0.28
482.407	0.27
482.762	0.27
483.116	0.27
483.471	0.27
483.826	0.26
484.18	0.26
484.535	0.25
484.89	0.25
485.244	0.25
485.598	0.25
485.953	0.25
486.307	0.24
486.661	0.25
487.016	0.24
487.37	0.24
487.724	0.24
488.078	0.24
488.432	0.23
488.786	0.23
489.14	0.23
489.494	0.22
489.848	0.22
490.202	0.22
490.556	0.21
490.91	0.21
491.263	0.21
491.617	0.21
491.971	0.21
492.324	0.21
492.678	0.21
493.031	0.21
493.385	0.2
493.738	0.2
494.091	0.2
494.445	0.2
494.798	0.2
495.151	0.2
495.504	0.2
495.857	0.2
496.21	0.19
496.564	0.19
496.916	0.19
497.269	0.18
497.622	0.19
497.975	0.19
498.328	0.18
498.681	0.18
499.033	0.18
499.386	0.18
499.739	0.18
500.091	0.18
500.444	0.17
500.796	0.17
501.149	0.17
501.501	0.17
501.854	0.17
502.206	0.18
502.558	0.17
502.91	0.18
503.263	0.18
503.615	0.18
503.967	0.17
504.319	0.18
504.671	0.18
505.023	0.17
505.375	0.17
505.726	0.17
506.078	0.17
506.43	0.16
506.782	0.17
507.133	0.17
507.485	0.17
507.837	0.18
508.188	0.17
508.54	0.17
508.891	0.18
509.243	0.16
509.594	0.17
509.945	0.16
510.296	0.16
510.648	0.16
510.999	0.15
511.35	0.16
511.701	0.16
512.052	0.17
512.403	0.17
512.754	0.17
513.105	0.16
513.456	0.16
513.807	0.16
514.157	0.16
514.508	0.16
514.859	0.16
515.209	0.16
515.56	0.16
515.91	0.15
516.261	0.17
516.611	0.16
516.962	0.16
517.312	0.16
517.662	0.16
518.013	0.17
518.363	0.16
518.713	0.17
519.063	0.17
519.413	0.16
519.763	0.16
520.113	0.16
520.463	0.17
520.813	0.17
521.163	0.17
521.512	0.16
521.862	0.17
522.212	0.17
522.562	0.17
522.911	0.17
523.261	0.17
523.61	0.17
523.96	0.16
524.309	0.16
524.658	0.17
525.008	0.17
525.357	0.16
525.706	0.17
526.056	0.17
526.405	0.16
526.754	0.16
527.103	0.16
527.452	0.17
527.801	0.17
528.15	0.17
528.499	0.17
528.847	0.17
529.196	0.17
529.545	0.17
529.893	0.17
530.242	0.17
530.591	0.17
530.939	0.18
531.288	0.18
531.636	0.18
531.985	0.17
532.333	0.17
532.681	0.17
533.029	0.18
533.378	0.18
533.726	0.17
534.074	0.18
534.422	0.17
534.77	0.18
535.118	0.17
535.466	0.17
535.814	0.18
536.162	0.17
536.509	0.18
536.857	0.17
537.205	0.18
537.552	0.18
537.9	0.18
538.248	0.17
538.595	0.18
538.943	0.18
539.29	0.18
539.637	0.18
539.985	0.18
540.332	0.18
540.679	0.18
541.026	0.17
541.373	0.18
541.721	0.17
542.068	0.17
542.415	0.17
542.762	0.18
543.108	0.17
543.455	0.16
543.802	0.17
544.149	0.17
544.496	0.17
544.842	0.16
545.189	0.16
545.535	0.16
545.882	0.16
546.228	0.17
546.575	0.16
546.921	0.16
547.267	0.16
547.614	0.17
547.96	0.17
548.306	0.17
548.652	0.16
548.998	0.17
549.344	0.16
549.69	0.16
550.036	0.17
550.382	0.17
550.728	0.17
551.074	0.17
551.42	0.17
551.765	0.17
552.111	0.17
552.457	0.18
552.802	0.16
553.148	0.17
553.493	0.17
553.839	0.17
554.184	0.17
554.529	0.17
554.875	0.17
555.22	0.18
555.565	0.17
555.91	0.18
556.255	0.18
556.6	0.18
556.945	0.17
557.29	0.18
557.635	0.18
557.98	0.18
558.325	0.18
558.67	0.18
559.014	0.18
559.359	0.17
559.704	0.18
560.048	0.17
560.393	0.17
560.737	0.17
561.082	0.18
561.426	0.16
561.77	0.17
562.115	0.17
562.459	0.17
562.803	0.17
563.147	0.16
563.491	0.17
563.835	0.18
564.179	0.18
564.523	0.18
564.867	0.17
565.211	0.17
565.555	0.18
565.899	0.19
566.242	0.18
566.586	0.17
566.93	0.18
567.273	0.19
567.617	0.18
567.96	0.18
568.304	0.18
568.647	0.18
568.99	0.17
569.334	0.18
569.677	0.18
570.02	0.18
570.363	0.18
570.706	0.18
571.049	0.18
571.392	0.19
571.735	0.17
572.078	0.18
572.421	0.19
572.764	0.18
573.106	0.19
573.449	0.18
573.792	0.18
574.134	0.18
574.477	0.18
574.819	0.18
575.162	0.18
575.504	0.18
575.847	0.18
576.189	0.18
576.531	0.18
576.873	0.17
577.215	0.18
577.558	0.18
577.9	0.17
578.242	0.18
578.584	0.17
578.926	0.18
579.267	0.18
579.609	0.18
579.951	0.17
580.293	0.18
580.634	0.18
580.976	0.18
581.318	0.18
581.659	0.17
582.001	0.18
582.342	0.18
582.683	0.18
583.025	0.17
583.366	0.18
583.707	0.17
584.049	0.18
584.39	0.18
584.731	0.17
585.072	0.17
585.413	0.19
585.754	0.18
586.095	0.18
586.435	0.18
586.776	0.17
587.117	0.17
587.458	0.17
587.798	0.17
588.139	0.17
588.48	0.17
588.82	0.17
589.161	0.17
589.501	0.17
589.841	0.17
590.182	0.17
590.522	0.17
590.862	0.18
591.202	0.17
591.542	0.18
591.882	0.17
592.222	0.17
592.562	0.17
592.902	0.17
593.242	0.17
593.582	0.18
593.922	0.18
594.261	0.17
594.601	0.17
594.941	0.17
595.28	0.17
595.62	0.17
595.959	0.17
596.299	0.16
596.638	0.17
596.977	0.17
597.317	0.18
597.656	0.18
597.995	0.17
598.334	0.19
598.673	0.18
599.012	0.18
599.351	0.18
599.69	0.17
600.029	0.18
600.368	0.18
600.707	0.18
601.046	0.18
601.384	0.18
601.723	0.19
602.061	0.18
602.4	0.18
602.738	0.18
603.077	0.18
603.415	0.17
603.754	0.18
604.092	0.17
604.43	0.17
604.768	0.18
605.107	0.18
605.445	0.17
605.783	0.17
606.121	0.16
606.459	0.17
606.796	0.17
607.134	0.17
607.472	0.17
607.81	0.17
608.148	0.16
608.485	0.18
608.823	0.18
609.16	0.17
609.498	0.17
609.835	0.16
610.173	0.17
610.51	0.17
610.847	0.17
611.185	0.17
611.522	0.18
611.859	0.18
612.196	0.17
612.533	0.17
612.87	0.18
613.207	0.18
613.544	0.18
613.881	0.18
614.217	0.18
614.554	0.18
614.891	0.18
615.228	0.18
615.564	0.18
615.901	0.18
616.237	0.19
616.574	0.18
616.91	0.19
617.246	0.18
617.583	0.18
617.919	0.18
618.255	0.18
618.591	0.17
618.927	0.18
619.263	0.18
619.599	0.18
619.935	0.18
620.271	0.18
620.607	0.17
620.943	0.18
621.279	0.18
621.614	0.18
621.95	0.18
622.286	0.17
622.621	0.18
622.957	0.18
623.292	0.17
623.627	0.17
623.963	0.17
624.298	0.17
624.633	0.17
624.968	0.17
625.304	0.17
625.639	0.17
625.974	0.17
626.309	0.16
626.644	0.17
626.979	0.17
627.313	0.17
627.648	0.17
627.983	0.17
628.318	0.16
628.652	0.16
628.987	0.16
629.321	0.16
629.656	0.16
629.99	0.16
630.325	0.16
630.659	0.17
630.993	0.16
631.327	0.15
631.662	0.15
631.996	0.15
632.33	0.15
632.664	0.16
632.998	0.15
633.332	0.15
633.666	0.15
633.999	0.15
634.333	0.15
634.667	0.15
635.001	0.15
635.334	0.15
635.668	0.15
636.001	0.15
636.335	0.15
636.668	0.15
637.001	0.14
637.335	0.15
637.668	0.15
638.001	0.15
638.334	0.15
638.668	0.15
639.001	0.15
639.334	0.14
639.667	0.14
639.999	0.15
640.332	0.14
640.665	0.15
640.998	0.15
641.331	0.15
641.663	0.14
641.996	0.15
642.328	0.15
642.661	0.15
642.993	0.15
643.326	0.15
643.658	0.15
643.99	0.15
644.323	0.15
644.655	0.15
644.987	0.15
645.319	0.15
645.651	0.16
645.983	0.16
646.315	0.15
646.647	0.15
646.979	0.16
647.31	0.16
647.642	0.15
647.974	0.15
648.305	0.15
648.637	0.15
648.968	0.14
649.3	0.15
649.631	0.16
649.963	0.15
650.294	0.15
650.625	0.15
650.957	0.16
651.288	0.15
651.619	0.15
651.95	0.15
652.281	0.15
652.612	0.15
652.943	0.15
653.274	0.15
653.604	0.15
653.935	0.15
654.266	0.15
654.596	0.15
654.927	0.15
655.258	0.15
655.588	0.16
655.918	0.15
656.249	0.13
656.579	0.15
656.909	0.14
657.24	0.14
657.57	0.14
657.9	0.14
658.23	0.14
658.56	0.15
658.89	0.15
659.22	0.14
659.55	0.14
659.88	0.14
660.209	0.15
660.539	0.15
660.869	0.15
661.198	0.14
661.528	0.14
661.857	0.14
662.187	0.14
662.516	0.14
662.846	0.13
663.175	0.14
663.504	0.14
663.833	0.14
664.163	0.14
664.492	0.13
664.821	0.14
665.15	0.14
665.479	0.14
665.807	0.13
666.136	0.14
666.465	0.14
666.794	0.14
667.122	0.14
667.451	0.14
667.78	0.14
668.108	0.15
668.437	0.14
668.765	0.15
669.093	0.15
669.422	0.15
669.75	0.14
670.078	0.14
670.406	0.15
670.734	0.14
671.062	0.14
671.39	0.13
671.718	0.14
672.046	0.13
672.374	0.13
672.702	0.13
673.029	0.13
673.357	0.14
673.685	0.14
674.012	0.13
674.34	0.13
674.667	0.14
674.995	0.13
675.322	0.14
675.649	0.13
675.977	0.13
676.304	0.13
676.631	0.13
676.958	0.13
677.285	0.13
677.612	0.12
677.939	0.13
678.266	0.13
678.593	0.12
678.92	0.14
679.246	0.13
679.573	0.13
679.9	0.13
680.226	0.13
680.553	0.12
680.879	0.13
681.206	0.12
681.532	0.13
681.858	0.13
682.184	0.13
682.511	0.13
682.837	0.13
683.163	0.13
683.489	0.13
683.815	0.13
684.141	0.13
684.467	0.13
684.793	0.13
685.118	0.13
685.444	0.13
685.77	0.12
686.095	0.13
686.421	0.12
686.746	0.13
687.072	0.12
687.397	0.12
687.723	0.13
688.048	0.13
688.373	0.12
688.698	0.12
689.023	0.12
689.349	0.12
689.674	0.12
689.999	0.12
690.323	0.11
690.648	0.12
690.973	0.1
691.298	0.11
691.623	0.12
691.947	0.11
692.272	0.11
692.596	0.12
692.921	0.12
693.245	0.12
693.57	0.12
693.894	0.12
694.218	0.12
694.543	0.12
694.867	0.12
695.191	0.11
695.515	0.12
695.839	0.11
696.163	0.12
696.487	0.12
696.811	0.12
697.135	0.12
697.458	0.12
697.782	0.12
698.106	0.11
698.429	0.12
698.753	0.12
699.076	0.12
699.4	0.12
699.723	0.12
700.046	0.11
700.37	0.11
700.693	0.11
701.016	0.12
701.339	0.12
701.662	0.12
701.985	0.11
702.308	0.11
702.631	0.12
702.954	0.12
703.277	0.11
703.599	0.11
703.922	0.11
704.245	0.11
704.567	0.1
704.89	0.11
705.212	0.11
705.535	0.11
705.857	0.1
706.179	0.1
706.502	0.1
706.824	0.1
707.146	0.1
707.468	0.1
707.79	0.11
708.112	0.11
708.434	0.11
708.756	0.11
709.078	0.11
709.399	0.1
709.721	0.1
710.043	0.1
710.364	0.1
710.686	0.11
711.007	0.1
711.329	0.11
711.65	0.11
711.972	0.11
712.293	0.12
712.614	0.11
712.935	0.1
713.256	0.11
713.577	0.11
713.898	0.1
714.219	0.1
714.54	0.1
714.861	0.1
715.182	0.1
715.503	0.1
715.823	0.1
716.144	0.1
716.464	0.09
716.785	0.09
717.105	0.1
717.426	0.1
717.746	0.1
718.066	0.09
718.387	0.1
718.707	0.09
719.027	0.1
719.347	0.09
719.667	0.1
719.987	0.09
720.307	0.09
720.627	0.09
720.947	0.09
721.266	0.09
721.586	0.08
721.906	0.09
722.225	0.08
722.545	0.09
722.864	0.09
723.184	0.09
723.503	0.09
723.823	0.1
724.142	0.08
724.461	0.09
724.78	0.09
725.099	0.1
725.418	0.09
725.737	0.09
726.056	0.1
726.375	0.09
726.694	0.1
727.013	0.1
727.331	0.08
727.65	0.09
727.969	0.09
728.287	0.1
728.606	0.08
728.924	0.09
729.242	0.09
729.561	0.09
729.879	0.09
730.197	0.09
730.515	0.08
730.834	0.09
731.152	0.09
731.47	0.08
731.788	0.09
732.105	0.09
732.423	0.09
732.741	0.09
733.059	0.08
733.376	0.09
733.694	0.08
734.012	0.09
734.329	0.09
734.647	0.09
734.964	0.09
735.281	0.09
735.599	0.1
735.916	0.1
736.233	0.09
736.55	0.09
736.867	0.09
737.184	0.1
737.501	0.08
737.818	0.1
738.135	0.09
738.452	0.09
738.768	0.09
739.085	0.09
739.402	0.07
739.718	0.09
740.035	0.08
740.351	0.09
740.668	0.09
740.984	0.08
741.3	0.08
741.617	0.08
741.933	0.08
742.249	0.09
742.565	0.09
742.881	0.09
743.197	0.09
743.513	0.08
743.829	0.08
744.144	0.09
744.46	0.07
744.776	0.09
745.091	0.08
745.407	0.08
745.722	0.08
746.038	0.08
746.353	0.07
746.669	0.08
746.984	0.07
747.299	0.07
747.614	0.08
747.93	0.08
748.245	0.08
748.56	0.07
748.875	0.07
749.189	0.08
749.504	0.07
749.819	0.07
750.134	0.07
750.448	0.07
750.763	0.07
751.078	0.07
751.392	0.07
751.707	0.08
752.021	0.08
752.335	0.08
752.65	0.08
752.964	0.07
753.278	0.08
753.592	0.08
753.906	0.07
754.22	0.07
754.534	0.08
754.848	0.08
755.162	0.08
755.476	0.08
755.789	0.08
756.103	0.07
756.417	0.08
756.73	0.08
757.044	0.08
757.357	0.08
757.671	0.07
757.984	0.07
758.297	0.08
758.61	0.08
758.924	0.07
759.237	0.08
759.55	0.07
759.863	0.07
760.176	0.08
760.488	0.07
760.801	0.07
761.114	0.07
761.427	0.07
761.739	0.07
762.052	0.06
762.365	0.08
762.677	0.07
762.99	0.06
763.302	0.07
763.614	0.07
763.926	0.07
764.239	0.07
764.551	0.07
764.863	0.07
765.175	0.08
765.487	0.07
765.799	0.06
766.111	0.06
766.423	0.07
766.734	0.07
767.046	0.06
767.358	0.07
767.669	0.07
767.981	0.07
768.292	0.06
768.604	0.07
768.915	0.06
769.226	0.07
769.537	0.06
769.849	0.07
770.16	0.06
770.471	0.06
770.782	0.07
771.093	0.07
771.404	0.05
771.715	0.05
772.025	0.06
772.336	0.07
772.647	0.06
772.957	0.06
773.268	0.07
773.578	0.07
773.889	0.07
774.199	0.08
774.51	0.07
774.82	0.06
775.13	0.07
775.44	0.07
775.75	0.08
776.06	0.07
776.37	0.07
776.68	0.08
776.99	0.07
777.3	0.07
777.61	0.07
777.92	0.07
778.229	0.07
778.539	0.07
778.848	0.07
779.158	0.07
779.467	0.07
779.777	0.07
780.086	0.07
780.395	0.06
780.704	0.06
781.013	0.06
781.323	0.05
781.632	0.06
781.941	0.06
782.249	0.06
782.558	0.07
782.867	0.06
783.176	0.05
783.485	0.07
783.793	0.06
784.102	0.05
784.41	0.06
784.719	0.06
785.027	0.06
785.335	0.06
785.644	0.06
785.952	0.07
786.26	0.06
786.568	0.05
786.876	0.06
787.184	0.06
787.492	0.06
787.8	0.05
788.108	0.06
788.416	0.06
788.723	0.06
789.031	0.05
789.338	0.06
789.646	0.06
789.953	0.07
790.261	0.07
790.568	0.06
790.876	0.06
791.183	0.07
791.49	0.06
791.797	0.06
792.104	0.05
792.411	0.07
792.718	0.06
793.025	0.06
793.332	0.07
793.639	0.07
793.945	0.08
794.252	0.06
794.559	0.07
794.865	0.06
795.172	0.06
795.478	0.06
795.784	0.07
796.091	0.06
796.397	0.07
796.703	0.07
797.009	0.08
797.315	0.07
797.622	0.08
797.927	0.07
798.233	0.07
798.539	0.08
798.845	0.07
799.151	0.07
799.456	0.07
799.762	0.07
800.068	0.06
800.373	0.07
800.679	0.07
800.984	0.07
801.289	0.07
801.595	0.07
801.9	0.07
802.205	0.07
802.51	0.06
802.815	0.07
803.12	0.06
803.425	0.07
803.73	0.06
804.035	0.07
804.339	0.07
804.644	0.07
804.949	0.07
805.253	0.06
805.558	0.06
805.862	0.06
806.167	0.06
806.471	0.06
806.775	0.06
807.08	0.06
807.384	0.06
807.688	0.06
807.992	0.06
808.296	0.06
808.6	0.06
808.904	0.07
809.207	0.06
809.511	0.07
809.815	0.07
810.119	0.06
810.422	0.07
810.726	0.07
811.029	0.08
811.332	0.07
811.636	0.07
811.939	0.07
812.242	0.07
812.546	0.06
812.849	0.07
813.152	0.07
813.455	0.07
813.758	0.07
814.06	0.07
814.363	0.07
814.666	0.08
814.969	0.07
815.271	0.07
815.574	0.06
815.877	0.07
816.179	0.06
816.481	0.06
816.784	0.06
817.086	0.06
817.388	0.06
817.69	0.05
817.993	0.05
818.295	0.05
818.597	0.05
818.899	0.06
819.2	0.05
819.502	0.05
819.804	0.06
820.106	0.05
820.407	0.04
820.709	0.05
821.01	0.05
821.312	0.05
821.613	0.04
821.915	0.05
822.216	0.05
822.517	0.04
822.818	0.04
823.119	0.04
823.42	0.05
823.721	0.04
824.022	0.05
824.323	0.04
824.624	0.04
824.925	0.05
825.226	0.05
825.526	0.05
825.827	0.05
826.127	0.05
826.428	0.05
826.728	0.04
827.028	0.05
827.329	0.04
827.629	0.04
827.929	0.04
828.229	0.04
828.529	0.04
828.829	0.04
829.129	0.04
829.429	0.04
829.729	0.05
830.029	0.05
830.328	0.04
830.628	0.03
830.927	0.03
831.227	0.03
831.526	0.04
831.826	0.04
832.125	0.04
832.424	0.03
832.724	0.04
833.023	0.03
833.322	0.03
833.621	0.03
833.92	0.03
834.219	0.04
834.518	0.03
834.816	0.02
835.115	0.03
835.414	0.03
835.712	0.02
836.011	0.02
836.309	0.02
836.608	0.01
836.906	0.01
837.205	0.01
837.503	0.01
837.801	0.01
838.099	0
838.397	-0
838.695	-0
838.993	-0
839.291	-0
839.589	-0
839.887	-0
840.184	-0
840.482	-0
840.78	-0
841.077	-0.01
841.375	-0.01
841.672	-0
841.969	-0.01
842.267	0
842.564	0
842.861	-0
843.158	-0.01
843.455	-0.02
843.752	-0.02
844.049	-0.01
844.346	-0.01
844.643	-0.02
844.94	-0.02
845.236	-0.01
845.533	-0.01
845.83	-0.01
846.126	-0.01
846.423	-0.02
846.719	-0.03
847.015	-0.02
847.312	-0.03
847.608	-0.03
847.904	-0.04
848.2	-0.03
848.496	-0.03
848.792	-0.03
849.088	-0.01
849.384	-0.03
849.68	-0.04
849.975	-0.03
850.271	-0.04
850.567	-0.03
850.862	-0.04
851.158	-0.03
851.453	-0.04
851.748	-0.05
852.044	-0.05
852.339	-0.04
852.634	-0.05
852.929	-0.04
853.224	-0.05
853.519	-0.05
853.814	-0.04
854.109	-0.05
854.404	-0.05
854.699	-0.05
854.994	-0.05
855.288	-0.05
855.583	-0.04
855.877	-0.06
856.172	-0.05
856.466	-0.06
856.76	-0.06
857.055	-0.06
857.349	-0.07
857.643	-0.08
857.937	-0.07
858.231	-0.07
858.525	-0.08
858.819	-0.08
859.113	-0.09
859.407	-0.09
859.701	-0.09
859.994	-0.1
860.288	-0.08
860.581	-0.09
860.875	-0.1
861.168	-0.1
861.462	-0.08
861.755	-0.1
862.048	-0.1
862.341	-0.1
862.634	-0.11
862.928	-0.1
863.221	-0.09
863.513	-0.11
863.806	-0.11
864.099	-0.11
864.392	-0.11
864.685	-0.1
864.977	-0.11
865.27	-0.11
865.562	-0.12
865.855	-0.11
866.147	-0.12
866.44	-0.11
866.732	-0.12
867.024	-0.13
867.316	-0.12
867.608	-0.12
867.9	-0.12
868.192	-0.13
868.484	-0.13
868.776	-0.13
869.068	-0.13
869.359	-0.13
869.651	-0.14
869.943	-0.14
870.234	-0.13
870.526	-0.14
870.817	-0.15
871.108	-0.11
871.4	-0.13
871.691	-0.13
871.982	-0.15
872.273	-0.15
872.564	-0.14
872.855	-0.15
873.146	-0.15
873.437	-0.14
873.728	-0.15
874.019	-0.15
874.309	-0.15
874.6	-0.15
874.89	-0.15
875.181	-0.15
875.471	-0.14
875.762	-0.14
876.052	-0.17
876.342	-0.16
876.632	-0.15
876.922	-0.16
877.213	-0.16
877.503	-0.18
877.792	-0.17
878.082	-0.17
878.372	-0.15
878.662	-0.19
878.952	-0.16
879.241	-0.17
879.531	-0.16
879.82	-0.17
880.11	-0.17
880.399	-0.16
880.688	-0.15
880.978	-0.15
881.267	-0.15
