Data from 12-12-AQDScycling_Absorbance__616__00616.txt Node

Date: Tue Dec 12 13:30:44 EST 2023
User: kyuminlee
Spectrometer: FLMS00943
Trigger mode: 0
Integration Time (sec): 1.000000E-1
Scans to average: 1
Electric dark correction enabled: true
Nonlinearity correction enabled: false
Boxcar width: 0
XAxis mode: Wavelengths
Number of Pixels in Spectrum: 2048
>>>>>Begin Spectral Data<<<<<
179.651	-0
180.037	-0
180.424	-0
180.81	0.01
181.197	-0.08
181.583	-0
181.97	-0.52
182.356	-0
182.743	-0
183.129	0.04
183.515	0.34
183.901	-2.43
184.288	0.41
184.674	-0
185.06	-0.98
185.446	-0
185.832	0.48
186.218	0.37
186.604	0.48
186.99	-0
187.376	-0
187.762	-0.43
188.148	1.18
188.534	-0.39
188.92	0.05
189.305	0.08
189.691	0.1
190.077	0.16
190.463	0.12
190.848	-0
191.234	0.33
191.619	0.04
192.005	0.22
192.391	0.01
192.776	0.09
193.161	0.02
193.547	0.04
193.932	0
194.318	-0.02
194.703	0.1
195.088	0.05
195.473	0.14
195.859	0.11
196.244	0.08
196.629	0.03
197.014	0.14
197.399	0.09
197.784	0.1
198.169	0.11
198.554	0.29
198.939	0.12
199.324	0.05
199.709	0.01
200.094	0.02
200.478	0.01
200.863	0.1
201.248	0.04
201.633	0.17
202.017	0.06
202.402	0.23
202.787	0.12
203.171	0.1
203.556	0.1
203.94	0.13
204.325	0.2
204.709	0.23
205.093	0.1
205.478	0.16
205.862	0.15
206.246	0.09
206.631	0.19
207.015	0.2
207.399	0.28
207.783	0.16
208.167	0.13
208.551	0.2
208.935	0.22
209.319	0.14
209.703	0.13
210.087	0.22
210.471	0.16
210.855	0.11
211.239	0.15
211.623	0.25
212.007	0.13
212.39	0.31
212.774	0.13
213.158	0.09
213.541	0.22
213.925	0.22
214.309	0.32
214.692	0.27
215.076	0.24
215.459	0.08
215.842	0.12
216.226	0.23
216.609	0.28
216.993	0.35
217.376	0.41
217.759	0.2
218.142	0.33
218.525	0.33
218.909	0.46
219.292	0.31
219.675	0.41
220.058	0.38
220.441	0.5
220.824	0.42
221.207	0.62
221.59	0.46
221.973	0.56
222.355	0.56
222.738	0.62
223.121	0.56
223.504	0.55
223.886	0.7
224.269	0.65
224.652	0.63
225.034	0.71
225.417	0.76
225.799	0.72
226.182	0.8
226.564	0.8
226.947	0.74
227.329	0.81
227.711	1.08
228.094	0.81
228.476	0.82
228.858	0.97
229.24	0.79
229.623	0.89
230.005	0.9
230.387	0.92
230.769	0.75
231.151	0.91
231.533	0.92
231.915	0.93
232.297	0.98
232.679	0.92
233.061	0.93
233.442	1.03
233.824	0.96
234.206	1.09
234.588	1.04
234.969	1.03
235.351	0.94
235.733	0.99
236.114	1.09
236.496	1.06
236.877	1.06
237.259	1
237.64	1.02
238.022	0.92
238.403	1.01
238.784	0.9
239.165	0.92
239.547	1
239.928	0.95
240.309	1.03
240.69	1.04
241.071	1.01
241.452	1.14
241.834	0.99
242.215	1.02
242.595	1.02
242.976	1.07
243.357	1.04
243.738	1.11
244.119	1.27
244.5	1.07
244.881	1.37
245.261	1.16
245.642	1.08
246.023	1.1
246.403	1.13
246.784	1.2
247.164	1.09
247.545	1.07
247.925	1.25
248.306	1.28
248.686	1.31
249.067	1.26
249.447	1.4
249.827	1.37
250.207	1.44
250.588	1.29
250.968	1.45
251.348	1.22
251.728	1.32
252.108	1.32
252.488	1.35
252.868	1.29
253.248	1.32
253.628	1.37
254.008	1.57
254.388	1.36
254.768	1.31
255.147	1.51
255.527	1.45
255.907	1.32
256.287	1.33
256.666	1.28
257.046	1.51
257.425	1.5
257.805	1.25
258.184	1.33
258.564	1.35
258.943	1.34
259.323	1.43
259.702	1.35
260.081	1.56
260.461	1.41
260.84	1.53
261.219	1.56
261.598	1.4
261.977	1.4
262.356	1.4
262.736	1.5
263.115	1.52
263.494	1.4
263.873	1.41
264.251	1.55
264.63	1.34
265.009	1.37
265.388	1.35
265.767	1.43
266.145	1.54
266.524	1.38
266.903	1.41
267.281	1.35
267.66	1.54
268.039	1.43
268.417	1.42
268.796	1.36
269.174	1.32
269.552	1.3
269.931	1.4
270.309	1.36
270.687	1.74
271.066	1.49
271.444	1.39
271.822	1.34
272.2	1.39
272.578	1.24
272.956	1.33
273.334	1.26
273.712	1.43
274.09	1.45
274.468	1.41
274.846	1.32
275.224	1.25
275.602	1.34
275.98	1.43
276.357	1.34
276.735	1.31
277.113	1.34
277.49	1.41
277.868	1.27
278.246	1.44
278.623	1.27
279.001	1.25
279.378	1.39
279.756	1.49
280.133	1.61
280.51	1.49
280.888	1.51
281.265	1.34
281.642	1.4
282.019	1.62
282.396	1.54
282.773	1.42
283.151	1.43
283.528	1.47
283.905	1.35
284.282	1.47
284.659	1.6
285.035	1.35
285.412	1.24
285.789	1.46
286.166	1.45
286.543	1.45
286.919	1.54
287.296	1.42
287.673	1.53
288.049	1.4
288.426	1.52
288.802	1.58
289.179	1.5
289.555	1.78
289.932	1.44
290.308	1.32
290.684	1.33
291.061	1.39
291.437	1.52
291.813	1.33
292.189	1.27
292.565	1.29
292.942	1.24
293.318	1.5
293.694	1.42
294.07	1.26
294.446	1.41
294.822	1.41
295.197	1.34
295.573	1.33
295.949	1.44
296.325	1.49
296.701	1.47
297.076	1.43
297.452	1.45
297.828	1.24
298.203	1.34
298.579	1.33
298.954	1.27
299.33	1.32
299.705	1.25
300.081	1.31
300.456	1.29
300.831	1.23
301.206	1.18
301.582	1.25
301.957	1.18
302.332	1.28
302.707	1.25
303.082	1.2
303.457	1.14
303.832	1.17
304.207	1.1
304.582	1.13
304.957	1.14
305.332	1.13
305.707	1.01
306.082	1.09
306.456	1.08
306.831	1.04
307.206	1.05
307.58	1.03
307.955	0.97
308.33	1.05
308.704	1.01
309.079	0.93
309.453	1
309.828	0.91
310.202	0.91
310.576	0.9
310.951	0.91
311.325	0.88
311.699	0.83
312.073	0.84
312.447	0.82
312.821	0.81
313.196	0.84
313.57	0.8
313.944	0.79
314.317	0.78
314.691	0.82
315.065	0.81
315.439	0.76
315.813	0.77
316.187	0.75
316.56	0.77
316.934	0.74
317.308	0.75
317.681	0.75
318.055	0.71
318.428	0.71
318.802	0.73
319.175	0.72
319.549	0.75
319.922	0.72
320.295	0.71
320.669	0.76
321.042	0.74
321.415	0.71
321.788	0.71
322.162	0.69
322.535	0.7
322.908	0.72
323.281	0.71
323.654	0.7
324.027	0.68
324.4	0.69
324.773	0.71
325.145	0.71
325.518	0.71
325.891	0.69
326.264	0.68
326.636	0.68
327.009	0.71
327.382	0.71
327.754	0.74
328.127	0.7
328.499	0.74
328.872	0.73
329.244	0.71
329.616	0.71
329.989	0.73
330.361	0.72
330.733	0.75
331.106	0.71
331.478	0.8
331.85	0.75
332.222	0.73
332.594	0.77
332.966	0.78
333.338	0.79
333.71	0.81
334.082	0.83
334.454	0.81
334.826	0.84
335.197	0.82
335.569	0.83
335.941	0.79
336.312	0.81
336.684	0.82
337.056	0.85
337.427	0.88
337.799	0.92
338.17	0.89
338.542	0.9
338.913	0.92
339.284	0.98
339.656	0.94
340.027	0.93
340.398	0.95
340.769	0.93
341.141	0.97
341.512	0.96
341.883	0.99
342.254	0.96
342.625	1.01
342.996	0.99
343.367	1.03
343.738	0.99
344.108	1.02
344.479	1.07
344.85	0.97
345.221	1.09
345.591	1.01
345.962	1.05
346.333	1.17
346.703	1.02
347.074	1.1
347.444	1.04
347.815	1.06
348.185	1.16
348.556	1.11
348.926	1.11
349.296	1.16
349.666	1.1
350.037	1.05
350.407	1.09
350.777	1.2
351.147	1.16
351.517	1.18
351.887	1.15
352.257	1.3
352.627	1.22
352.997	1.19
353.367	1.26
353.737	1.29
354.106	1.33
354.476	1.32
354.846	1.37
355.216	1.33
355.585	1.41
355.955	1.36
356.324	1.41
356.694	1.37
357.063	1.39
357.433	1.32
357.802	1.37
358.171	1.51
358.541	1.34
358.91	1.43
359.279	1.56
359.648	1.42
360.017	1.46
360.387	1.53
360.756	1.36
361.125	1.51
361.494	1.6
361.863	1.47
362.231	1.47
362.6	1.54
362.969	1.63
363.338	1.42
363.707	1.5
364.075	1.64
364.444	1.41
364.813	1.51
365.181	1.5
365.55	1.54
365.918	1.66
366.287	1.53
366.655	1.5
367.024	1.53
367.392	1.56
367.76	1.49
368.128	1.54
368.497	1.42
368.865	1.53
369.233	1.51
369.601	1.49
369.969	1.55
370.337	1.46
370.705	1.57
371.073	1.57
371.441	1.51
371.809	1.46
372.177	1.42
372.544	1.5
372.912	1.63
373.28	1.5
373.647	1.58
374.015	1.58
374.383	1.79
374.75	1.73
375.118	1.57
375.485	1.61
375.853	1.6
376.22	1.46
376.587	1.48
376.955	1.67
377.322	1.62
377.689	1.52
378.056	1.5
378.423	1.43
378.79	1.47
379.157	1.51
379.524	1.54
379.891	1.56
380.258	1.59
380.625	1.51
380.992	1.4
381.359	1.52
381.726	1.65
382.092	1.48
382.459	1.38
382.826	1.41
383.192	1.51
383.559	1.5
383.925	1.51
384.292	1.4
384.658	1.57
385.025	1.49
385.391	1.75
385.757	1.53
386.123	1.54
386.49	1.56
386.856	1.55
387.222	1.6
387.588	1.64
387.954	1.84
388.32	1.71
388.686	1.62
389.052	1.63
389.418	1.57
389.784	1.51
390.15	1.59
390.515	1.42
390.881	1.55
391.247	1.42
391.613	1.51
391.978	1.5
392.344	1.78
392.709	1.6
393.075	1.59
393.44	1.55
393.806	1.49
394.171	1.47
394.536	1.5
394.902	1.62
395.267	1.44
395.632	1.44
395.997	1.49
396.362	1.46
396.727	1.62
397.092	1.48
397.457	1.44
397.822	1.44
398.187	1.56
398.552	1.5
398.917	1.57
399.282	1.51
399.646	1.54
400.011	1.5
400.376	1.41
400.74	1.43
401.105	1.46
401.47	1.57
401.834	1.59
402.199	1.51
402.563	1.49
402.927	1.55
403.292	1.69
403.656	1.51
404.02	1.59
404.384	1.74
404.749	1.54
405.113	1.49
405.477	1.59
405.841	1.53
406.205	1.57
406.569	1.61
406.933	1.49
407.296	1.52
407.66	1.59
408.024	1.77
408.388	1.52
408.752	1.44
409.115	1.73
409.479	1.6
409.842	1.5
410.206	1.45
410.569	1.44
410.933	1.46
411.296	1.44
411.66	1.47
412.023	1.59
412.386	1.59
412.749	1.46
413.113	1.54
413.476	1.54
413.839	1.49
414.202	1.6
414.565	1.46
414.928	1.55
415.291	1.43
415.654	1.5
416.017	1.59
416.38	1.43
416.742	1.39
417.105	1.33
417.468	1.47
417.83	1.5
418.193	1.69
418.556	1.35
418.918	1.46
419.281	1.44
419.643	1.6
420.005	1.41
420.368	1.43
420.73	1.46
421.092	1.61
421.455	1.63
421.817	1.4
422.179	1.42
422.541	1.5
422.903	1.59
423.265	1.75
423.627	1.53
423.989	1.59
424.351	1.49
424.713	1.51
425.075	1.4
425.436	1.47
425.798	1.58
426.16	1.51
426.521	1.65
426.883	1.51
427.245	1.48
427.606	1.51
427.967	1.42
428.329	1.51
428.69	1.67
429.052	1.45
429.413	1.58
429.774	1.55
430.135	1.47
430.497	1.59
430.858	1.51
431.219	1.56
431.58	1.47
431.941	1.45
432.302	1.49
432.663	1.47
433.024	1.64
433.384	1.5
433.745	1.58
434.106	1.65
434.467	1.45
434.827	1.45
435.188	1.56
435.548	1.7
435.909	1.63
436.269	1.57
436.63	1.37
436.99	1.43
437.351	1.45
437.711	1.57
438.071	1.42
438.431	1.4
438.792	1.55
439.152	1.45
439.512	1.44
439.872	1.41
440.232	1.49
440.592	1.62
440.952	1.45
441.312	1.37
441.671	1.44
442.031	1.44
442.391	1.43
442.751	1.47
443.11	1.45
443.47	1.42
443.83	1.4
444.189	1.31
444.549	1.36
444.908	1.38
445.267	1.36
445.627	1.4
445.986	1.38
446.345	1.31
446.705	1.37
447.064	1.42
447.423	1.37
447.782	1.3
448.141	1.31
448.5	1.32
448.859	1.35
449.218	1.32
449.577	1.33
449.936	1.34
450.295	1.3
450.653	1.3
451.012	1.35
451.371	1.34
451.729	1.26
452.088	1.31
452.447	1.27
452.805	1.27
453.163	1.25
453.522	1.27
453.88	1.23
454.239	1.24
454.597	1.23
454.955	1.18
455.313	1.22
455.671	1.18
456.029	1.21
456.388	1.15
456.746	1.16
457.104	1.13
457.461	1.12
457.819	1.11
458.177	1.11
458.535	1.08
458.893	1.05
459.25	1.08
459.608	1.04
459.966	1.02
460.323	1.02
460.681	0.99
461.038	1
461.396	0.97
461.753	0.97
462.111	0.96
462.468	0.93
462.825	0.92
463.182	0.9
463.54	0.9
463.897	0.9
464.254	0.89
464.611	0.86
464.968	0.85
465.325	0.86
465.682	0.82
466.039	0.82
466.395	0.8
466.752	0.79
467.109	0.78
467.466	0.76
467.822	0.76
468.179	0.73
468.535	0.74
468.892	0.72
469.248	0.72
469.605	0.69
469.961	0.69
470.318	0.68
470.674	0.67
471.03	0.67
471.386	0.64
471.743	0.63
472.099	0.62
472.455	0.61
472.811	0.6
473.167	0.6
473.523	0.58
473.879	0.56
474.235	0.56
474.59	0.54
474.946	0.53
475.302	0.53
475.657	0.52
476.013	0.51
476.369	0.5
476.724	0.5
477.08	0.49
477.435	0.48
477.791	0.47
478.146	0.46
478.501	0.45
478.857	0.45
479.212	0.43
479.567	0.42
479.922	0.41
480.277	0.41
480.632	0.4
480.987	0.39
481.342	0.39
481.697	0.38
482.052	0.37
482.407	0.36
482.762	0.35
483.116	0.35
483.471	0.34
483.826	0.32
484.18	0.33
484.535	0.31
484.89	0.31
485.244	0.3
485.598	0.31
485.953	0.29
486.307	0.29
486.661	0.28
487.016	0.28
487.37	0.27
487.724	0.27
488.078	0.26
488.432	0.26
488.786	0.25
489.14	0.25
489.494	0.24
489.848	0.23
490.202	0.23
490.556	0.23
490.91	0.23
491.263	0.22
491.617	0.21
491.971	0.21
492.324	0.21
492.678	0.21
493.031	0.2
493.385	0.19
493.738	0.19
494.091	0.19
494.445	0.19
494.798	0.18
495.151	0.18
495.504	0.18
495.857	0.17
496.21	0.17
496.564	0.17
496.916	0.17
497.269	0.15
497.622	0.16
497.975	0.15
498.328	0.15
498.681	0.14
499.033	0.14
499.386	0.14
499.739	0.14
500.091	0.14
500.444	0.13
500.796	0.13
501.149	0.12
501.501	0.13
501.854	0.13
502.206	0.13
502.558	0.13
502.91	0.13
503.263	0.12
503.615	0.12
503.967	0.12
504.319	0.12
504.671	0.11
505.023	0.11
505.375	0.11
505.726	0.11
506.078	0.11
506.43	0.1
506.782	0.1
507.133	0.1
507.485	0.1
507.837	0.1
508.188	0.11
508.54	0.1
508.891	0.1
509.243	0.1
509.594	0.1
509.945	0.09
510.296	0.09
510.648	0.09
510.999	0.09
511.35	0.09
511.701	0.09
512.052	0.09
512.403	0.09
512.754	0.09
513.105	0.09
513.456	0.09
513.807	0.08
514.157	0.08
514.508	0.09
514.859	0.08
515.209	0.08
515.56	0.09
515.91	0.08
516.261	0.08
516.611	0.08
516.962	0.08
517.312	0.08
517.662	0.08
518.013	0.08
518.363	0.08
518.713	0.08
519.063	0.08
519.413	0.08
519.763	0.08
520.113	0.08
520.463	0.08
520.813	0.09
521.163	0.08
521.512	0.08
521.862	0.08
522.212	0.08
522.562	0.08
522.911	0.08
523.261	0.07
523.61	0.08
523.96	0.08
524.309	0.08
524.658	0.08
525.008	0.08
525.357	0.07
525.706	0.08
526.056	0.07
526.405	0.07
526.754	0.07
527.103	0.07
527.452	0.07
527.801	0.08
528.15	0.08
528.499	0.07
528.847	0.07
529.196	0.08
529.545	0.08
529.893	0.08
530.242	0.08
530.591	0.08
530.939	0.08
531.288	0.08
531.636	0.08
531.985	0.08
532.333	0.08
532.681	0.08
533.029	0.08
533.378	0.08
533.726	0.08
534.074	0.09
534.422	0.07
534.77	0.08
535.118	0.07
535.466	0.08
535.814	0.07
536.162	0.08
536.509	0.08
536.857	0.07
537.205	0.08
537.552	0.08
537.9	0.08
538.248	0.07
538.595	0.08
538.943	0.08
539.29	0.08
539.637	0.08
539.985	0.08
540.332	0.08
540.679	0.07
541.026	0.07
541.373	0.08
541.721	0.07
542.068	0.07
542.415	0.08
542.762	0.07
543.108	0.06
543.455	0.07
543.802	0.06
544.149	0.07
544.496	0.07
544.842	0.06
545.189	0.06
545.535	0.06
545.882	0.07
546.228	0.06
546.575	0.06
546.921	0.06
547.267	0.06
547.614	0.06
547.96	0.06
548.306	0.06
548.652	0.06
548.998	0.06
549.344	0.06
549.69	0.06
550.036	0.06
550.382	0.06
550.728	0.06
551.074	0.06
551.42	0.06
551.765	0.07
552.111	0.07
552.457	0.07
552.802	0.07
553.148	0.06
553.493	0.07
553.839	0.07
554.184	0.07
554.529	0.06
554.875	0.07
555.22	0.07
555.565	0.07
555.91	0.08
556.255	0.07
556.6	0.07
556.945	0.06
557.29	0.07
557.635	0.07
557.98	0.07
558.325	0.07
558.67	0.06
559.014	0.07
559.359	0.07
559.704	0.07
560.048	0.06
560.393	0.07
560.737	0.06
561.082	0.07
561.426	0.06
561.77	0.06
562.115	0.06
562.459	0.06
562.803	0.06
563.147	0.07
563.491	0.06
563.835	0.07
564.179	0.06
564.523	0.07
564.867	0.06
565.211	0.07
565.555	0.07
565.899	0.08
566.242	0.07
566.586	0.06
566.93	0.06
567.273	0.07
567.617	0.06
567.96	0.07
568.304	0.07
568.647	0.07
568.99	0.07
569.334	0.07
569.677	0.07
570.02	0.07
570.363	0.07
570.706	0.07
571.049	0.07
571.392	0.07
571.735	0.06
572.078	0.07
572.421	0.08
572.764	0.07
573.106	0.08
573.449	0.06
573.792	0.07
574.134	0.07
574.477	0.07
574.819	0.07
575.162	0.06
575.504	0.06
575.847	0.07
576.189	0.07
576.531	0.07
576.873	0.07
577.215	0.07
577.558	0.07
577.9	0.06
578.242	0.07
578.584	0.07
578.926	0.07
579.267	0.07
579.609	0.07
579.951	0.07
580.293	0.07
580.634	0.07
580.976	0.07
581.318	0.06
581.659	0.06
582.001	0.06
582.342	0.07
582.683	0.07
583.025	0.06
583.366	0.06
583.707	0.07
584.049	0.07
584.39	0.06
584.731	0.06
585.072	0.06
585.413	0.07
585.754	0.06
586.095	0.07
586.435	0.06
586.776	0.07
587.117	0.06
587.458	0.06
587.798	0.06
588.139	0.07
588.48	0.05
588.82	0.06
589.161	0.06
589.501	0.06
589.841	0.06
590.182	0.06
590.522	0.06
590.862	0.06
591.202	0.06
591.542	0.06
591.882	0.06
592.222	0.06
592.562	0.07
592.902	0.07
593.242	0.07
593.582	0.07
593.922	0.06
594.261	0.07
594.601	0.06
594.941	0.06
595.28	0.06
595.62	0.06
595.959	0.07
596.299	0.06
596.638	0.06
596.977	0.06
597.317	0.07
597.656	0.07
597.995	0.07
598.334	0.07
598.673	0.07
599.012	0.07
599.351	0.07
599.69	0.06
600.029	0.08
600.368	0.07
600.707	0.07
601.046	0.07
601.384	0.07
601.723	0.07
602.061	0.07
602.4	0.07
602.738	0.07
603.077	0.07
603.415	0.07
603.754	0.07
604.092	0.07
604.43	0.07
604.768	0.06
605.107	0.07
605.445	0.06
605.783	0.06
606.121	0.06
606.459	0.06
606.796	0.07
607.134	0.07
607.472	0.06
607.81	0.07
608.148	0.06
608.485	0.07
608.823	0.06
609.16	0.06
609.498	0.07
609.835	0.07
610.173	0.06
610.51	0.06
610.847	0.06
611.185	0.06
611.522	0.07
611.859	0.07
612.196	0.07
612.533	0.07
612.87	0.07
613.207	0.07
613.544	0.07
613.881	0.08
614.217	0.07
614.554	0.07
614.891	0.07
615.228	0.08
615.564	0.08
615.901	0.08
616.237	0.08
616.574	0.07
616.91	0.08
617.246	0.08
617.583	0.08
617.919	0.07
618.255	0.08
618.591	0.07
618.927	0.08
619.263	0.08
619.599	0.08
619.935	0.07
620.271	0.07
620.607	0.08
620.943	0.07
621.279	0.08
621.614	0.07
621.95	0.08
622.286	0.07
622.621	0.07
622.957	0.07
623.292	0.07
623.627	0.07
623.963	0.07
624.298	0.07
624.633	0.07
624.968	0.07
625.304	0.07
625.639	0.06
625.974	0.07
626.309	0.06
626.644	0.07
626.979	0.07
627.313	0.07
627.648	0.07
627.983	0.07
628.318	0.06
628.652	0.06
628.987	0.06
629.321	0.06
629.656	0.06
629.99	0.06
630.325	0.06
630.659	0.06
630.993	0.06
631.327	0.05
631.662	0.05
631.996	0.05
632.33	0.06
632.664	0.06
632.998	0.06
633.332	0.06
633.666	0.06
633.999	0.06
634.333	0.05
634.667	0.06
635.001	0.05
635.334	0.06
635.668	0.06
636.001	0.06
636.335	0.06
636.668	0.05
637.001	0.05
637.335	0.06
637.668	0.05
638.001	0.06
638.334	0.06
638.668	0.06
639.001	0.06
639.334	0.06
639.667	0.05
639.999	0.06
640.332	0.06
640.665	0.05
640.998	0.06
641.331	0.06
641.663	0.06
641.996	0.06
642.328	0.06
642.661	0.06
642.993	0.06
643.326	0.06
643.658	0.06
643.99	0.05
644.323	0.06
644.655	0.06
644.987	0.06
645.319	0.06
645.651	0.06
645.983	0.06
646.315	0.05
646.647	0.05
646.979	0.07
647.31	0.06
647.642	0.06
647.974	0.06
648.305	0.07
648.637	0.06
648.968	0.06
649.3	0.06
649.631	0.06
649.963	0.06
650.294	0.06
650.625	0.05
650.957	0.07
651.288	0.06
651.619	0.07
651.95	0.07
652.281	0.07
652.612	0.06
652.943	0.07
653.274	0.07
653.604	0.07
653.935	0.06
654.266	0.06
654.596	0.06
654.927	0.06
655.258	0.06
655.588	0.07
655.918	0.06
656.249	0.04
656.579	0.06
656.909	0.06
657.24	0.05
657.57	0.06
657.9	0.06
658.23	0.06
658.56	0.06
658.89	0.06
659.22	0.06
659.55	0.07
659.88	0.07
660.209	0.06
660.539	0.07
660.869	0.06
661.198	0.06
661.528	0.06
661.857	0.06
662.187	0.06
662.516	0.06
662.846	0.06
663.175	0.06
663.504	0.06
663.833	0.06
664.163	0.07
664.492	0.06
664.821	0.06
665.15	0.05
665.479	0.06
665.807	0.05
666.136	0.06
666.465	0.07
666.794	0.07
667.122	0.07
667.451	0.06
667.78	0.06
668.108	0.07
668.437	0.06
668.765	0.07
669.093	0.07
669.422	0.07
669.75	0.07
670.078	0.06
670.406	0.06
670.734	0.07
671.062	0.06
671.39	0.06
671.718	0.06
672.046	0.06
672.374	0.06
672.702	0.06
673.029	0.06
673.357	0.06
673.685	0.06
674.012	0.06
674.34	0.06
674.667	0.06
674.995	0.06
675.322	0.06
675.649	0.06
675.977	0.06
676.304	0.06
676.631	0.06
676.958	0.06
677.285	0.05
677.612	0.06
677.939	0.06
678.266	0.06
678.593	0.06
678.92	0.06
679.246	0.06
679.573	0.06
679.9	0.06
680.226	0.05
680.553	0.06
680.879	0.06
681.206	0.06
681.532	0.06
681.858	0.06
682.184	0.06
682.511	0.06
682.837	0.06
683.163	0.06
683.489	0.06
683.815	0.06
684.141	0.06
684.467	0.06
684.793	0.05
685.118	0.06
685.444	0.06
685.77	0.06
686.095	0.06
686.421	0.06
686.746	0.06
687.072	0.06
687.397	0.05
687.723	0.07
688.048	0.06
688.373	0.06
688.698	0.06
689.023	0.06
689.349	0.06
689.674	0.06
689.999	0.05
690.323	0.05
690.648	0.05
690.973	0.05
691.298	0.05
691.623	0.06
691.947	0.06
692.272	0.05
692.596	0.06
692.921	0.06
693.245	0.06
693.57	0.06
693.894	0.07
694.218	0.06
694.543	0.06
694.867	0.06
695.191	0.06
695.515	0.06
695.839	0.05
696.163	0.06
696.487	0.06
696.811	0.05
697.135	0.06
697.458	0.06
697.782	0.06
698.106	0.06
698.429	0.06
698.753	0.05
699.076	0.06
699.4	0.06
699.723	0.06
700.046	0.05
700.37	0.06
700.693	0.06
701.016	0.06
701.339	0.06
701.662	0.06
701.985	0.05
702.308	0.05
702.631	0.06
702.954	0.06
703.277	0.06
703.599	0.06
703.922	0.06
704.245	0.06
704.567	0.05
704.89	0.05
705.212	0.06
705.535	0.05
705.857	0.05
706.179	0.04
706.502	0.05
706.824	0.04
707.146	0.05
707.468	0.05
707.79	0.05
708.112	0.06
708.434	0.05
708.756	0.05
709.078	0.06
709.399	0.05
709.721	0.05
710.043	0.06
710.364	0.06
710.686	0.06
711.007	0.06
711.329	0.06
711.65	0.06
711.972	0.06
712.293	0.06
712.614	0.06
712.935	0.06
713.256	0.06
713.577	0.07
713.898	0.06
714.219	0.05
714.54	0.05
714.861	0.04
715.182	0.06
715.503	0.05
715.823	0.05
716.144	0.05
716.464	0.04
716.785	0.05
717.105	0.05
717.426	0.05
717.746	0.05
718.066	0.04
718.387	0.05
718.707	0.04
719.027	0.05
719.347	0.04
719.667	0.05
719.987	0.04
720.307	0.04
720.627	0.04
720.947	0.05
721.266	0.04
721.586	0.04
721.906	0.05
722.225	0.04
722.545	0.05
722.864	0.04
723.184	0.05
723.503	0.05
723.823	0.06
724.142	0.04
724.461	0.04
724.78	0.05
725.099	0.05
725.418	0.05
725.737	0.05
726.056	0.05
726.375	0.05
726.694	0.04
727.013	0.05
727.331	0.04
727.65	0.04
727.969	0.04
728.287	0.05
728.606	0.05
728.924	0.04
729.242	0.05
729.561	0.04
729.879	0.05
730.197	0.05
730.515	0.04
730.834	0.04
731.152	0.05
731.47	0.05
731.788	0.05
732.105	0.04
732.423	0.05
732.741	0.05
733.059	0.05
733.376	0.06
733.694	0.05
734.012	0.05
734.329	0.06
734.647	0.05
734.964	0.06
735.281	0.06
735.599	0.06
735.916	0.06
736.233	0.05
736.55	0.06
736.867	0.05
737.184	0.05
737.501	0.05
737.818	0.05
738.135	0.06
738.452	0.05
738.768	0.05
739.085	0.05
739.402	0.04
739.718	0.05
740.035	0.05
740.351	0.06
740.668	0.05
740.984	0.05
741.3	0.04
741.617	0.05
741.933	0.04
742.249	0.06
742.565	0.05
742.881	0.06
743.197	0.06
743.513	0.04
743.829	0.04
744.144	0.04
744.46	0.05
744.776	0.06
745.091	0.05
745.407	0.04
745.722	0.04
746.038	0.04
746.353	0.03
746.669	0.04
746.984	0.04
747.299	0.04
747.614	0.04
747.93	0.05
748.245	0.03
748.56	0.04
748.875	0.03
749.189	0.04
749.504	0.04
749.819	0.05
750.134	0.04
750.448	0.04
750.763	0.04
751.078	0.03
751.392	0.04
751.707	0.05
752.021	0.05
752.335	0.05
752.65	0.05
752.964	0.05
753.278	0.05
753.592	0.05
753.906	0.04
754.22	0.05
754.534	0.05
754.848	0.05
755.162	0.04
755.476	0.05
755.789	0.05
756.103	0.04
756.417	0.05
756.73	0.05
757.044	0.05
757.357	0.05
757.671	0.05
757.984	0.05
758.297	0.05
758.61	0.06
758.924	0.05
759.237	0.05
759.55	0.05
759.863	0.04
760.176	0.05
760.488	0.05
760.801	0.04
761.114	0.05
761.427	0.04
761.739	0.06
762.052	0.04
762.365	0.04
762.677	0.05
762.99	0.03
763.302	0.04
763.614	0.04
763.926	0.05
764.239	0.04
764.551	0.04
764.863	0.04
765.175	0.05
765.487	0.04
765.799	0.04
766.111	0.04
766.423	0.04
766.734	0.04
767.046	0.04
767.358	0.05
767.669	0.04
767.981	0.04
768.292	0.04
768.604	0.04
768.915	0.04
769.226	0.05
769.537	0.03
769.849	0.05
770.16	0.04
770.471	0.03
770.782	0.03
771.093	0.04
771.404	0.03
771.715	0.04
772.025	0.04
772.336	0.04
772.647	0.03
772.957	0.03
773.268	0.05
773.578	0.04
773.889	0.05
774.199	0.05
774.51	0.05
774.82	0.05
775.13	0.04
775.44	0.04
775.75	0.05
776.06	0.05
776.37	0.04
776.68	0.06
776.99	0.05
777.3	0.05
777.61	0.05
777.92	0.04
778.229	0.04
778.539	0.04
778.848	0.04
779.158	0.04
779.467	0.05
779.777	0.04
780.086	0.05
780.395	0.04
780.704	0.05
781.013	0.03
781.323	0.04
781.632	0.04
781.941	0.04
782.249	0.04
782.558	0.04
782.867	0.04
783.176	0.03
783.485	0.03
783.793	0.04
784.102	0.03
784.41	0.04
784.719	0.04
785.027	0.04
785.335	0.03
785.644	0.04
785.952	0.04
786.26	0.04
786.568	0.03
786.876	0.03
787.184	0.04
787.492	0.04
787.8	0.03
788.108	0.04
788.416	0.04
788.723	0.04
789.031	0.03
789.338	0.04
789.646	0.04
789.953	0.04
790.261	0.05
790.568	0.05
790.876	0.04
791.183	0.04
791.49	0.04
791.797	0.04
792.104	0.03
792.411	0.04
792.718	0.03
793.025	0.04
793.332	0.04
793.639	0.05
793.945	0.05
794.252	0.05
794.559	0.04
794.865	0.05
795.172	0.04
795.478	0.04
795.784	0.05
796.091	0.06
796.397	0.06
796.703	0.06
797.009	0.06
797.315	0.05
797.622	0.06
797.927	0.05
798.233	0.05
798.539	0.05
798.845	0.05
799.151	0.06
799.456	0.06
799.762	0.05
800.068	0.05
800.373	0.06
800.679	0.05
800.984	0.05
801.289	0.06
801.595	0.06
801.9	0.05
802.205	0.06
802.51	0.06
802.815	0.06
803.12	0.05
803.425	0.05
803.73	0.05
804.035	0.06
804.339	0.05
804.644	0.05
804.949	0.05
805.253	0.05
805.558	0.05
805.862	0.05
806.167	0.04
806.471	0.04
806.775	0.05
807.08	0.05
807.384	0.05
807.688	0.06
807.992	0.05
808.296	0.05
808.6	0.04
808.904	0.05
809.207	0.05
809.511	0.05
809.815	0.06
810.119	0.05
810.422	0.06
810.726	0.06
811.029	0.06
811.332	0.06
811.636	0.06
811.939	0.06
812.242	0.05
812.546	0.06
812.849	0.06
813.152	0.06
813.455	0.06
813.758	0.06
814.06	0.06
814.363	0.06
814.666	0.07
814.969	0.07
815.271	0.06
815.574	0.06
815.877	0.06
816.179	0.06
816.481	0.05
816.784	0.06
817.086	0.05
817.388	0.04
817.69	0.05
817.993	0.04
818.295	0.05
818.597	0.05
818.899	0.05
819.2	0.04
819.502	0.04
819.804	0.04
820.106	0.04
820.407	0.04
820.709	0.04
821.01	0.04
821.312	0.05
821.613	0.04
821.915	0.04
822.216	0.03
822.517	0.04
822.818	0.03
823.119	0.04
823.42	0.04
823.721	0.03
824.022	0.03
824.323	0.03
824.624	0.03
824.925	0.04
825.226	0.05
825.526	0.03
825.827	0.04
826.127	0.04
826.428	0.03
826.728	0.04
827.028	0.03
827.329	0.03
827.629	0.03
827.929	0.04
828.229	0.04
828.529	0.04
828.829	0.03
829.129	0.04
829.429	0.04
829.729	0.04
830.029	0.03
830.328	0.04
830.628	0.02
830.927	0.02
831.227	0.02
831.526	0.03
831.826	0.03
832.125	0.03
832.424	0.02
832.724	0.03
833.023	0.03
833.322	0.03
833.621	0.02
833.92	0.02
834.219	0.02
834.518	0.02
834.816	0.02
835.115	0.03
835.414	0.01
835.712	0.02
836.011	0.01
836.309	0.01
836.608	0.01
836.906	0.01
837.205	0
837.503	0.01
837.801	0
838.099	0.01
838.397	-0.01
838.695	-0.01
838.993	-0.01
839.291	-0.01
839.589	-0.01
839.887	-0.01
840.184	-0.01
840.482	-0.02
840.78	-0.01
841.077	-0.02
841.375	-0.01
841.672	-0.01
841.969	-0.02
842.267	-0.01
842.564	-0.01
842.861	-0.01
843.158	-0.01
843.455	-0.03
843.752	-0.03
844.049	-0.02
844.346	-0.02
844.643	-0.03
844.94	-0.03
845.236	-0.01
845.533	-0.03
845.83	-0.03
846.126	-0.03
846.423	-0.03
846.719	-0.04
847.015	-0.03
847.312	-0.03
847.608	-0.04
847.904	-0.05
848.2	-0.04
848.496	-0.03
848.792	-0.03
849.088	-0.03
849.384	-0.04
849.68	-0.04
849.975	-0.04
850.271	-0.04
850.567	-0.04
850.862	-0.05
851.158	-0.04
851.453	-0.05
851.748	-0.06
852.044	-0.05
852.339	-0.05
852.634	-0.07
852.929	-0.04
853.224	-0.05
853.519	-0.06
853.814	-0.05
854.109	-0.06
854.404	-0.06
854.699	-0.06
854.994	-0.06
855.288	-0.05
855.583	-0.05
855.877	-0.06
856.172	-0.06
856.466	-0.07
856.76	-0.07
857.055	-0.07
857.349	-0.08
857.643	-0.08
857.937	-0.09
858.231	-0.1
858.525	-0.09
858.819	-0.09
859.113	-0.11
859.407	-0.11
859.701	-0.11
859.994	-0.11
860.288	-0.1
860.581	-0.11
860.875	-0.11
861.168	-0.11
861.462	-0.11
861.755	-0.1
862.048	-0.11
862.341	-0.11
862.634	-0.1
862.928	-0.11
863.221	-0.11
863.513	-0.1
863.806	-0.12
864.099	-0.12
864.392	-0.11
864.685	-0.11
864.977	-0.11
865.27	-0.12
865.562	-0.12
865.855	-0.11
866.147	-0.12
866.44	-0.11
866.732	-0.12
867.024	-0.13
867.316	-0.13
867.608	-0.14
867.9	-0.13
868.192	-0.13
868.484	-0.13
868.776	-0.14
869.068	-0.13
869.359	-0.12
869.651	-0.13
869.943	-0.15
870.234	-0.14
870.526	-0.14
870.817	-0.15
871.108	-0.13
871.4	-0.14
871.691	-0.15
871.982	-0.16
872.273	-0.17
872.564	-0.16
872.855	-0.16
873.146	-0.15
873.437	-0.15
873.728	-0.17
874.019	-0.16
874.309	-0.17
874.6	-0.17
874.89	-0.17
875.181	-0.18
875.471	-0.16
875.762	-0.17
876.052	-0.16
876.342	-0.15
876.632	-0.16
876.922	-0.16
877.213	-0.17
877.503	-0.18
877.792	-0.17
878.082	-0.18
878.372	-0.15
878.662	-0.19
878.952	-0.18
879.241	-0.16
879.531	-0.16
879.82	-0.16
880.11	-0.17
880.399	-0.17
880.688	-0.14
880.978	-0.14
881.267	-0.14
