Data from 12-12-AQDScycling_Absorbance__273__00273.txt Node

Date: Tue Dec 12 12:05:02 EST 2023
User: kyuminlee
Spectrometer: FLMS00943
Trigger mode: 0
Integration Time (sec): 1.000000E-1
Scans to average: 1
Electric dark correction enabled: true
Nonlinearity correction enabled: false
Boxcar width: 0
XAxis mode: Wavelengths
Number of Pixels in Spectrum: 2048
>>>>>Begin Spectral Data<<<<<
179.651	-0
180.037	-0
180.424	-0
180.81	-0
181.197	0.2
181.583	-0
181.97	-0.08
182.356	-0
182.743	-0
183.129	0.11
183.515	-0
183.901	-2.44
184.288	-0.03
184.674	-0
185.06	-0.81
185.446	0.28
185.832	-0.69
186.218	0.07
186.604	-0
186.99	-0.54
187.376	0.02
187.762	-0
188.148	0.36
188.534	-0.25
188.92	0.15
189.305	0.02
189.691	0.29
190.077	0.25
190.463	0.07
190.848	-0.04
191.234	0.14
191.619	0.1
192.005	0.19
192.391	0.26
192.776	0.2
193.161	0.18
193.547	0.27
193.932	-0
194.318	0.01
194.703	0.05
195.088	0.19
195.473	0.24
195.859	0.17
196.244	0.3
196.629	0.39
197.014	0.2
197.399	0.17
197.784	0.21
198.169	0.11
198.554	0.38
198.939	0.17
199.324	0.16
199.709	0.02
200.094	0.05
200.478	0.15
200.863	0.18
201.248	0.16
201.633	0.04
202.017	0.14
202.402	0.2
202.787	0.09
203.171	0.11
203.556	0.2
203.94	0.33
204.325	0.29
204.709	0.32
205.093	0.16
205.478	0.34
205.862	0.12
206.246	0.25
206.631	0.13
207.015	0.08
207.399	0.23
207.783	0.31
208.167	0.16
208.551	0.25
208.935	0.2
209.319	0.19
209.703	0.27
210.087	0.2
210.471	0.06
210.855	0.11
211.239	0.11
211.623	0.44
212.007	0.33
212.39	0.24
212.774	0.45
213.158	0.2
213.541	0.2
213.925	0.25
214.309	0.28
214.692	0.3
215.076	0.23
215.459	0.14
215.842	0.13
216.226	0.35
216.609	0.18
216.993	0.1
217.376	0.49
217.759	0.28
218.142	0.34
218.525	0.53
218.909	0.32
219.292	0.37
219.675	0.4
220.058	0.53
220.441	0.42
220.824	0.48
221.207	0.56
221.59	0.52
221.973	0.58
222.355	0.56
222.738	0.67
223.121	0.61
223.504	0.62
223.886	0.64
224.269	0.66
224.652	0.61
225.034	0.73
225.417	0.8
225.799	0.84
226.182	0.88
226.564	0.78
226.947	0.78
227.329	0.94
227.711	0.9
228.094	1
228.476	0.94
228.858	0.93
229.24	0.83
229.623	1.12
230.005	0.78
230.387	0.85
230.769	0.93
231.151	0.98
231.533	1
231.915	1.02
232.297	1.08
232.679	1.05
233.061	1.01
233.442	1.11
233.824	1.05
234.206	0.97
234.588	1.18
234.969	1
235.351	1.14
235.733	1.09
236.114	1.44
236.496	1.11
236.877	1.05
237.259	1.03
237.64	1.04
238.022	1.05
238.403	1.01
238.784	1.03
239.165	0.92
239.547	1.05
239.928	1.03
240.309	1.11
240.69	1.09
241.071	1.04
241.452	1.24
241.834	1.05
242.215	1.12
242.595	1.06
242.976	1.15
243.357	1.19
243.738	1.01
244.119	1.4
244.5	1.06
244.881	1.18
245.261	1.14
245.642	1.16
246.023	1.15
246.403	1.16
246.784	1.46
247.164	1.42
247.545	1.24
247.925	1.35
248.306	1.26
248.686	1.37
249.067	1.28
249.447	1.36
249.827	1.51
250.207	1.38
250.588	1.42
250.968	1.53
251.348	1.48
251.728	1.51
252.108	1.4
252.488	1.32
252.868	1.35
253.248	1.31
253.628	1.45
254.008	1.58
254.388	1.36
254.768	1.27
255.147	1.33
255.527	1.39
255.907	1.43
256.287	1.35
256.666	1.43
257.046	1.54
257.425	1.73
257.805	1.38
258.184	1.34
258.564	1.4
258.943	1.4
259.323	1.53
259.702	1.68
260.081	1.47
260.461	1.64
260.84	1.56
261.219	1.61
261.598	1.52
261.977	1.46
262.356	1.39
262.736	1.48
263.115	1.58
263.494	1.33
263.873	1.55
264.251	1.47
264.63	1.59
265.009	1.49
265.388	1.45
265.767	1.44
266.145	1.43
266.524	1.4
266.903	1.4
267.281	1.33
267.66	1.46
268.039	1.38
268.417	1.38
268.796	1.42
269.174	1.46
269.552	1.36
269.931	1.53
270.309	1.57
270.687	1.49
271.066	1.5
271.444	1.4
271.822	1.45
272.2	1.42
272.578	1.41
272.956	1.43
273.334	1.38
273.712	1.49
274.09	1.33
274.468	1.35
274.846	1.51
275.224	1.41
275.602	1.51
275.98	1.52
276.357	1.4
276.735	1.59
277.113	1.38
277.49	1.31
277.868	1.21
278.246	1.41
278.623	1.33
279.001	1.4
279.378	1.4
279.756	1.48
280.133	1.43
280.51	1.33
280.888	1.4
281.265	1.37
281.642	1.45
282.019	1.57
282.396	1.56
282.773	1.42
283.151	1.51
283.528	1.47
283.905	1.46
284.282	1.45
284.659	1.53
285.035	1.44
285.412	1.35
285.789	1.59
286.166	1.38
286.543	1.56
286.919	1.47
287.296	1.46
287.673	1.71
288.049	1.39
288.426	1.56
288.802	1.36
289.179	1.42
289.555	1.65
289.932	1.45
290.308	1.37
290.684	1.54
291.061	1.32
291.437	1.59
291.813	1.64
292.189	1.37
292.565	1.36
292.942	1.37
293.318	1.39
293.694	1.39
294.07	1.43
294.446	1.41
294.822	1.56
295.197	1.49
295.573	1.49
295.949	1.47
296.325	1.53
296.701	1.49
297.076	1.72
297.452	1.53
297.828	1.52
298.203	1.64
298.579	1.38
298.954	1.42
299.33	1.41
299.705	1.5
300.081	1.52
300.456	1.47
300.831	1.41
301.206	1.45
301.582	1.55
301.957	1.48
302.332	1.52
302.707	1.46
303.082	1.46
303.457	1.65
303.832	1.51
304.207	1.49
304.582	1.46
304.957	1.47
305.332	1.57
305.707	1.43
306.082	1.54
306.456	1.57
306.831	1.56
307.206	1.45
307.58	1.52
307.955	1.4
308.33	1.46
308.704	1.48
309.079	1.43
309.453	1.55
309.828	1.51
310.202	1.41
310.576	1.53
310.951	1.63
311.325	1.5
311.699	1.49
312.073	1.36
312.447	1.37
312.821	1.38
313.196	1.46
313.57	1.34
313.944	1.36
314.317	1.41
314.691	1.52
315.065	1.41
315.439	1.58
315.813	1.46
316.187	1.41
316.56	1.7
316.934	1.63
317.308	1.4
317.681	1.5
318.055	1.43
318.428	1.44
318.802	1.52
319.175	1.49
319.549	1.83
319.922	1.35
320.295	1.52
320.669	1.69
321.042	1.51
321.415	1.66
321.788	1.49
322.162	1.45
322.535	1.55
322.908	1.42
323.281	1.51
323.654	1.58
324.027	1.55
324.4	1.59
324.773	1.57
325.145	1.45
325.518	1.39
325.891	1.43
326.264	1.63
326.636	1.38
327.009	1.38
327.382	1.65
327.754	1.67
328.127	1.51
328.499	1.52
328.872	1.47
329.244	1.47
329.616	1.53
329.989	1.52
330.361	1.48
330.733	1.43
331.106	1.43
331.478	1.57
331.85	1.47
332.222	1.43
332.594	1.5
332.966	1.58
333.338	1.59
333.71	1.53
334.082	1.6
334.454	1.48
334.826	1.51
335.197	1.55
335.569	1.62
335.941	1.31
336.312	1.63
336.684	1.41
337.056	1.55
337.427	1.48
337.799	1.66
338.17	1.71
338.542	1.47
338.913	1.48
339.284	1.64
339.656	1.48
340.027	1.55
340.398	1.51
340.769	1.56
341.141	1.65
341.512	1.53
341.883	1.62
342.254	1.47
342.625	1.46
342.996	1.51
343.367	1.49
343.738	1.5
344.108	1.51
344.479	1.64
344.85	1.36
345.221	1.6
345.591	1.51
345.962	1.4
346.333	1.39
346.703	1.36
347.074	1.4
347.444	1.25
347.815	1.47
348.185	1.53
348.556	1.39
348.926	1.31
349.296	1.44
349.666	1.29
350.037	1.28
350.407	1.25
350.777	1.37
351.147	1.5
351.517	1.4
351.887	1.36
352.257	1.47
352.627	1.34
352.997	1.29
353.367	1.47
353.737	1.34
354.106	1.49
354.476	1.27
354.846	1.45
355.216	1.4
355.585	1.45
355.955	1.38
356.324	1.33
356.694	1.35
357.063	1.34
357.433	1.23
357.802	1.28
358.171	1.32
358.541	1.3
358.91	1.39
359.279	1.37
359.648	1.31
360.017	1.31
360.387	1.26
360.756	1.26
361.125	1.35
361.494	1.39
361.863	1.26
362.231	1.24
362.6	1.21
362.969	1.27
363.338	1.21
363.707	1.31
364.075	1.31
364.444	1.12
364.813	1.22
365.181	1.25
365.55	1.15
365.918	1.22
366.287	1.23
366.655	1.28
367.024	1.22
367.392	1.27
367.76	1.19
368.128	1.21
368.497	1.2
368.865	1.22
369.233	1.22
369.601	1.18
369.969	1.15
370.337	1.24
370.705	1.22
371.073	1.22
371.441	1.23
371.809	1.1
372.177	1.25
372.544	1.21
372.912	1.24
373.28	1.18
373.647	1.17
374.015	1.4
374.383	1.33
374.75	1.3
375.118	1.2
375.485	1.2
375.853	1.21
376.22	1.24
376.587	1.17
376.955	1.21
377.322	1.29
377.689	1.27
378.056	1.19
378.423	1.17
378.79	1.2
379.157	1.26
379.524	1.32
379.891	1.27
380.258	1.34
380.625	1.27
380.992	1.26
381.359	1.32
381.726	1.37
382.092	1.18
382.459	1.22
382.826	1.31
383.192	1.29
383.559	1.35
383.925	1.28
384.292	1.27
384.658	1.34
385.025	1.29
385.391	1.4
385.757	1.3
386.123	1.33
386.49	1.26
386.856	1.33
387.222	1.38
387.588	1.32
387.954	1.54
388.32	1.44
388.686	1.43
389.052	1.41
389.418	1.43
389.784	1.35
390.15	1.53
390.515	1.27
390.881	1.47
391.247	1.34
391.613	1.39
391.978	1.37
392.344	1.42
392.709	1.46
393.075	1.42
393.44	1.47
393.806	1.4
394.171	1.25
394.536	1.43
394.902	1.4
395.267	1.37
395.632	1.3
395.997	1.29
396.362	1.38
396.727	1.34
397.092	1.31
397.457	1.3
397.822	1.34
398.187	1.43
398.552	1.28
398.917	1.39
399.282	1.32
399.646	1.3
400.011	1.39
400.376	1.25
400.74	1.24
401.105	1.33
401.47	1.39
401.834	1.28
402.199	1.31
402.563	1.29
402.927	1.26
403.292	1.35
403.656	1.23
404.02	1.23
404.384	1.29
404.749	1.2
405.113	1.21
405.477	1.24
405.841	1.19
406.205	1.2
406.569	1.17
406.933	1.17
407.296	1.19
407.66	1.16
408.024	1.19
408.388	1.14
408.752	1.16
409.115	1.19
409.479	1.17
409.842	1.11
410.206	1.11
410.569	1.11
410.933	1.12
411.296	1.09
411.66	1.11
412.023	1.07
412.386	1.13
412.749	1.08
413.113	1.05
413.476	1.04
413.839	1.06
414.202	1.04
414.565	1.02
414.928	1.03
415.291	0.95
415.654	1.02
416.017	1
416.38	1.02
416.742	1.04
417.105	0.98
417.468	1.01
417.83	0.99
418.193	1.08
418.556	1.02
418.918	1.04
419.281	1.03
419.643	1.04
420.005	1.01
420.368	0.97
420.73	0.95
421.092	1
421.455	1.02
421.817	0.92
422.179	1.01
422.541	0.99
422.903	1.02
423.265	0.97
423.627	0.94
423.989	0.96
424.351	0.95
424.713	0.97
425.075	0.94
425.436	0.95
425.798	0.94
426.16	0.94
426.521	0.96
426.883	0.96
427.245	0.93
427.606	0.91
427.967	0.94
428.329	0.91
428.69	0.95
429.052	0.89
429.413	0.94
429.774	0.94
430.135	0.92
430.497	0.91
430.858	0.91
431.219	0.91
431.58	0.88
431.941	0.94
432.302	0.9
432.663	0.89
433.024	0.93
433.384	0.89
433.745	0.85
434.106	0.88
434.467	0.87
434.827	0.89
435.188	0.89
435.548	0.92
435.909	0.87
436.269	0.89
436.63	0.83
436.99	0.85
437.351	0.85
437.711	0.86
438.071	0.83
438.431	0.84
438.792	0.84
439.152	0.83
439.512	0.83
439.872	0.8
440.232	0.86
440.592	0.83
440.952	0.81
441.312	0.79
441.671	0.8
442.031	0.81
442.391	0.79
442.751	0.83
443.11	0.78
443.47	0.76
443.83	0.78
444.189	0.78
444.549	0.76
444.908	0.77
445.267	0.76
445.627	0.75
445.986	0.74
446.345	0.74
446.705	0.75
447.064	0.76
447.423	0.75
447.782	0.72
448.141	0.72
448.5	0.71
448.859	0.71
449.218	0.71
449.577	0.71
449.936	0.72
450.295	0.71
450.653	0.71
451.012	0.69
451.371	0.7
451.729	0.68
452.088	0.7
452.447	0.69
452.805	0.68
453.163	0.67
453.522	0.68
453.88	0.66
454.239	0.65
454.597	0.65
454.955	0.64
455.313	0.64
455.671	0.64
456.029	0.63
456.388	0.63
456.746	0.62
457.104	0.61
457.461	0.6
457.819	0.6
458.177	0.59
458.535	0.58
458.893	0.58
459.25	0.56
459.608	0.56
459.966	0.56
460.323	0.55
460.681	0.53
461.038	0.53
461.396	0.53
461.753	0.53
462.111	0.52
462.468	0.51
462.825	0.51
463.182	0.51
463.54	0.5
463.897	0.5
464.254	0.5
464.611	0.49
464.968	0.48
465.325	0.48
465.682	0.47
466.039	0.47
466.395	0.45
466.752	0.46
467.109	0.46
467.466	0.44
467.822	0.45
468.179	0.43
468.535	0.43
468.892	0.42
469.248	0.41
469.605	0.41
469.961	0.41
470.318	0.43
470.674	0.4
471.03	0.4
471.386	0.4
471.743	0.39
472.099	0.39
472.455	0.38
472.811	0.38
473.167	0.38
473.523	0.36
473.879	0.36
474.235	0.35
474.59	0.35
474.946	0.34
475.302	0.34
475.657	0.34
476.013	0.33
476.369	0.33
476.724	0.33
477.08	0.32
477.435	0.32
477.791	0.31
478.146	0.32
478.501	0.31
478.857	0.31
479.212	0.3
479.567	0.29
479.922	0.29
480.277	0.3
480.632	0.28
480.987	0.29
481.342	0.28
481.697	0.27
482.052	0.28
482.407	0.27
482.762	0.26
483.116	0.26
483.471	0.25
483.826	0.25
484.18	0.25
484.535	0.25
484.89	0.25
485.244	0.24
485.598	0.25
485.953	0.24
486.307	0.24
486.661	0.24
487.016	0.23
487.37	0.23
487.724	0.23
488.078	0.22
488.432	0.23
488.786	0.22
489.14	0.22
489.494	0.21
489.848	0.21
490.202	0.21
490.556	0.21
490.91	0.21
491.263	0.21
491.617	0.21
491.971	0.2
492.324	0.2
492.678	0.2
493.031	0.21
493.385	0.2
493.738	0.21
494.091	0.2
494.445	0.2
494.798	0.2
495.151	0.19
495.504	0.18
495.857	0.19
496.21	0.19
496.564	0.18
496.916	0.19
497.269	0.18
497.622	0.19
497.975	0.18
498.328	0.19
498.681	0.18
499.033	0.18
499.386	0.18
499.739	0.18
500.091	0.17
500.444	0.17
500.796	0.18
501.149	0.17
501.501	0.17
501.854	0.17
502.206	0.17
502.558	0.17
502.91	0.17
503.263	0.17
503.615	0.17
503.967	0.16
504.319	0.16
504.671	0.16
505.023	0.16
505.375	0.16
505.726	0.17
506.078	0.17
506.43	0.15
506.782	0.16
507.133	0.16
507.485	0.16
507.837	0.17
508.188	0.17
508.54	0.17
508.891	0.17
509.243	0.16
509.594	0.16
509.945	0.16
510.296	0.15
510.648	0.16
510.999	0.15
511.35	0.16
511.701	0.16
512.052	0.16
512.403	0.16
512.754	0.15
513.105	0.15
513.456	0.15
513.807	0.15
514.157	0.16
514.508	0.16
514.859	0.15
515.209	0.15
515.56	0.15
515.91	0.15
516.261	0.16
516.611	0.15
516.962	0.15
517.312	0.16
517.662	0.15
518.013	0.15
518.363	0.15
518.713	0.15
519.063	0.15
519.413	0.15
519.763	0.15
520.113	0.15
520.463	0.15
520.813	0.15
521.163	0.15
521.512	0.15
521.862	0.16
522.212	0.15
522.562	0.16
522.911	0.16
523.261	0.15
523.61	0.15
523.96	0.16
524.309	0.15
524.658	0.15
525.008	0.15
525.357	0.15
525.706	0.16
526.056	0.15
526.405	0.16
526.754	0.14
527.103	0.15
527.452	0.15
527.801	0.15
528.15	0.16
528.499	0.15
528.847	0.15
529.196	0.16
529.545	0.16
529.893	0.16
530.242	0.16
530.591	0.17
530.939	0.16
531.288	0.16
531.636	0.16
531.985	0.16
532.333	0.16
532.681	0.17
533.029	0.16
533.378	0.16
533.726	0.16
534.074	0.17
534.422	0.16
534.77	0.16
535.118	0.16
535.466	0.16
535.814	0.16
536.162	0.17
536.509	0.16
536.857	0.16
537.205	0.17
537.552	0.17
537.9	0.16
538.248	0.16
538.595	0.16
538.943	0.16
539.29	0.17
539.637	0.16
539.985	0.16
540.332	0.16
540.679	0.16
541.026	0.16
541.373	0.16
541.721	0.16
542.068	0.15
542.415	0.16
542.762	0.15
543.108	0.15
543.455	0.15
543.802	0.15
544.149	0.15
544.496	0.15
544.842	0.15
545.189	0.14
545.535	0.15
545.882	0.15
546.228	0.15
546.575	0.15
546.921	0.15
547.267	0.15
547.614	0.15
547.96	0.16
548.306	0.14
548.652	0.15
548.998	0.15
549.344	0.16
549.69	0.15
550.036	0.15
550.382	0.16
550.728	0.15
551.074	0.16
551.42	0.15
551.765	0.16
552.111	0.17
552.457	0.17
552.802	0.16
553.148	0.15
553.493	0.16
553.839	0.16
554.184	0.16
554.529	0.16
554.875	0.17
555.22	0.17
555.565	0.17
555.91	0.16
556.255	0.17
556.6	0.16
556.945	0.16
557.29	0.16
557.635	0.17
557.98	0.16
558.325	0.16
558.67	0.16
559.014	0.16
559.359	0.16
559.704	0.16
560.048	0.15
560.393	0.16
560.737	0.15
561.082	0.16
561.426	0.15
561.77	0.16
562.115	0.15
562.459	0.16
562.803	0.15
563.147	0.15
563.491	0.15
563.835	0.16
564.179	0.16
564.523	0.16
564.867	0.16
565.211	0.16
565.555	0.16
565.899	0.17
566.242	0.16
566.586	0.15
566.93	0.16
567.273	0.16
567.617	0.16
567.96	0.16
568.304	0.16
568.647	0.16
568.99	0.16
569.334	0.17
569.677	0.16
570.02	0.17
570.363	0.17
570.706	0.16
571.049	0.16
571.392	0.16
571.735	0.16
572.078	0.16
572.421	0.17
572.764	0.16
573.106	0.16
573.449	0.15
573.792	0.16
574.134	0.15
574.477	0.16
574.819	0.15
575.162	0.16
575.504	0.15
575.847	0.16
576.189	0.16
576.531	0.16
576.873	0.16
577.215	0.16
577.558	0.16
577.9	0.16
578.242	0.16
578.584	0.16
578.926	0.16
579.267	0.16
579.609	0.17
579.951	0.16
580.293	0.16
580.634	0.17
580.976	0.17
581.318	0.16
581.659	0.16
582.001	0.16
582.342	0.16
582.683	0.16
583.025	0.15
583.366	0.16
583.707	0.16
584.049	0.15
584.39	0.16
584.731	0.16
585.072	0.16
585.413	0.16
585.754	0.16
586.095	0.16
586.435	0.16
586.776	0.16
587.117	0.16
587.458	0.16
587.798	0.16
588.139	0.16
588.48	0.15
588.82	0.16
589.161	0.16
589.501	0.16
589.841	0.16
590.182	0.16
590.522	0.16
590.862	0.16
591.202	0.15
591.542	0.16
591.882	0.16
592.222	0.16
592.562	0.16
592.902	0.15
593.242	0.15
593.582	0.17
593.922	0.15
594.261	0.16
594.601	0.15
594.941	0.16
595.28	0.16
595.62	0.16
595.959	0.15
596.299	0.16
596.638	0.16
596.977	0.17
597.317	0.16
597.656	0.16
597.995	0.15
598.334	0.16
598.673	0.15
599.012	0.15
599.351	0.16
599.69	0.16
600.029	0.16
600.368	0.16
600.707	0.15
601.046	0.15
601.384	0.16
601.723	0.16
602.061	0.15
602.4	0.16
602.738	0.16
603.077	0.16
603.415	0.16
603.754	0.16
604.092	0.16
604.43	0.15
604.768	0.15
605.107	0.16
605.445	0.15
605.783	0.15
606.121	0.15
606.459	0.15
606.796	0.16
607.134	0.15
607.472	0.14
607.81	0.15
608.148	0.15
608.485	0.16
608.823	0.16
609.16	0.15
609.498	0.15
609.835	0.15
610.173	0.15
610.51	0.16
610.847	0.16
611.185	0.17
611.522	0.15
611.859	0.16
612.196	0.16
612.533	0.17
612.87	0.16
613.207	0.16
613.544	0.16
613.881	0.16
614.217	0.17
614.554	0.16
614.891	0.16
615.228	0.16
615.564	0.15
615.901	0.16
616.237	0.15
616.574	0.16
616.91	0.16
617.246	0.16
617.583	0.16
617.919	0.17
618.255	0.17
618.591	0.16
618.927	0.16
619.263	0.17
619.599	0.16
619.935	0.17
620.271	0.17
620.607	0.17
620.943	0.17
621.279	0.17
621.614	0.16
621.95	0.17
622.286	0.15
622.621	0.15
622.957	0.15
623.292	0.15
623.627	0.15
623.963	0.15
624.298	0.16
624.633	0.15
624.968	0.15
625.304	0.15
625.639	0.14
625.974	0.14
626.309	0.14
626.644	0.14
626.979	0.15
627.313	0.15
627.648	0.14
627.983	0.15
628.318	0.14
628.652	0.14
628.987	0.15
629.321	0.15
629.656	0.14
629.99	0.14
630.325	0.15
630.659	0.15
630.993	0.15
631.327	0.15
631.662	0.14
631.996	0.14
632.33	0.14
632.664	0.14
632.998	0.14
633.332	0.14
633.666	0.14
633.999	0.14
634.333	0.14
634.667	0.14
635.001	0.14
635.334	0.14
635.668	0.14
636.001	0.14
636.335	0.14
636.668	0.14
637.001	0.13
637.335	0.14
637.668	0.14
638.001	0.13
638.334	0.13
638.668	0.14
639.001	0.14
639.334	0.12
639.667	0.13
639.999	0.12
640.332	0.13
640.665	0.12
640.998	0.13
641.331	0.13
641.663	0.12
641.996	0.12
642.328	0.13
642.661	0.13
642.993	0.13
643.326	0.13
643.658	0.13
643.99	0.12
644.323	0.12
644.655	0.13
644.987	0.12
645.319	0.13
645.651	0.13
645.983	0.12
646.315	0.12
646.647	0.12
646.979	0.14
647.31	0.14
647.642	0.13
647.974	0.13
648.305	0.13
648.637	0.14
648.968	0.14
649.3	0.14
649.631	0.14
649.963	0.13
650.294	0.14
650.625	0.13
650.957	0.14
651.288	0.14
651.619	0.14
651.95	0.14
652.281	0.13
652.612	0.14
652.943	0.14
653.274	0.14
653.604	0.13
653.935	0.13
654.266	0.14
654.596	0.13
654.927	0.13
655.258	0.13
655.588	0.13
655.918	0.13
656.249	0.12
656.579	0.12
656.909	0.12
657.24	0.13
657.57	0.14
657.9	0.13
658.23	0.13
658.56	0.13
658.89	0.14
659.22	0.13
659.55	0.14
659.88	0.14
660.209	0.14
660.539	0.15
660.869	0.14
661.198	0.14
661.528	0.13
661.857	0.13
662.187	0.14
662.516	0.13
662.846	0.13
663.175	0.13
663.504	0.13
663.833	0.13
664.163	0.13
664.492	0.13
664.821	0.13
665.15	0.13
665.479	0.13
665.807	0.12
666.136	0.13
666.465	0.12
666.794	0.12
667.122	0.12
667.451	0.12
667.78	0.12
668.108	0.12
668.437	0.12
668.765	0.12
669.093	0.12
669.422	0.12
669.75	0.12
670.078	0.13
670.406	0.13
670.734	0.12
671.062	0.13
671.39	0.13
671.718	0.13
672.046	0.13
672.374	0.12
672.702	0.13
673.029	0.12
673.357	0.13
673.685	0.13
674.012	0.12
674.34	0.12
674.667	0.13
674.995	0.13
675.322	0.13
675.649	0.12
675.977	0.12
676.304	0.12
676.631	0.12
676.958	0.12
677.285	0.11
677.612	0.12
677.939	0.12
678.266	0.12
678.593	0.12
678.92	0.12
679.246	0.11
679.573	0.12
679.9	0.11
680.226	0.11
680.553	0.11
680.879	0.12
681.206	0.11
681.532	0.11
681.858	0.11
682.184	0.11
682.511	0.11
682.837	0.11
683.163	0.11
683.489	0.11
683.815	0.1
684.141	0.11
684.467	0.11
684.793	0.11
685.118	0.11
685.444	0.11
685.77	0.11
686.095	0.11
686.421	0.11
686.746	0.11
687.072	0.11
687.397	0.11
687.723	0.12
688.048	0.12
688.373	0.11
688.698	0.12
689.023	0.11
689.349	0.12
689.674	0.12
689.999	0.11
690.323	0.1
690.648	0.11
690.973	0.1
691.298	0.1
691.623	0.1
691.947	0.1
692.272	0.1
692.596	0.1
692.921	0.1
693.245	0.1
693.57	0.11
693.894	0.1
694.218	0.1
694.543	0.1
694.867	0.1
695.191	0.1
695.515	0.1
695.839	0.09
696.163	0.1
696.487	0.1
696.811	0.09
697.135	0.1
697.458	0.1
697.782	0.09
698.106	0.1
698.429	0.1
698.753	0.1
699.076	0.1
699.4	0.09
699.723	0.1
700.046	0.09
700.37	0.11
700.693	0.1
701.016	0.1
701.339	0.1
701.662	0.1
701.985	0.1
702.308	0.09
702.631	0.1
702.954	0.11
703.277	0.09
703.599	0.1
703.922	0.09
704.245	0.09
704.567	0.09
704.89	0.09
705.212	0.09
705.535	0.09
705.857	0.09
706.179	0.08
706.502	0.08
706.824	0.08
707.146	0.09
707.468	0.09
707.79	0.09
708.112	0.1
708.434	0.09
708.756	0.1
709.078	0.09
709.399	0.09
709.721	0.09
710.043	0.09
710.364	0.09
710.686	0.1
711.007	0.09
711.329	0.09
711.65	0.09
711.972	0.09
712.293	0.09
712.614	0.09
712.935	0.09
713.256	0.08
713.577	0.1
713.898	0.09
714.219	0.09
714.54	0.09
714.861	0.08
715.182	0.09
715.503	0.08
715.823	0.09
716.144	0.08
716.464	0.08
716.785	0.08
717.105	0.08
717.426	0.09
717.746	0.08
718.066	0.07
718.387	0.07
718.707	0.07
719.027	0.08
719.347	0.07
719.667	0.07
719.987	0.06
720.307	0.07
720.627	0.07
720.947	0.08
721.266	0.07
721.586	0.07
721.906	0.07
722.225	0.06
722.545	0.06
722.864	0.07
723.184	0.07
723.503	0.06
723.823	0.07
724.142	0.06
724.461	0.07
724.78	0.07
725.099	0.07
725.418	0.07
725.737	0.07
726.056	0.07
726.375	0.08
726.694	0.07
727.013	0.07
727.331	0.06
727.65	0.06
727.969	0.07
728.287	0.07
728.606	0.06
728.924	0.07
729.242	0.06
729.561	0.07
729.879	0.07
730.197	0.07
730.515	0.07
730.834	0.07
731.152	0.07
731.47	0.06
731.788	0.06
732.105	0.06
732.423	0.07
732.741	0.06
733.059	0.06
733.376	0.07
733.694	0.05
734.012	0.07
734.329	0.06
734.647	0.07
734.964	0.07
735.281	0.07
735.599	0.07
735.916	0.07
736.233	0.06
736.55	0.07
736.867	0.07
737.184	0.07
737.501	0.07
737.818	0.07
738.135	0.07
738.452	0.06
738.768	0.07
739.085	0.06
739.402	0.05
739.718	0.07
740.035	0.08
740.351	0.07
740.668	0.07
740.984	0.07
741.3	0.06
741.617	0.06
741.933	0.07
742.249	0.07
742.565	0.07
742.881	0.07
743.197	0.07
743.513	0.06
743.829	0.06
744.144	0.07
744.46	0.07
744.776	0.06
745.091	0.06
745.407	0.06
745.722	0.06
746.038	0.06
746.353	0.06
746.669	0.07
746.984	0.06
747.299	0.06
747.614	0.07
747.93	0.07
748.245	0.06
748.56	0.07
748.875	0.06
749.189	0.06
749.504	0.07
749.819	0.08
750.134	0.06
750.448	0.06
750.763	0.07
751.078	0.06
751.392	0.07
751.707	0.08
752.021	0.07
752.335	0.07
752.65	0.07
752.964	0.07
753.278	0.06
753.592	0.06
753.906	0.06
754.22	0.06
754.534	0.06
754.848	0.06
755.162	0.06
755.476	0.06
755.789	0.07
756.103	0.06
756.417	0.07
756.73	0.07
757.044	0.07
757.357	0.06
757.671	0.06
757.984	0.07
758.297	0.07
758.61	0.07
758.924	0.07
759.237	0.07
759.55	0.07
759.863	0.06
760.176	0.07
760.488	0.07
760.801	0.07
761.114	0.06
761.427	0.06
761.739	0.06
762.052	0.06
762.365	0.06
762.677	0.06
762.99	0.05
763.302	0.06
763.614	0.06
763.926	0.07
764.239	0.06
764.551	0.06
764.863	0.06
765.175	0.06
765.487	0.06
765.799	0.05
766.111	0.05
766.423	0.06
766.734	0.05
767.046	0.05
767.358	0.06
767.669	0.06
767.981	0.06
768.292	0.05
768.604	0.06
768.915	0.06
769.226	0.05
769.537	0.05
769.849	0.06
770.16	0.06
770.471	0.05
770.782	0.05
771.093	0.05
771.404	0.04
771.715	0.04
772.025	0.05
772.336	0.04
772.647	0.04
772.957	0.05
773.268	0.05
773.578	0.04
773.889	0.05
774.199	0.05
774.51	0.04
774.82	0.05
775.13	0.05
775.44	0.05
775.75	0.05
776.06	0.05
776.37	0.05
776.68	0.05
776.99	0.06
777.3	0.05
777.61	0.05
777.92	0.04
778.229	0.05
778.539	0.05
778.848	0.05
779.158	0.06
779.467	0.05
779.777	0.05
780.086	0.06
780.395	0.05
780.704	0.05
781.013	0.04
781.323	0.05
781.632	0.05
781.941	0.05
782.249	0.05
782.558	0.05
782.867	0.05
783.176	0.04
783.485	0.05
783.793	0.05
784.102	0.05
784.41	0.05
784.719	0.05
785.027	0.05
785.335	0.04
785.644	0.04
785.952	0.04
786.26	0.05
786.568	0.04
786.876	0.04
787.184	0.04
787.492	0.04
787.8	0.05
788.108	0.04
788.416	0.04
788.723	0.05
789.031	0.03
789.338	0.04
789.646	0.04
789.953	0.05
790.261	0.04
790.568	0.05
790.876	0.04
791.183	0.05
791.49	0.04
791.797	0.05
792.104	0.03
792.411	0.05
792.718	0.05
793.025	0.05
793.332	0.05
793.639	0.05
793.945	0.06
794.252	0.05
794.559	0.05
794.865	0.05
795.172	0.05
795.478	0.05
795.784	0.05
796.091	0.05
796.397	0.05
796.703	0.05
797.009	0.06
797.315	0.06
797.622	0.05
797.927	0.05
798.233	0.05
798.539	0.06
798.845	0.05
799.151	0.06
799.456	0.06
799.762	0.05
800.068	0.05
800.373	0.06
800.679	0.05
800.984	0.05
801.289	0.04
801.595	0.05
801.9	0.04
802.205	0.05
802.51	0.04
802.815	0.05
803.12	0.04
803.425	0.05
803.73	0.05
804.035	0.05
804.339	0.04
804.644	0.05
804.949	0.04
805.253	0.04
805.558	0.05
805.862	0.05
806.167	0.04
806.471	0.05
806.775	0.05
807.08	0.05
807.384	0.05
807.688	0.05
807.992	0.06
808.296	0.05
808.6	0.05
808.904	0.06
809.207	0.05
809.511	0.06
809.815	0.06
810.119	0.05
810.422	0.05
810.726	0.07
811.029	0.06
811.332	0.05
811.636	0.06
811.939	0.05
812.242	0.05
812.546	0.05
812.849	0.05
813.152	0.06
813.455	0.05
813.758	0.06
814.06	0.06
814.363	0.05
814.666	0.06
814.969	0.05
815.271	0.06
815.574	0.05
815.877	0.05
816.179	0.05
816.481	0.04
816.784	0.05
817.086	0.04
817.388	0.04
817.69	0.04
817.993	0.04
818.295	0.04
818.597	0.03
818.899	0.04
819.2	0.03
819.502	0.03
819.804	0.04
820.106	0.03
820.407	0.03
820.709	0.04
821.01	0.04
821.312	0.04
821.613	0.03
821.915	0.03
822.216	0.04
822.517	0.03
822.818	0.03
823.119	0.04
823.42	0.04
823.721	0.03
824.022	0.03
824.323	0.04
824.624	0.03
824.925	0.04
825.226	0.05
825.526	0.04
825.827	0.04
826.127	0.03
826.428	0.04
826.728	0.03
827.028	0.04
827.329	0.04
827.629	0.03
827.929	0.04
828.229	0.04
828.529	0.04
828.829	0.04
829.129	0.04
829.429	0.04
829.729	0.04
830.029	0.03
830.328	0.03
830.628	0.02
830.927	0.02
831.227	0.02
831.526	0.03
831.826	0.03
832.125	0.03
832.424	0.02
832.724	0.03
833.023	0.03
833.322	0.03
833.621	0.02
833.92	0.02
834.219	0.03
834.518	0.03
834.816	0.02
835.115	0.03
835.414	0.02
835.712	0.02
836.011	0.02
836.309	0.01
836.608	0.01
836.906	0.01
837.205	0.01
837.503	0.01
837.801	0.01
838.099	0
838.397	0
838.695	0
838.993	0.01
839.291	0
839.589	-0
839.887	0
840.184	-0
840.482	-0.01
840.78	-0
841.077	-0.01
841.375	-0.01
841.672	-0.01
841.969	-0.02
842.267	-0.02
842.564	-0.03
842.861	-0.01
843.158	-0.02
843.455	-0.04
843.752	-0.03
844.049	-0.03
844.346	-0.03
844.643	-0.04
844.94	-0.04
845.236	-0.03
845.533	-0.03
845.83	-0.04
846.126	-0.04
846.423	-0.04
846.719	-0.05
847.015	-0.04
847.312	-0.06
847.608	-0.05
847.904	-0.05
848.2	-0.06
848.496	-0.05
848.792	-0.06
849.088	-0.05
849.384	-0.06
849.68	-0.06
849.975	-0.05
850.271	-0.06
850.567	-0.07
850.862	-0.06
851.158	-0.06
851.453	-0.06
851.748	-0.08
852.044	-0.07
852.339	-0.06
852.634	-0.08
852.929	-0.06
853.224	-0.08
853.519	-0.07
853.814	-0.06
854.109	-0.07
854.404	-0.07
854.699	-0.07
854.994	-0.07
855.288	-0.06
855.583	-0.07
855.877	-0.08
856.172	-0.07
856.466	-0.08
856.76	-0.08
857.055	-0.09
857.349	-0.09
857.643	-0.1
857.937	-0.11
858.231	-0.09
858.525	-0.09
858.819	-0.1
859.113	-0.11
859.407	-0.11
859.701	-0.11
859.994	-0.11
860.288	-0.1
860.581	-0.1
860.875	-0.11
861.168	-0.11
861.462	-0.11
861.755	-0.1
862.048	-0.12
862.341	-0.11
862.634	-0.11
862.928	-0.11
863.221	-0.11
863.513	-0.12
863.806	-0.12
864.099	-0.13
864.392	-0.11
864.685	-0.12
864.977	-0.12
865.27	-0.13
865.562	-0.12
865.855	-0.12
866.147	-0.13
866.44	-0.12
866.732	-0.13
867.024	-0.14
867.316	-0.13
867.608	-0.14
867.9	-0.14
868.192	-0.14
868.484	-0.13
868.776	-0.14
869.068	-0.14
869.359	-0.15
869.651	-0.14
869.943	-0.16
870.234	-0.15
870.526	-0.16
870.817	-0.16
871.108	-0.14
871.4	-0.15
871.691	-0.16
871.982	-0.17
872.273	-0.18
872.564	-0.17
872.855	-0.16
873.146	-0.17
873.437	-0.17
873.728	-0.18
874.019	-0.18
874.309	-0.17
874.6	-0.17
874.89	-0.18
875.181	-0.17
875.471	-0.17
875.762	-0.17
876.052	-0.17
876.342	-0.16
876.632	-0.17
876.922	-0.18
877.213	-0.18
877.503	-0.19
877.792	-0.17
878.082	-0.18
878.372	-0.16
878.662	-0.18
878.952	-0.18
879.241	-0.18
879.531	-0.16
879.82	-0.19
880.11	-0.18
880.399	-0.17
880.688	-0.17
880.978	-0.17
881.267	-0.17
