Data from 12-12-AQDScycling_Absorbance__675__00675.txt Node

Date: Tue Dec 12 13:45:29 EST 2023
User: kyuminlee
Spectrometer: FLMS00943
Trigger mode: 0
Integration Time (sec): 1.000000E-1
Scans to average: 1
Electric dark correction enabled: true
Nonlinearity correction enabled: false
Boxcar width: 0
XAxis mode: Wavelengths
Number of Pixels in Spectrum: 2048
>>>>>Begin Spectral Data<<<<<
179.651	-0.07
180.037	-0.07
180.424	-0.07
180.81	-0.09
181.197	0.21
181.583	-0
181.97	-0.52
182.356	-0
182.743	-1.18
183.129	0.9
183.515	-0
183.901	-2.1
184.288	-0
184.674	-0.05
185.06	-0.52
185.446	0.05
185.832	-0
186.218	0.62
186.604	-0
186.99	-0
187.376	-0
187.762	-0
188.148	0.39
188.534	0.26
188.92	0.03
189.305	0.05
189.691	0.1
190.077	0.16
190.463	0.11
190.848	-0.06
191.234	0.22
191.619	-0.02
192.005	0.05
192.391	0.1
192.776	0.18
193.161	0.19
193.547	0.17
193.932	0.17
194.318	0.09
194.703	0.21
195.088	0.18
195.473	0.17
195.859	0.12
196.244	0.16
196.629	0.07
197.014	0.1
197.399	0.22
197.784	0.18
198.169	0.1
198.554	0.25
198.939	0.04
199.324	0.14
199.709	0.07
200.094	0.02
200.478	-0.01
200.863	0.14
201.248	0.11
201.633	0.16
202.017	0.21
202.402	0.2
202.787	0.06
203.171	0.05
203.556	0.09
203.94	0.14
204.325	0.3
204.709	0.11
205.093	0.02
205.478	0.12
205.862	0.23
206.246	0.21
206.631	0.12
207.015	0.12
207.399	0.14
207.783	0.13
208.167	0.15
208.551	0.26
208.935	0.17
209.319	0.23
209.703	0.34
210.087	0.26
210.471	0.07
210.855	0.27
211.239	0.2
211.623	0.25
212.007	0.28
212.39	0.36
212.774	0.07
213.158	0.15
213.541	0.48
213.925	0.29
214.309	0.36
214.692	0.33
215.076	0.18
215.459	0.2
215.842	0.19
216.226	0.3
216.609	0.46
216.993	0.27
217.376	0.63
217.759	0.19
218.142	0.41
218.525	0.66
218.909	0.41
219.292	0.33
219.675	0.47
220.058	0.35
220.441	0.38
220.824	0.51
221.207	0.54
221.59	0.59
221.973	0.47
222.355	0.65
222.738	0.67
223.121	0.67
223.504	0.62
223.886	0.7
224.269	0.63
224.652	0.64
225.034	0.8
225.417	0.62
225.799	0.78
226.182	0.9
226.564	0.73
226.947	0.83
227.329	0.88
227.711	0.93
228.094	0.9
228.476	0.8
228.858	0.75
229.24	0.83
229.623	0.92
230.005	0.85
230.387	0.82
230.769	0.79
231.151	0.86
231.533	0.9
231.915	0.92
232.297	0.99
232.679	0.94
233.061	1.11
233.442	1.06
233.824	1.12
234.206	1.1
234.588	1.12
234.969	1.11
235.351	1.08
235.733	1.15
236.114	1.22
236.496	0.95
236.877	1.32
237.259	1.02
237.64	1.21
238.022	1.11
238.403	1.04
238.784	1
239.165	0.91
239.547	1.02
239.928	1.07
240.309	1.08
240.69	1.14
241.071	1.06
241.452	1.09
241.834	1.06
242.215	1.01
242.595	1.02
242.976	1.15
243.357	1.14
243.738	1.08
244.119	1.28
244.5	1.12
244.881	1.34
245.261	1.16
245.642	1.18
246.023	1.25
246.403	1.18
246.784	1.29
247.164	1.27
247.545	1.46
247.925	1.33
248.306	1.21
248.686	1.44
249.067	1.23
249.447	1.52
249.827	1.78
250.207	1.37
250.588	1.23
250.968	1.4
251.348	1.35
251.728	1.44
252.108	1.34
252.488	1.31
252.868	1.31
253.248	1.26
253.628	1.52
254.008	1.55
254.388	1.33
254.768	1.33
255.147	1.51
255.527	1.39
255.907	1.4
256.287	1.26
256.666	1.75
257.046	1.47
257.425	1.4
257.805	1.38
258.184	1.29
258.564	1.35
258.943	1.41
259.323	1.59
259.702	1.37
260.081	1.43
260.461	1.48
260.84	1.48
261.219	1.64
261.598	1.45
261.977	1.49
262.356	1.57
262.736	1.68
263.115	1.6
263.494	1.5
263.873	1.5
264.251	1.44
264.63	1.49
265.009	1.45
265.388	1.44
265.767	1.31
266.145	1.46
266.524	1.52
266.903	1.44
267.281	1.33
267.66	1.53
268.039	1.56
268.417	1.38
268.796	1.37
269.174	1.42
269.552	1.32
269.931	1.42
270.309	1.63
270.687	1.59
271.066	1.74
271.444	1.42
271.822	1.67
272.2	1.58
272.578	1.39
272.956	1.43
273.334	1.37
273.712	1.54
274.09	1.46
274.468	1.42
274.846	1.36
275.224	1.36
275.602	1.53
275.98	1.47
276.357	1.4
276.735	1.44
277.113	1.34
277.49	1.36
277.868	1.33
278.246	1.39
278.623	1.42
279.001	1.29
279.378	1.44
279.756	1.55
280.133	1.91
280.51	1.54
280.888	1.61
281.265	1.5
281.642	1.51
282.019	1.65
282.396	1.53
282.773	1.44
283.151	1.53
283.528	1.5
283.905	1.44
284.282	1.55
284.659	1.54
285.035	1.37
285.412	1.4
285.789	1.52
286.166	1.5
286.543	1.47
286.919	1.62
287.296	1.48
287.673	1.6
288.049	1.63
288.426	1.64
288.802	1.4
289.179	1.53
289.555	1.57
289.932	1.51
290.308	1.35
290.684	1.54
291.061	1.33
291.437	1.64
291.813	1.4
292.189	1.33
292.565	1.3
292.942	1.28
293.318	1.45
293.694	1.3
294.07	1.36
294.446	1.5
294.822	1.66
295.197	1.38
295.573	1.48
295.949	1.57
296.325	1.54
296.701	1.51
297.076	1.59
297.452	1.56
297.828	1.41
298.203	1.67
298.579	1.35
298.954	1.5
299.33	1.49
299.705	1.41
300.081	1.56
300.456	1.52
300.831	1.44
301.206	1.55
301.582	1.67
301.957	1.64
302.332	1.5
302.707	1.47
303.082	1.52
303.457	1.62
303.832	1.55
304.207	1.39
304.582	1.48
304.957	1.48
305.332	1.45
305.707	1.56
306.082	1.54
306.456	1.56
306.831	1.49
307.206	1.51
307.58	1.54
307.955	1.53
308.33	1.49
308.704	1.55
309.079	1.41
309.453	1.75
309.828	1.43
310.202	1.37
310.576	1.39
310.951	1.47
311.325	1.45
311.699	1.47
312.073	1.56
312.447	1.58
312.821	1.36
313.196	1.58
313.57	1.41
313.944	1.4
314.317	1.36
314.691	1.45
315.065	1.64
315.439	1.6
315.813	1.52
316.187	1.33
316.56	1.6
316.934	1.58
317.308	1.44
317.681	1.5
318.055	1.47
318.428	1.63
318.802	1.53
319.175	1.44
319.549	1.55
319.922	1.39
320.295	1.51
320.669	1.67
321.042	1.41
321.415	1.89
321.788	1.59
322.162	1.51
322.535	1.59
322.908	1.56
323.281	1.5
323.654	1.77
324.027	1.5
324.4	1.57
324.773	1.46
325.145	1.57
325.518	1.32
325.891	1.5
326.264	1.61
326.636	1.42
327.009	1.52
327.382	1.39
327.754	1.47
328.127	1.48
328.499	1.51
328.872	1.47
329.244	1.67
329.616	1.51
329.989	1.58
330.361	1.5
330.733	1.47
331.106	1.44
331.478	1.58
331.85	1.41
332.222	1.32
332.594	1.41
332.966	1.48
333.338	1.6
333.71	1.64
334.082	1.78
334.454	1.43
334.826	1.53
335.197	1.62
335.569	1.58
335.941	1.45
336.312	1.53
336.684	1.43
337.056	1.47
337.427	1.55
337.799	1.56
338.17	1.62
338.542	1.5
338.913	1.53
339.284	1.62
339.656	1.52
340.027	1.71
340.398	1.57
340.769	1.68
341.141	1.65
341.512	1.59
341.883	1.76
342.254	1.61
342.625	1.55
342.996	1.53
343.367	1.59
343.738	1.75
344.108	1.5
344.479	1.7
344.85	1.33
345.221	1.67
345.591	1.36
345.962	1.52
346.333	1.58
346.703	1.31
347.074	1.43
347.444	1.35
347.815	1.45
348.185	1.41
348.556	1.22
348.926	1.3
349.296	1.45
349.666	1.29
350.037	1.27
350.407	1.2
350.777	1.36
351.147	1.47
351.517	1.42
351.887	1.36
352.257	1.29
352.627	1.26
352.997	1.31
353.367	1.45
353.737	1.63
354.106	1.59
354.476	1.42
354.846	1.36
355.216	1.43
355.585	1.42
355.955	1.36
356.324	1.38
356.694	1.35
357.063	1.36
357.433	1.24
357.802	1.3
358.171	1.38
358.541	1.34
358.91	1.27
359.279	1.29
359.648	1.23
360.017	1.33
360.387	1.25
360.756	1.22
361.125	1.29
361.494	1.21
361.863	1.23
362.231	1.21
362.6	1.26
362.969	1.25
363.338	1.17
363.707	1.25
364.075	1.29
364.444	1.16
364.813	1.19
365.181	1.23
365.55	1.19
365.918	1.18
366.287	1.19
366.655	1.24
367.024	1.18
367.392	1.12
367.76	1.09
368.128	1.22
368.497	1.11
368.865	1.11
369.233	1.19
369.601	1.16
369.969	1.13
370.337	1.13
370.705	1.09
371.073	1.2
371.441	1.14
371.809	1.13
372.177	1.12
372.544	1.14
372.912	1.18
373.28	1.09
373.647	1.21
374.015	1.18
374.383	1.22
374.75	1.16
375.118	1.12
375.485	1.17
375.853	1.18
376.22	1.18
376.587	1.09
376.955	1.16
377.322	1.17
377.689	1.15
378.056	1.11
378.423	1.16
378.79	1.14
379.157	1.16
379.524	1.21
379.891	1.13
380.258	1.18
380.625	1.19
380.992	1.15
381.359	1.27
381.726	1.29
382.092	1.15
382.459	1.2
382.826	1.25
383.192	1.18
383.559	1.2
383.925	1.18
384.292	1.2
384.658	1.22
385.025	1.21
385.391	1.37
385.757	1.3
386.123	1.32
386.49	1.21
386.856	1.25
387.222	1.31
387.588	1.3
387.954	1.35
388.32	1.32
388.686	1.25
389.052	1.25
389.418	1.33
389.784	1.28
390.15	1.34
390.515	1.23
390.881	1.39
391.247	1.25
391.613	1.33
391.978	1.26
392.344	1.36
392.709	1.4
393.075	1.31
393.44	1.36
393.806	1.35
394.171	1.3
394.536	1.28
394.902	1.3
395.267	1.26
395.632	1.29
395.997	1.25
396.362	1.21
396.727	1.3
397.092	1.24
397.457	1.31
397.822	1.25
398.187	1.24
398.552	1.22
398.917	1.24
399.282	1.17
399.646	1.18
400.011	1.31
400.376	1.15
400.74	1.2
401.105	1.25
401.47	1.17
401.834	1.17
402.199	1.13
402.563	1.15
402.927	1.11
403.292	1.24
403.656	1.13
404.02	1.15
404.384	1.18
404.749	1.13
405.113	1.12
405.477	1.15
405.841	1.12
406.205	1.11
406.569	1.07
406.933	1.07
407.296	1.1
407.66	1.06
408.024	1.05
408.388	1.1
408.752	1.04
409.115	1.08
409.479	1.03
409.842	1.02
410.206	1
410.569	0.97
410.933	0.98
411.296	1
411.66	1.09
412.023	0.98
412.386	0.96
412.749	0.93
413.113	1
413.476	0.96
413.839	0.96
414.202	0.99
414.565	0.91
414.928	0.96
415.291	0.96
415.654	0.92
416.017	0.94
416.38	0.91
416.742	0.92
417.105	0.89
417.468	0.97
417.83	0.94
418.193	0.95
418.556	0.94
418.918	0.89
419.281	0.9
419.643	0.9
420.005	0.92
420.368	0.93
420.73	0.88
421.092	0.93
421.455	0.9
421.817	0.84
422.179	0.86
422.541	0.88
422.903	0.9
423.265	0.93
423.627	0.85
423.989	0.84
424.351	0.87
424.713	0.86
425.075	0.85
425.436	0.84
425.798	0.85
426.16	0.86
426.521	0.83
426.883	0.84
427.245	0.84
427.606	0.82
427.967	0.82
428.329	0.83
428.69	0.85
429.052	0.89
429.413	0.82
429.774	0.83
430.135	0.84
430.497	0.81
430.858	0.83
431.219	0.82
431.58	0.8
431.941	0.78
432.302	0.81
432.663	0.81
433.024	0.83
433.384	0.81
433.745	0.8
434.106	0.8
434.467	0.78
434.827	0.8
435.188	0.8
435.548	0.81
435.909	0.76
436.269	0.81
436.63	0.77
436.99	0.77
437.351	0.77
437.711	0.78
438.071	0.75
438.431	0.74
438.792	0.76
439.152	0.75
439.512	0.73
439.872	0.75
440.232	0.77
440.592	0.73
440.952	0.74
441.312	0.72
441.671	0.71
442.031	0.7
442.391	0.73
442.751	0.72
443.11	0.72
443.47	0.7
443.83	0.69
444.189	0.69
444.549	0.7
444.908	0.7
445.267	0.69
445.627	0.69
445.986	0.67
446.345	0.67
446.705	0.68
447.064	0.67
447.423	0.66
447.782	0.66
448.141	0.66
448.5	0.64
448.859	0.65
449.218	0.65
449.577	0.65
449.936	0.65
450.295	0.63
450.653	0.64
451.012	0.64
451.371	0.63
451.729	0.61
452.088	0.63
452.447	0.63
452.805	0.62
453.163	0.61
453.522	0.61
453.88	0.59
454.239	0.61
454.597	0.58
454.955	0.59
455.313	0.56
455.671	0.57
456.029	0.57
456.388	0.56
456.746	0.56
457.104	0.55
457.461	0.53
457.819	0.53
458.177	0.53
458.535	0.53
458.893	0.53
459.25	0.53
459.608	0.52
459.966	0.51
460.323	0.51
460.681	0.49
461.038	0.5
461.396	0.49
461.753	0.48
462.111	0.46
462.468	0.47
462.825	0.47
463.182	0.47
463.54	0.46
463.897	0.45
464.254	0.45
464.611	0.45
464.968	0.44
465.325	0.45
465.682	0.43
466.039	0.44
466.395	0.42
466.752	0.42
467.109	0.41
467.466	0.42
467.822	0.41
468.179	0.39
468.535	0.4
468.892	0.39
469.248	0.38
469.605	0.38
469.961	0.38
470.318	0.39
470.674	0.37
471.03	0.37
471.386	0.37
471.743	0.36
472.099	0.35
472.455	0.36
472.811	0.34
473.167	0.34
473.523	0.33
473.879	0.33
474.235	0.33
474.59	0.33
474.946	0.32
475.302	0.32
475.657	0.32
476.013	0.31
476.369	0.3
476.724	0.31
477.08	0.3
477.435	0.3
477.791	0.29
478.146	0.3
478.501	0.29
478.857	0.29
479.212	0.28
479.567	0.27
479.922	0.27
480.277	0.26
480.632	0.27
480.987	0.27
481.342	0.26
481.697	0.25
482.052	0.25
482.407	0.25
482.762	0.24
483.116	0.24
483.471	0.24
483.826	0.23
484.18	0.24
484.535	0.23
484.89	0.23
485.244	0.23
485.598	0.22
485.953	0.22
486.307	0.22
486.661	0.22
487.016	0.21
487.37	0.22
487.724	0.22
488.078	0.21
488.432	0.21
488.786	0.21
489.14	0.2
489.494	0.2
489.848	0.2
490.202	0.2
490.556	0.2
490.91	0.19
491.263	0.2
491.617	0.19
491.971	0.19
492.324	0.19
492.678	0.19
493.031	0.2
493.385	0.19
493.738	0.18
494.091	0.18
494.445	0.18
494.798	0.18
495.151	0.18
495.504	0.18
495.857	0.18
496.21	0.18
496.564	0.17
496.916	0.18
497.269	0.17
497.622	0.17
497.975	0.16
498.328	0.17
498.681	0.16
499.033	0.16
499.386	0.16
499.739	0.16
500.091	0.16
500.444	0.16
500.796	0.17
501.149	0.16
501.501	0.17
501.854	0.16
502.206	0.16
502.558	0.17
502.91	0.16
503.263	0.16
503.615	0.16
503.967	0.16
504.319	0.16
504.671	0.16
505.023	0.15
505.375	0.15
505.726	0.16
506.078	0.15
506.43	0.15
506.782	0.15
507.133	0.16
507.485	0.16
507.837	0.16
508.188	0.16
508.54	0.15
508.891	0.16
509.243	0.15
509.594	0.15
509.945	0.15
510.296	0.15
510.648	0.16
510.999	0.15
511.35	0.15
511.701	0.15
512.052	0.16
512.403	0.15
512.754	0.15
513.105	0.14
513.456	0.15
513.807	0.15
514.157	0.15
514.508	0.15
514.859	0.14
515.209	0.14
515.56	0.15
515.91	0.14
516.261	0.15
516.611	0.14
516.962	0.14
517.312	0.15
517.662	0.15
518.013	0.15
518.363	0.15
518.713	0.15
519.063	0.16
519.413	0.15
519.763	0.15
520.113	0.15
520.463	0.15
520.813	0.16
521.163	0.16
521.512	0.15
521.862	0.15
522.212	0.16
522.562	0.16
522.911	0.15
523.261	0.15
523.61	0.15
523.96	0.15
524.309	0.16
524.658	0.16
525.008	0.16
525.357	0.15
525.706	0.15
526.056	0.15
526.405	0.15
526.754	0.15
527.103	0.15
527.452	0.15
527.801	0.15
528.15	0.16
528.499	0.15
528.847	0.15
529.196	0.16
529.545	0.16
529.893	0.16
530.242	0.15
530.591	0.16
530.939	0.17
531.288	0.16
531.636	0.16
531.985	0.16
532.333	0.16
532.681	0.16
533.029	0.15
533.378	0.16
533.726	0.16
534.074	0.17
534.422	0.15
534.77	0.17
535.118	0.16
535.466	0.16
535.814	0.16
536.162	0.16
536.509	0.16
536.857	0.17
537.205	0.17
537.552	0.16
537.9	0.17
538.248	0.15
538.595	0.16
538.943	0.17
539.29	0.17
539.637	0.16
539.985	0.16
540.332	0.16
540.679	0.17
541.026	0.16
541.373	0.17
541.721	0.16
542.068	0.16
542.415	0.17
542.762	0.16
543.108	0.15
543.455	0.15
543.802	0.15
544.149	0.16
544.496	0.16
544.842	0.15
545.189	0.15
545.535	0.16
545.882	0.15
546.228	0.15
546.575	0.15
546.921	0.15
547.267	0.15
547.614	0.15
547.96	0.15
548.306	0.15
548.652	0.15
548.998	0.15
549.344	0.16
549.69	0.16
550.036	0.16
550.382	0.15
550.728	0.15
551.074	0.16
551.42	0.15
551.765	0.16
552.111	0.16
552.457	0.17
552.802	0.15
553.148	0.16
553.493	0.16
553.839	0.16
554.184	0.16
554.529	0.15
554.875	0.16
555.22	0.16
555.565	0.16
555.91	0.15
556.255	0.16
556.6	0.17
556.945	0.16
557.29	0.16
557.635	0.16
557.98	0.17
558.325	0.16
558.67	0.16
559.014	0.17
559.359	0.17
559.704	0.17
560.048	0.15
560.393	0.16
560.737	0.16
561.082	0.16
561.426	0.15
561.77	0.15
562.115	0.15
562.459	0.15
562.803	0.16
563.147	0.16
563.491	0.17
563.835	0.16
564.179	0.16
564.523	0.16
564.867	0.16
565.211	0.16
565.555	0.16
565.899	0.17
566.242	0.16
566.586	0.16
566.93	0.15
567.273	0.17
567.617	0.16
567.96	0.17
568.304	0.16
568.647	0.16
568.99	0.16
569.334	0.17
569.677	0.16
570.02	0.16
570.363	0.18
570.706	0.16
571.049	0.17
571.392	0.17
571.735	0.16
572.078	0.16
572.421	0.17
572.764	0.17
573.106	0.17
573.449	0.17
573.792	0.17
574.134	0.16
574.477	0.17
574.819	0.16
575.162	0.16
575.504	0.16
575.847	0.17
576.189	0.16
576.531	0.16
576.873	0.17
577.215	0.16
577.558	0.16
577.9	0.16
578.242	0.16
578.584	0.17
578.926	0.16
579.267	0.16
579.609	0.17
579.951	0.16
580.293	0.16
580.634	0.17
580.976	0.17
581.318	0.17
581.659	0.16
582.001	0.17
582.342	0.16
582.683	0.16
583.025	0.15
583.366	0.15
583.707	0.16
584.049	0.16
584.39	0.16
584.731	0.16
585.072	0.15
585.413	0.16
585.754	0.17
586.095	0.17
586.435	0.16
586.776	0.16
587.117	0.16
587.458	0.16
587.798	0.16
588.139	0.16
588.48	0.15
588.82	0.16
589.161	0.16
589.501	0.15
589.841	0.16
590.182	0.16
590.522	0.16
590.862	0.16
591.202	0.16
591.542	0.17
591.882	0.16
592.222	0.16
592.562	0.16
592.902	0.15
593.242	0.16
593.582	0.16
593.922	0.15
594.261	0.15
594.601	0.16
594.941	0.15
595.28	0.16
595.62	0.16
595.959	0.15
596.299	0.16
596.638	0.15
596.977	0.17
597.317	0.16
597.656	0.16
597.995	0.16
598.334	0.16
598.673	0.17
599.012	0.17
599.351	0.17
599.69	0.16
600.029	0.17
600.368	0.17
600.707	0.17
601.046	0.17
601.384	0.17
601.723	0.17
602.061	0.16
602.4	0.16
602.738	0.17
603.077	0.17
603.415	0.16
603.754	0.16
604.092	0.16
604.43	0.16
604.768	0.16
605.107	0.17
605.445	0.16
605.783	0.16
606.121	0.15
606.459	0.16
606.796	0.16
607.134	0.15
607.472	0.15
607.81	0.16
608.148	0.16
608.485	0.16
608.823	0.16
609.16	0.16
609.498	0.16
609.835	0.16
610.173	0.16
610.51	0.15
610.847	0.16
611.185	0.15
611.522	0.16
611.859	0.16
612.196	0.16
612.533	0.17
612.87	0.16
613.207	0.17
613.544	0.16
613.881	0.17
614.217	0.17
614.554	0.16
614.891	0.17
615.228	0.16
615.564	0.17
615.901	0.16
616.237	0.17
616.574	0.17
616.91	0.18
617.246	0.16
617.583	0.17
617.919	0.17
618.255	0.17
618.591	0.17
618.927	0.17
619.263	0.18
619.599	0.17
619.935	0.16
620.271	0.16
620.607	0.16
620.943	0.16
621.279	0.16
621.614	0.17
621.95	0.17
622.286	0.16
622.621	0.16
622.957	0.16
623.292	0.16
623.627	0.16
623.963	0.16
624.298	0.16
624.633	0.16
624.968	0.16
625.304	0.15
625.639	0.15
625.974	0.15
626.309	0.15
626.644	0.16
626.979	0.16
627.313	0.15
627.648	0.15
627.983	0.16
628.318	0.15
628.652	0.15
628.987	0.15
629.321	0.15
629.656	0.14
629.99	0.14
630.325	0.15
630.659	0.15
630.993	0.14
631.327	0.14
631.662	0.13
631.996	0.14
632.33	0.14
632.664	0.14
632.998	0.14
633.332	0.15
633.666	0.14
633.999	0.14
634.333	0.14
634.667	0.14
635.001	0.14
635.334	0.14
635.668	0.14
636.001	0.14
636.335	0.14
636.668	0.14
637.001	0.14
637.335	0.14
637.668	0.14
638.001	0.14
638.334	0.14
638.668	0.13
639.001	0.14
639.334	0.14
639.667	0.14
639.999	0.14
640.332	0.14
640.665	0.14
640.998	0.14
641.331	0.14
641.663	0.14
641.996	0.14
642.328	0.14
642.661	0.14
642.993	0.14
643.326	0.13
643.658	0.13
643.99	0.13
644.323	0.14
644.655	0.14
644.987	0.14
645.319	0.14
645.651	0.14
645.983	0.14
646.315	0.14
646.647	0.14
646.979	0.14
647.31	0.14
647.642	0.14
647.974	0.14
648.305	0.14
648.637	0.14
648.968	0.14
649.3	0.14
649.631	0.14
649.963	0.13
650.294	0.14
650.625	0.14
650.957	0.15
651.288	0.14
651.619	0.14
651.95	0.14
652.281	0.14
652.612	0.14
652.943	0.14
653.274	0.15
653.604	0.14
653.935	0.14
654.266	0.14
654.596	0.13
654.927	0.13
655.258	0.13
655.588	0.15
655.918	0.14
656.249	0.12
656.579	0.13
656.909	0.14
657.24	0.13
657.57	0.14
657.9	0.14
658.23	0.14
658.56	0.14
658.89	0.14
659.22	0.13
659.55	0.14
659.88	0.14
660.209	0.13
660.539	0.14
660.869	0.14
661.198	0.13
661.528	0.13
661.857	0.13
662.187	0.13
662.516	0.13
662.846	0.12
663.175	0.13
663.504	0.13
663.833	0.13
664.163	0.13
664.492	0.13
664.821	0.13
665.15	0.13
665.479	0.13
665.807	0.13
666.136	0.14
666.465	0.13
666.794	0.13
667.122	0.13
667.451	0.14
667.78	0.13
668.108	0.13
668.437	0.13
668.765	0.14
669.093	0.13
669.422	0.13
669.75	0.13
670.078	0.13
670.406	0.13
670.734	0.13
671.062	0.14
671.39	0.13
671.718	0.13
672.046	0.13
672.374	0.13
672.702	0.12
673.029	0.12
673.357	0.13
673.685	0.13
674.012	0.12
674.34	0.12
674.667	0.13
674.995	0.12
675.322	0.13
675.649	0.12
675.977	0.13
676.304	0.13
676.631	0.13
676.958	0.12
677.285	0.12
677.612	0.12
677.939	0.12
678.266	0.12
678.593	0.12
678.92	0.12
679.246	0.11
679.573	0.12
679.9	0.12
680.226	0.12
680.553	0.11
680.879	0.12
681.206	0.12
681.532	0.12
681.858	0.11
682.184	0.12
682.511	0.12
682.837	0.12
683.163	0.12
683.489	0.12
683.815	0.12
684.141	0.12
684.467	0.12
684.793	0.12
685.118	0.12
685.444	0.12
685.77	0.12
686.095	0.11
686.421	0.11
686.746	0.12
687.072	0.12
687.397	0.11
687.723	0.12
688.048	0.11
688.373	0.11
688.698	0.11
689.023	0.11
689.349	0.11
689.674	0.12
689.999	0.11
690.323	0.1
690.648	0.11
690.973	0.1
691.298	0.1
691.623	0.1
691.947	0.11
692.272	0.11
692.596	0.11
692.921	0.12
693.245	0.12
693.57	0.12
693.894	0.12
694.218	0.12
694.543	0.11
694.867	0.12
695.191	0.11
695.515	0.11
695.839	0.11
696.163	0.11
696.487	0.11
696.811	0.11
697.135	0.12
697.458	0.12
697.782	0.11
698.106	0.11
698.429	0.11
698.753	0.11
699.076	0.11
699.4	0.11
699.723	0.11
700.046	0.1
700.37	0.11
700.693	0.11
701.016	0.11
701.339	0.11
701.662	0.12
701.985	0.11
702.308	0.1
702.631	0.11
702.954	0.12
703.277	0.11
703.599	0.11
703.922	0.1
704.245	0.1
704.567	0.1
704.89	0.1
705.212	0.1
705.535	0.09
705.857	0.11
706.179	0.1
706.502	0.1
706.824	0.09
707.146	0.1
707.468	0.1
707.79	0.1
708.112	0.1
708.434	0.1
708.756	0.11
709.078	0.1
709.399	0.1
709.721	0.1
710.043	0.11
710.364	0.1
710.686	0.11
711.007	0.1
711.329	0.11
711.65	0.11
711.972	0.1
712.293	0.11
712.614	0.1
712.935	0.1
713.256	0.1
713.577	0.1
713.898	0.1
714.219	0.09
714.54	0.1
714.861	0.09
715.182	0.1
715.503	0.1
715.823	0.09
716.144	0.09
716.464	0.09
716.785	0.09
717.105	0.09
717.426	0.09
717.746	0.09
718.066	0.08
718.387	0.09
718.707	0.08
719.027	0.1
719.347	0.08
719.667	0.09
719.987	0.09
720.307	0.08
720.627	0.09
720.947	0.09
721.266	0.09
721.586	0.08
721.906	0.09
722.225	0.09
722.545	0.09
722.864	0.08
723.184	0.09
723.503	0.09
723.823	0.09
724.142	0.08
724.461	0.08
724.78	0.09
725.099	0.09
725.418	0.09
725.737	0.09
726.056	0.08
726.375	0.09
726.694	0.08
727.013	0.09
727.331	0.08
727.65	0.08
727.969	0.08
728.287	0.09
728.606	0.09
728.924	0.08
729.242	0.08
729.561	0.08
729.879	0.08
730.197	0.08
730.515	0.08
730.834	0.08
731.152	0.08
731.47	0.09
731.788	0.08
732.105	0.08
732.423	0.08
732.741	0.08
733.059	0.08
733.376	0.09
733.694	0.08
734.012	0.08
734.329	0.09
734.647	0.09
734.964	0.09
735.281	0.09
735.599	0.1
735.916	0.09
736.233	0.09
736.55	0.09
736.867	0.08
737.184	0.09
737.501	0.08
737.818	0.09
738.135	0.09
738.452	0.08
738.768	0.08
739.085	0.09
739.402	0.07
739.718	0.08
740.035	0.08
740.351	0.08
740.668	0.09
740.984	0.08
741.3	0.08
741.617	0.08
741.933	0.08
742.249	0.08
742.565	0.08
742.881	0.09
743.197	0.08
743.513	0.08
743.829	0.07
744.144	0.08
744.46	0.08
744.776	0.08
745.091	0.07
745.407	0.08
745.722	0.07
746.038	0.07
746.353	0.06
746.669	0.07
746.984	0.07
747.299	0.07
747.614	0.07
747.93	0.07
748.245	0.07
748.56	0.07
748.875	0.07
749.189	0.06
749.504	0.07
749.819	0.07
750.134	0.06
750.448	0.07
750.763	0.07
751.078	0.06
751.392	0.07
751.707	0.08
752.021	0.08
752.335	0.07
752.65	0.08
752.964	0.07
753.278	0.07
753.592	0.08
753.906	0.07
754.22	0.08
754.534	0.07
754.848	0.08
755.162	0.07
755.476	0.08
755.789	0.07
756.103	0.07
756.417	0.07
756.73	0.08
757.044	0.08
757.357	0.07
757.671	0.07
757.984	0.08
758.297	0.07
758.61	0.08
758.924	0.07
759.237	0.07
759.55	0.07
759.863	0.07
760.176	0.08
760.488	0.07
760.801	0.07
761.114	0.08
761.427	0.07
761.739	0.07
762.052	0.07
762.365	0.07
762.677	0.06
762.99	0.06
763.302	0.06
763.614	0.07
763.926	0.07
764.239	0.07
764.551	0.06
764.863	0.07
765.175	0.07
765.487	0.06
765.799	0.06
766.111	0.06
766.423	0.07
766.734	0.06
767.046	0.06
767.358	0.07
767.669	0.06
767.981	0.07
768.292	0.07
768.604	0.07
768.915	0.06
769.226	0.07
769.537	0.06
769.849	0.07
770.16	0.06
770.471	0.06
770.782	0.06
771.093	0.06
771.404	0.06
771.715	0.05
772.025	0.06
772.336	0.06
772.647	0.06
772.957	0.06
773.268	0.06
773.578	0.07
773.889	0.07
774.199	0.07
774.51	0.07
774.82	0.06
775.13	0.07
775.44	0.07
775.75	0.07
776.06	0.07
776.37	0.06
776.68	0.08
776.99	0.07
777.3	0.06
777.61	0.07
777.92	0.07
778.229	0.07
778.539	0.06
778.848	0.06
779.158	0.06
779.467	0.07
779.777	0.07
780.086	0.07
780.395	0.05
780.704	0.06
781.013	0.05
781.323	0.06
781.632	0.06
781.941	0.06
782.249	0.06
782.558	0.05
782.867	0.06
783.176	0.05
783.485	0.05
783.793	0.06
784.102	0.06
784.41	0.05
784.719	0.05
785.027	0.05
785.335	0.05
785.644	0.06
785.952	0.04
786.26	0.05
786.568	0.05
786.876	0.05
787.184	0.06
787.492	0.06
787.8	0.06
788.108	0.06
788.416	0.05
788.723	0.06
789.031	0.05
789.338	0.06
789.646	0.06
789.953	0.06
790.261	0.06
790.568	0.06
790.876	0.06
791.183	0.06
791.49	0.06
791.797	0.06
792.104	0.05
792.411	0.06
792.718	0.06
793.025	0.06
793.332	0.06
793.639	0.07
793.945	0.06
794.252	0.06
794.559	0.06
794.865	0.07
795.172	0.07
795.478	0.06
795.784	0.07
796.091	0.06
796.397	0.08
796.703	0.07
797.009	0.07
797.315	0.06
797.622	0.06
797.927	0.06
798.233	0.06
798.539	0.07
798.845	0.07
799.151	0.07
799.456	0.07
799.762	0.07
800.068	0.06
800.373	0.08
800.679	0.07
800.984	0.07
801.289	0.07
801.595	0.07
801.9	0.07
802.205	0.07
802.51	0.06
802.815	0.07
803.12	0.07
803.425	0.06
803.73	0.06
804.035	0.07
804.339	0.06
804.644	0.06
804.949	0.06
805.253	0.07
805.558	0.06
805.862	0.06
806.167	0.06
806.471	0.06
806.775	0.06
807.08	0.06
807.384	0.06
807.688	0.06
807.992	0.06
808.296	0.06
808.6	0.06
808.904	0.07
809.207	0.06
809.511	0.06
809.815	0.08
810.119	0.06
810.422	0.07
810.726	0.07
811.029	0.07
811.332	0.07
811.636	0.08
811.939	0.07
812.242	0.07
812.546	0.07
812.849	0.07
813.152	0.07
813.455	0.07
813.758	0.08
814.06	0.08
814.363	0.08
814.666	0.07
814.969	0.07
815.271	0.08
815.574	0.07
815.877	0.06
816.179	0.07
816.481	0.07
816.784	0.07
817.086	0.06
817.388	0.06
817.69	0.05
817.993	0.05
818.295	0.06
818.597	0.05
818.899	0.05
819.2	0.06
819.502	0.05
819.804	0.05
820.106	0.05
820.407	0.05
820.709	0.05
821.01	0.06
821.312	0.06
821.613	0.05
821.915	0.05
822.216	0.04
822.517	0.04
822.818	0.04
823.119	0.04
823.42	0.05
823.721	0.04
824.022	0.04
824.323	0.05
824.624	0.04
824.925	0.05
825.226	0.05
825.526	0.05
825.827	0.04
826.127	0.04
826.428	0.05
826.728	0.04
827.028	0.04
827.329	0.04
827.629	0.04
827.929	0.04
828.229	0.04
828.529	0.04
828.829	0.04
829.129	0.04
829.429	0.05
829.729	0.04
830.029	0.04
830.328	0.04
830.628	0.03
830.927	0.04
831.227	0.04
831.526	0.04
831.826	0.04
832.125	0.03
832.424	0.04
832.724	0.04
833.023	0.04
833.322	0.03
833.621	0.04
833.92	0.03
834.219	0.03
834.518	0.03
834.816	0.03
835.115	0.02
835.414	0.03
835.712	0.03
836.011	0.02
836.309	0.02
836.608	0.02
836.906	0.02
837.205	0
837.503	0.02
837.801	0.01
838.099	0
838.397	-0.01
838.695	0
838.993	0
839.291	-0
839.589	0.01
839.887	-0
840.184	-0.01
840.482	-0.01
840.78	-0
841.077	-0.01
841.375	-0.01
841.672	-0
841.969	-0.01
842.267	-0.01
842.564	-0
842.861	0
843.158	-0.01
843.455	-0.02
843.752	-0.02
844.049	-0.02
844.346	-0.02
844.643	-0.02
844.94	-0.02
845.236	-0.01
845.533	-0.01
845.83	-0.01
846.126	-0.02
846.423	-0.02
846.719	-0.03
847.015	-0.02
847.312	-0.02
847.608	-0.03
847.904	-0.03
848.2	-0.03
848.496	-0.03
848.792	-0.03
849.088	-0.03
849.384	-0.03
849.68	-0.04
849.975	-0.03
850.271	-0.04
850.567	-0.04
850.862	-0.04
851.158	-0.04
851.453	-0.03
851.748	-0.04
852.044	-0.04
852.339	-0.05
852.634	-0.06
852.929	-0.05
853.224	-0.05
853.519	-0.05
853.814	-0.05
854.109	-0.05
854.404	-0.05
854.699	-0.06
854.994	-0.05
855.288	-0.05
855.583	-0.05
855.877	-0.05
856.172	-0.05
856.466	-0.06
856.76	-0.06
857.055	-0.06
857.349	-0.07
857.643	-0.08
857.937	-0.08
858.231	-0.09
858.525	-0.09
858.819	-0.08
859.113	-0.1
859.407	-0.09
859.701	-0.1
859.994	-0.1
860.288	-0.1
860.581	-0.1
860.875	-0.1
861.168	-0.1
861.462	-0.1
861.755	-0.09
862.048	-0.11
862.341	-0.11
862.634	-0.1
862.928	-0.11
863.221	-0.11
863.513	-0.11
863.806	-0.11
864.099	-0.11
864.392	-0.11
864.685	-0.1
864.977	-0.11
865.27	-0.11
865.562	-0.11
865.855	-0.11
866.147	-0.12
866.44	-0.11
866.732	-0.11
867.024	-0.12
867.316	-0.12
867.608	-0.11
867.9	-0.12
868.192	-0.13
868.484	-0.12
868.776	-0.13
869.068	-0.13
869.359	-0.13
869.651	-0.13
869.943	-0.14
870.234	-0.13
870.526	-0.14
870.817	-0.13
871.108	-0.12
871.4	-0.13
871.691	-0.13
871.982	-0.15
872.273	-0.16
872.564	-0.14
872.855	-0.14
873.146	-0.15
873.437	-0.15
873.728	-0.16
874.019	-0.15
874.309	-0.16
874.6	-0.16
874.89	-0.16
875.181	-0.16
875.471	-0.15
875.762	-0.16
876.052	-0.16
876.342	-0.14
876.632	-0.16
876.922	-0.17
877.213	-0.16
877.503	-0.18
877.792	-0.16
878.082	-0.18
878.372	-0.16
878.662	-0.18
878.952	-0.16
879.241	-0.17
879.531	-0.16
879.82	-0.17
880.11	-0.16
880.399	-0.16
880.688	-0.15
880.978	-0.15
881.267	-0.15
