Data from 12-12-AQDScycling_Absorbance__754__00754.txt Node

Date: Tue Dec 12 14:05:14 EST 2023
User: kyuminlee
Spectrometer: FLMS00943
Trigger mode: 0
Integration Time (sec): 1.000000E-1
Scans to average: 1
Electric dark correction enabled: true
Nonlinearity correction enabled: false
Boxcar width: 0
XAxis mode: Wavelengths
Number of Pixels in Spectrum: 2048
>>>>>Begin Spectral Data<<<<<
179.651	0.09
180.037	0.09
180.424	0.09
180.81	-0.13
181.197	0.17
181.583	-0.63
181.97	-0.2
182.356	-0
182.743	-1.28
183.129	0.24
183.515	0.24
183.901	-2.32
184.288	0.09
184.674	-0
185.06	-0
185.446	-0.36
185.832	-0
186.218	0.68
186.604	-0
186.99	-0
187.376	0.07
187.762	-0.35
188.148	0.25
188.534	-0.28
188.92	0.1
189.305	0.12
189.691	0.11
190.077	0.08
190.463	0.15
190.848	0.11
191.234	0.03
191.619	0
192.005	0.02
192.391	0.16
192.776	0.12
193.161	0.1
193.547	0.19
193.932	0.08
194.318	0.16
194.703	0.13
195.088	0.52
195.473	0.28
195.859	0.15
196.244	0.09
196.629	0.11
197.014	0.11
197.399	0.12
197.784	0.13
198.169	0.07
198.554	0.17
198.939	0.09
199.324	0.24
199.709	0.27
200.094	0.14
200.478	-0.06
200.863	0.25
201.248	0.33
201.633	0.07
202.017	0.21
202.402	0.12
202.787	0.04
203.171	0.17
203.556	0.22
203.94	0.11
204.325	0.2
204.709	0.17
205.093	0.09
205.478	0.12
205.862	0.07
206.246	0.16
206.631	0.2
207.015	0.29
207.399	0.28
207.783	0.07
208.167	0.12
208.551	0.13
208.935	0.22
209.319	0.14
209.703	0.19
210.087	0.25
210.471	0.19
210.855	0.16
211.239	0.29
211.623	0.45
212.007	0.29
212.39	0.27
212.774	0.15
213.158	0.19
213.541	0.16
213.925	0.29
214.309	0.42
214.692	0.42
215.076	0.17
215.459	0.21
215.842	0.1
216.226	0.39
216.609	0.35
216.993	0.42
217.376	0.46
217.759	0.17
218.142	0.29
218.525	0.4
218.909	0.36
219.292	0.35
219.675	0.4
220.058	0.34
220.441	0.65
220.824	0.58
221.207	0.62
221.59	0.49
221.973	0.58
222.355	0.71
222.738	0.73
223.121	0.7
223.504	0.54
223.886	0.66
224.269	0.74
224.652	0.68
225.034	0.8
225.417	0.61
225.799	0.76
226.182	0.87
226.564	0.86
226.947	0.69
227.329	0.82
227.711	0.94
228.094	0.97
228.476	0.94
228.858	0.83
229.24	0.75
229.623	0.81
230.005	0.82
230.387	0.84
230.769	0.84
231.151	0.92
231.533	0.89
231.915	0.92
232.297	1.03
232.679	1.05
233.061	1
233.442	1.06
233.824	0.99
234.206	1.32
234.588	0.97
234.969	0.99
235.351	0.92
235.733	1.03
236.114	1.31
236.496	1.03
236.877	1.07
237.259	1.08
237.64	1
238.022	1.06
238.403	1.04
238.784	1.12
239.165	0.94
239.547	1.03
239.928	1.1
240.309	1.09
240.69	1.01
241.071	1.31
241.452	1.12
241.834	1.15
242.215	0.97
242.595	1.06
242.976	1.38
243.357	1.03
243.738	1.09
244.119	1.3
244.5	1.06
244.881	1.3
245.261	1.27
245.642	1.14
246.023	1.14
246.403	1.25
246.784	1.23
247.164	1.28
247.545	1.31
247.925	1.38
248.306	1.16
248.686	1.4
249.067	1.19
249.447	1.37
249.827	1.63
250.207	1.41
250.588	1.26
250.968	1.38
251.348	1.35
251.728	1.5
252.108	1.45
252.488	1.36
252.868	1.33
253.248	1.23
253.628	1.28
254.008	1.39
254.388	1.36
254.768	1.31
255.147	1.37
255.527	1.41
255.907	1.39
256.287	1.44
256.666	1.57
257.046	1.45
257.425	1.61
257.805	1.42
258.184	1.34
258.564	1.36
258.943	1.43
259.323	1.45
259.702	1.43
260.081	1.46
260.461	1.45
260.84	1.4
261.219	2.02
261.598	1.54
261.977	1.51
262.356	1.48
262.736	1.41
263.115	1.57
263.494	1.42
263.873	1.45
264.251	1.45
264.63	1.57
265.009	1.53
265.388	1.41
265.767	1.4
266.145	1.39
266.524	1.41
266.903	1.49
267.281	1.41
267.66	1.54
268.039	1.37
268.417	1.39
268.796	1.51
269.174	1.61
269.552	1.33
269.931	1.51
270.309	1.4
270.687	1.67
271.066	1.59
271.444	1.36
271.822	1.37
272.2	1.41
272.578	1.42
272.956	1.41
273.334	1.35
273.712	1.4
274.09	1.63
274.468	1.44
274.846	1.4
275.224	1.4
275.602	1.59
275.98	1.4
276.357	1.46
276.735	1.57
277.113	1.43
277.49	1.34
277.868	1.36
278.246	1.41
278.623	1.44
279.001	1.36
279.378	1.35
279.756	1.47
280.133	1.55
280.51	1.49
280.888	1.53
281.265	1.4
281.642	1.53
282.019	1.48
282.396	1.6
282.773	1.35
283.151	1.61
283.528	1.51
283.905	1.48
284.282	1.46
284.659	1.34
285.035	1.49
285.412	1.32
285.789	1.57
286.166	1.48
286.543	1.56
286.919	1.47
287.296	1.38
287.673	1.62
288.049	1.48
288.426	1.58
288.802	1.53
289.179	1.51
289.555	1.87
289.932	1.5
290.308	1.34
290.684	1.58
291.061	1.34
291.437	1.67
291.813	1.34
292.189	1.37
292.565	1.48
292.942	1.49
293.318	1.38
293.694	1.49
294.07	1.3
294.446	1.5
294.822	1.58
295.197	1.42
295.573	1.53
295.949	1.54
296.325	1.56
296.701	1.69
297.076	1.75
297.452	1.46
297.828	1.49
298.203	1.59
298.579	1.49
298.954	1.46
299.33	1.47
299.705	1.56
300.081	1.59
300.456	1.53
300.831	1.46
301.206	1.44
301.582	1.56
301.957	1.48
302.332	1.61
302.707	1.42
303.082	1.51
303.457	1.6
303.832	1.51
304.207	1.4
304.582	1.45
304.957	1.46
305.332	1.43
305.707	1.4
306.082	1.48
306.456	1.58
306.831	1.4
307.206	1.45
307.58	1.38
307.955	1.52
308.33	1.38
308.704	1.55
309.079	1.41
309.453	1.57
309.828	1.39
310.202	1.4
310.576	1.36
310.951	1.52
311.325	1.51
311.699	1.42
312.073	1.45
312.447	1.46
312.821	1.29
313.196	1.46
313.57	1.43
313.944	1.38
314.317	1.33
314.691	1.46
315.065	1.49
315.439	1.54
315.813	1.46
316.187	1.39
316.56	1.52
316.934	1.45
317.308	1.39
317.681	1.49
318.055	1.57
318.428	1.47
318.802	1.5
319.175	1.44
319.549	1.42
319.922	1.28
320.295	1.45
320.669	1.48
321.042	1.42
321.415	1.61
321.788	1.48
322.162	1.51
322.535	1.49
322.908	1.53
323.281	1.46
323.654	1.54
324.027	1.46
324.4	1.46
324.773	1.55
325.145	1.64
325.518	1.36
325.891	1.33
326.264	1.62
326.636	1.35
327.009	1.47
327.382	1.54
327.754	1.53
328.127	1.42
328.499	1.47
328.872	1.46
329.244	1.49
329.616	1.55
329.989	1.35
330.361	1.52
330.733	1.35
331.106	1.4
331.478	1.49
331.85	1.45
332.222	1.39
332.594	1.53
332.966	1.49
333.338	1.6
333.71	1.68
334.082	1.79
334.454	1.5
334.826	1.53
335.197	1.62
335.569	1.47
335.941	1.35
336.312	1.42
336.684	1.49
337.056	1.46
337.427	1.58
337.799	1.5
338.17	1.66
338.542	1.47
338.913	1.5
339.284	1.66
339.656	1.51
340.027	1.6
340.398	1.57
340.769	1.42
341.141	1.64
341.512	1.51
341.883	1.51
342.254	1.65
342.625	1.5
342.996	1.51
343.367	1.53
343.738	1.43
344.108	1.32
344.479	1.65
344.85	1.39
345.221	1.52
345.591	1.42
345.962	1.47
346.333	1.41
346.703	1.33
347.074	1.36
347.444	1.27
347.815	1.42
348.185	1.46
348.556	1.45
348.926	1.41
349.296	1.45
349.666	1.34
350.037	1.24
350.407	1.31
350.777	1.26
351.147	1.36
351.517	1.32
351.887	1.36
352.257	1.5
352.627	1.27
352.997	1.27
353.367	1.4
353.737	1.5
354.106	1.39
354.476	1.45
354.846	1.43
355.216	1.42
355.585	1.32
355.955	1.44
356.324	1.34
356.694	1.35
357.063	1.32
357.433	1.36
357.802	1.31
358.171	1.32
358.541	1.36
358.91	1.47
359.279	1.37
359.648	1.33
360.017	1.43
360.387	1.38
360.756	1.27
361.125	1.38
361.494	1.35
361.863	1.3
362.231	1.31
362.6	1.34
362.969	1.31
363.338	1.27
363.707	1.37
364.075	1.46
364.444	1.22
364.813	1.33
365.181	1.3
365.55	1.33
365.918	1.38
366.287	1.35
366.655	1.33
367.024	1.32
367.392	1.33
367.76	1.25
368.128	1.26
368.497	1.29
368.865	1.31
369.233	1.33
369.601	1.33
369.969	1.31
370.337	1.27
370.705	1.32
371.073	1.39
371.441	1.4
371.809	1.29
372.177	1.22
372.544	1.35
372.912	1.39
373.28	1.34
373.647	1.32
374.015	1.38
374.383	1.44
374.75	1.42
375.118	1.39
375.485	1.4
375.853	1.51
376.22	1.3
376.587	1.32
376.955	1.43
377.322	1.45
377.689	1.4
378.056	1.28
378.423	1.39
378.79	1.37
379.157	1.46
379.524	1.37
379.891	1.33
380.258	1.53
380.625	1.52
380.992	1.43
381.359	1.5
381.726	1.7
382.092	1.4
382.459	1.36
382.826	1.42
383.192	1.55
383.559	1.4
383.925	1.53
384.292	1.36
384.658	1.43
385.025	1.49
385.391	1.56
385.757	1.6
386.123	1.46
386.49	1.5
386.856	1.46
387.222	1.42
387.588	1.49
387.954	1.63
388.32	1.62
388.686	1.57
389.052	1.61
389.418	1.46
389.784	1.47
390.15	1.55
390.515	1.39
390.881	1.52
391.247	1.36
391.613	1.53
391.978	1.37
392.344	1.57
392.709	1.56
393.075	1.49
393.44	1.67
393.806	1.54
394.171	1.35
394.536	1.56
394.902	1.59
395.267	1.49
395.632	1.54
395.997	1.41
396.362	1.42
396.727	1.43
397.092	1.48
397.457	1.5
397.822	1.62
398.187	1.55
398.552	1.54
398.917	1.46
399.282	1.35
399.646	1.36
400.011	1.79
400.376	1.38
400.74	1.38
401.105	1.48
401.47	1.47
401.834	1.41
402.199	1.39
402.563	1.37
402.927	1.4
403.292	1.36
403.656	1.4
404.02	1.39
404.384	1.41
404.749	1.37
405.113	1.48
405.477	1.45
405.841	1.42
406.205	1.34
406.569	1.35
406.933	1.32
407.296	1.32
407.66	1.4
408.024	1.3
408.388	1.24
408.752	1.31
409.115	1.36
409.479	1.28
409.842	1.32
410.206	1.23
410.569	1.24
410.933	1.3
411.296	1.21
411.66	1.33
412.023	1.18
412.386	1.27
412.749	1.2
413.113	1.24
413.476	1.19
413.839	1.17
414.202	1.22
414.565	1.19
414.928	1.18
415.291	1.2
415.654	1.18
416.017	1.19
416.38	1.15
416.742	1.14
417.105	1.13
417.468	1.09
417.83	1.21
418.193	1.21
418.556	1.14
418.918	1.15
419.281	1.14
419.643	1.23
420.005	1.19
420.368	1.17
420.73	1.12
421.092	1.17
421.455	1.22
421.817	1.1
422.179	1.1
422.541	1.15
422.903	1.2
423.265	1.18
423.627	1.1
423.989	1.09
424.351	1.06
424.713	1.12
425.075	1.14
425.436	1.13
425.798	1.09
426.16	1.11
426.521	1.12
426.883	1.12
427.245	1.1
427.606	1.12
427.967	1.01
428.329	1.08
428.69	1.1
429.052	1.04
429.413	1.1
429.774	1.06
430.135	1.08
430.497	1.11
430.858	1.06
431.219	1.08
431.58	1.06
431.941	1.03
432.302	1.04
432.663	1.07
433.024	1.08
433.384	1.07
433.745	0.99
434.106	1.04
434.467	1.03
434.827	1.03
435.188	1.03
435.548	1.05
435.909	1.05
436.269	1.04
436.63	1.01
436.99	1.01
437.351	0.97
437.711	1.02
438.071	0.99
438.431	0.97
438.792	1
439.152	0.97
439.512	0.97
439.872	0.94
440.232	0.97
440.592	0.95
440.952	0.95
441.312	0.96
441.671	0.99
442.031	0.94
442.391	0.93
442.751	0.97
443.11	0.95
443.47	0.9
443.83	0.9
444.189	0.91
444.549	0.9
444.908	0.88
445.267	0.88
445.627	0.89
445.986	0.88
446.345	0.87
446.705	0.86
447.064	0.85
447.423	0.86
447.782	0.84
448.141	0.86
448.5	0.83
448.859	0.85
449.218	0.82
449.577	0.83
449.936	0.84
450.295	0.83
450.653	0.8
451.012	0.81
451.371	0.79
451.729	0.8
452.088	0.8
452.447	0.8
452.805	0.79
453.163	0.81
453.522	0.78
453.88	0.78
454.239	0.77
454.597	0.74
454.955	0.74
455.313	0.74
455.671	0.74
456.029	0.73
456.388	0.72
456.746	0.73
457.104	0.7
457.461	0.7
457.819	0.69
458.177	0.69
458.535	0.67
458.893	0.67
459.25	0.66
459.608	0.65
459.966	0.65
460.323	0.65
460.681	0.63
461.038	0.64
461.396	0.63
461.753	0.62
462.111	0.61
462.468	0.6
462.825	0.6
463.182	0.57
463.54	0.57
463.897	0.58
464.254	0.57
464.611	0.57
464.968	0.55
465.325	0.56
465.682	0.54
466.039	0.54
466.395	0.54
466.752	0.54
467.109	0.52
467.466	0.52
467.822	0.52
468.179	0.5
468.535	0.49
468.892	0.49
469.248	0.47
469.605	0.47
469.961	0.47
470.318	0.47
470.674	0.48
471.03	0.45
471.386	0.46
471.743	0.44
472.099	0.44
472.455	0.44
472.811	0.43
473.167	0.43
473.523	0.42
473.879	0.42
474.235	0.41
474.59	0.4
474.946	0.4
475.302	0.4
475.657	0.39
476.013	0.38
476.369	0.37
476.724	0.38
477.08	0.38
477.435	0.36
477.791	0.35
478.146	0.36
478.501	0.35
478.857	0.36
479.212	0.35
479.567	0.33
479.922	0.33
480.277	0.33
480.632	0.32
480.987	0.32
481.342	0.31
481.697	0.31
482.052	0.31
482.407	0.3
482.762	0.3
483.116	0.3
483.471	0.29
483.826	0.28
484.18	0.28
484.535	0.28
484.89	0.28
485.244	0.28
485.598	0.28
485.953	0.27
486.307	0.26
486.661	0.27
487.016	0.26
487.37	0.26
487.724	0.26
488.078	0.26
488.432	0.26
488.786	0.25
489.14	0.24
489.494	0.24
489.848	0.23
490.202	0.24
490.556	0.23
490.91	0.23
491.263	0.23
491.617	0.23
491.971	0.22
492.324	0.22
492.678	0.23
493.031	0.22
493.385	0.22
493.738	0.21
494.091	0.22
494.445	0.21
494.798	0.21
495.151	0.21
495.504	0.21
495.857	0.21
496.21	0.21
496.564	0.2
496.916	0.21
497.269	0.2
497.622	0.21
497.975	0.2
498.328	0.2
498.681	0.2
499.033	0.19
499.386	0.2
499.739	0.19
500.091	0.19
500.444	0.19
500.796	0.2
501.149	0.19
501.501	0.19
501.854	0.19
502.206	0.19
502.558	0.19
502.91	0.19
503.263	0.19
503.615	0.18
503.967	0.18
504.319	0.18
504.671	0.18
505.023	0.17
505.375	0.18
505.726	0.18
506.078	0.18
506.43	0.17
506.782	0.17
507.133	0.18
507.485	0.18
507.837	0.18
508.188	0.19
508.54	0.18
508.891	0.18
509.243	0.17
509.594	0.18
509.945	0.17
510.296	0.17
510.648	0.17
510.999	0.17
511.35	0.17
511.701	0.17
512.052	0.18
512.403	0.17
512.754	0.17
513.105	0.17
513.456	0.17
513.807	0.17
514.157	0.17
514.508	0.17
514.859	0.17
515.209	0.17
515.56	0.18
515.91	0.17
516.261	0.18
516.611	0.17
516.962	0.17
517.312	0.17
517.662	0.17
518.013	0.17
518.363	0.17
518.713	0.17
519.063	0.18
519.413	0.17
519.763	0.17
520.113	0.17
520.463	0.18
520.813	0.18
521.163	0.18
521.512	0.18
521.862	0.17
522.212	0.18
522.562	0.17
522.911	0.18
523.261	0.18
523.61	0.18
523.96	0.17
524.309	0.18
524.658	0.18
525.008	0.17
525.357	0.17
525.706	0.17
526.056	0.18
526.405	0.18
526.754	0.17
527.103	0.17
527.452	0.17
527.801	0.18
528.15	0.18
528.499	0.18
528.847	0.18
529.196	0.18
529.545	0.18
529.893	0.18
530.242	0.18
530.591	0.19
530.939	0.18
531.288	0.18
531.636	0.18
531.985	0.19
532.333	0.19
532.681	0.19
533.029	0.19
533.378	0.18
533.726	0.18
534.074	0.18
534.422	0.18
534.77	0.19
535.118	0.19
535.466	0.18
535.814	0.18
536.162	0.18
536.509	0.19
536.857	0.18
537.205	0.19
537.552	0.19
537.9	0.18
538.248	0.18
538.595	0.19
538.943	0.19
539.29	0.19
539.637	0.18
539.985	0.18
540.332	0.18
540.679	0.18
541.026	0.19
541.373	0.19
541.721	0.18
542.068	0.18
542.415	0.19
542.762	0.18
543.108	0.18
543.455	0.18
543.802	0.18
544.149	0.18
544.496	0.18
544.842	0.18
545.189	0.17
545.535	0.18
545.882	0.18
546.228	0.17
546.575	0.16
546.921	0.17
547.267	0.17
547.614	0.18
547.96	0.17
548.306	0.17
548.652	0.18
548.998	0.18
549.344	0.18
549.69	0.18
550.036	0.17
550.382	0.18
550.728	0.18
551.074	0.18
551.42	0.18
551.765	0.18
552.111	0.19
552.457	0.19
552.802	0.18
553.148	0.18
553.493	0.18
553.839	0.18
554.184	0.19
554.529	0.18
554.875	0.19
555.22	0.2
555.565	0.19
555.91	0.18
556.255	0.2
556.6	0.2
556.945	0.18
557.29	0.18
557.635	0.18
557.98	0.19
558.325	0.19
558.67	0.2
559.014	0.19
559.359	0.18
559.704	0.19
560.048	0.17
560.393	0.19
560.737	0.18
561.082	0.18
561.426	0.18
561.77	0.19
562.115	0.18
562.459	0.18
562.803	0.18
563.147	0.18
563.491	0.18
563.835	0.19
564.179	0.19
564.523	0.19
564.867	0.18
565.211	0.19
565.555	0.18
565.899	0.19
566.242	0.19
566.586	0.18
566.93	0.19
567.273	0.2
567.617	0.19
567.96	0.19
568.304	0.19
568.647	0.19
568.99	0.19
569.334	0.2
569.677	0.19
570.02	0.2
570.363	0.19
570.706	0.19
571.049	0.19
571.392	0.19
571.735	0.19
572.078	0.19
572.421	0.2
572.764	0.19
573.106	0.19
573.449	0.19
573.792	0.19
574.134	0.19
574.477	0.19
574.819	0.19
575.162	0.19
575.504	0.19
575.847	0.19
576.189	0.2
576.531	0.18
576.873	0.19
577.215	0.19
577.558	0.19
577.9	0.18
578.242	0.19
578.584	0.18
578.926	0.19
579.267	0.19
579.609	0.18
579.951	0.19
580.293	0.19
580.634	0.19
580.976	0.2
581.318	0.19
581.659	0.19
582.001	0.19
582.342	0.18
582.683	0.19
583.025	0.18
583.366	0.18
583.707	0.19
584.049	0.18
584.39	0.18
584.731	0.18
585.072	0.18
585.413	0.18
585.754	0.19
586.095	0.19
586.435	0.19
586.776	0.19
587.117	0.18
587.458	0.18
587.798	0.18
588.139	0.19
588.48	0.18
588.82	0.18
589.161	0.18
589.501	0.17
589.841	0.18
590.182	0.18
590.522	0.18
590.862	0.19
591.202	0.18
591.542	0.18
591.882	0.18
592.222	0.18
592.562	0.18
592.902	0.18
593.242	0.18
593.582	0.18
593.922	0.18
594.261	0.18
594.601	0.17
594.941	0.18
595.28	0.18
595.62	0.18
595.959	0.18
596.299	0.18
596.638	0.18
596.977	0.18
597.317	0.19
597.656	0.18
597.995	0.18
598.334	0.19
598.673	0.19
599.012	0.18
599.351	0.19
599.69	0.19
600.029	0.19
600.368	0.19
600.707	0.2
601.046	0.19
601.384	0.19
601.723	0.19
602.061	0.18
602.4	0.19
602.738	0.19
603.077	0.19
603.415	0.19
603.754	0.18
604.092	0.19
604.43	0.18
604.768	0.19
605.107	0.18
605.445	0.18
605.783	0.18
606.121	0.18
606.459	0.18
606.796	0.18
607.134	0.18
607.472	0.18
607.81	0.18
608.148	0.17
608.485	0.19
608.823	0.18
609.16	0.18
609.498	0.17
609.835	0.17
610.173	0.18
610.51	0.18
610.847	0.18
611.185	0.18
611.522	0.18
611.859	0.18
612.196	0.18
612.533	0.18
612.87	0.19
613.207	0.18
613.544	0.19
613.881	0.19
614.217	0.19
614.554	0.19
614.891	0.19
615.228	0.19
615.564	0.19
615.901	0.19
616.237	0.19
616.574	0.18
616.91	0.19
617.246	0.18
617.583	0.19
617.919	0.19
618.255	0.19
618.591	0.19
618.927	0.19
619.263	0.19
619.599	0.18
619.935	0.18
620.271	0.19
620.607	0.19
620.943	0.19
621.279	0.18
621.614	0.18
621.95	0.19
622.286	0.19
622.621	0.18
622.957	0.18
623.292	0.18
623.627	0.18
623.963	0.18
624.298	0.18
624.633	0.18
624.968	0.18
625.304	0.18
625.639	0.18
625.974	0.17
626.309	0.17
626.644	0.17
626.979	0.18
627.313	0.18
627.648	0.17
627.983	0.18
628.318	0.17
628.652	0.17
628.987	0.17
629.321	0.17
629.656	0.16
629.99	0.16
630.325	0.17
630.659	0.17
630.993	0.16
631.327	0.16
631.662	0.16
631.996	0.16
632.33	0.16
632.664	0.16
632.998	0.16
633.332	0.16
633.666	0.16
633.999	0.16
634.333	0.15
634.667	0.16
635.001	0.15
635.334	0.16
635.668	0.16
636.001	0.16
636.335	0.16
636.668	0.16
637.001	0.15
637.335	0.16
637.668	0.15
638.001	0.15
638.334	0.16
638.668	0.15
639.001	0.15
639.334	0.16
639.667	0.16
639.999	0.16
640.332	0.16
640.665	0.16
640.998	0.16
641.331	0.17
641.663	0.15
641.996	0.16
642.328	0.15
642.661	0.16
642.993	0.16
643.326	0.16
643.658	0.16
643.99	0.15
644.323	0.16
644.655	0.16
644.987	0.16
645.319	0.16
645.651	0.17
645.983	0.15
646.315	0.16
646.647	0.16
646.979	0.17
647.31	0.16
647.642	0.16
647.974	0.16
648.305	0.16
648.637	0.15
648.968	0.16
649.3	0.15
649.631	0.15
649.963	0.15
650.294	0.15
650.625	0.15
650.957	0.16
651.288	0.16
651.619	0.15
651.95	0.16
652.281	0.16
652.612	0.16
652.943	0.16
653.274	0.16
653.604	0.16
653.935	0.16
654.266	0.15
654.596	0.15
654.927	0.15
655.258	0.16
655.588	0.16
655.918	0.16
656.249	0.14
656.579	0.15
656.909	0.15
657.24	0.15
657.57	0.15
657.9	0.15
658.23	0.15
658.56	0.15
658.89	0.15
659.22	0.15
659.55	0.16
659.88	0.15
660.209	0.15
660.539	0.16
660.869	0.15
661.198	0.15
661.528	0.15
661.857	0.15
662.187	0.15
662.516	0.15
662.846	0.15
663.175	0.14
663.504	0.14
663.833	0.14
664.163	0.15
664.492	0.14
664.821	0.15
665.15	0.15
665.479	0.15
665.807	0.14
666.136	0.15
666.465	0.15
666.794	0.15
667.122	0.15
667.451	0.14
667.78	0.15
668.108	0.15
668.437	0.14
668.765	0.15
669.093	0.15
669.422	0.15
669.75	0.15
670.078	0.14
670.406	0.15
670.734	0.15
671.062	0.15
671.39	0.15
671.718	0.15
672.046	0.14
672.374	0.13
672.702	0.14
673.029	0.13
673.357	0.13
673.685	0.14
674.012	0.14
674.34	0.14
674.667	0.15
674.995	0.14
675.322	0.14
675.649	0.14
675.977	0.14
676.304	0.13
676.631	0.14
676.958	0.14
677.285	0.13
677.612	0.13
677.939	0.13
678.266	0.14
678.593	0.13
678.92	0.14
679.246	0.13
679.573	0.13
679.9	0.13
680.226	0.13
680.553	0.13
680.879	0.13
681.206	0.14
681.532	0.14
681.858	0.13
682.184	0.14
682.511	0.14
682.837	0.13
683.163	0.14
683.489	0.13
683.815	0.13
684.141	0.13
684.467	0.13
684.793	0.13
685.118	0.13
685.444	0.14
685.77	0.13
686.095	0.13
686.421	0.13
686.746	0.13
687.072	0.13
687.397	0.12
687.723	0.13
688.048	0.13
688.373	0.12
688.698	0.12
689.023	0.12
689.349	0.13
689.674	0.12
689.999	0.12
690.323	0.12
690.648	0.12
690.973	0.11
691.298	0.12
691.623	0.12
691.947	0.12
692.272	0.12
692.596	0.11
692.921	0.12
693.245	0.12
693.57	0.12
693.894	0.13
694.218	0.13
694.543	0.12
694.867	0.12
695.191	0.12
695.515	0.12
695.839	0.12
696.163	0.12
696.487	0.12
696.811	0.12
697.135	0.13
697.458	0.12
697.782	0.12
698.106	0.12
698.429	0.12
698.753	0.12
699.076	0.12
699.4	0.11
699.723	0.12
700.046	0.11
700.37	0.12
700.693	0.12
701.016	0.12
701.339	0.12
701.662	0.12
701.985	0.12
702.308	0.11
702.631	0.12
702.954	0.12
703.277	0.11
703.599	0.12
703.922	0.12
704.245	0.11
704.567	0.11
704.89	0.11
705.212	0.11
705.535	0.11
705.857	0.11
706.179	0.11
706.502	0.11
706.824	0.11
707.146	0.11
707.468	0.11
707.79	0.11
708.112	0.11
708.434	0.11
708.756	0.11
709.078	0.11
709.399	0.1
709.721	0.1
710.043	0.11
710.364	0.11
710.686	0.11
711.007	0.11
711.329	0.12
711.65	0.11
711.972	0.11
712.293	0.11
712.614	0.11
712.935	0.11
713.256	0.11
713.577	0.12
713.898	0.11
714.219	0.11
714.54	0.11
714.861	0.1
715.182	0.11
715.503	0.1
715.823	0.1
716.144	0.1
716.464	0.1
716.785	0.1
717.105	0.09
717.426	0.1
717.746	0.09
718.066	0.09
718.387	0.1
718.707	0.09
719.027	0.1
719.347	0.08
719.667	0.1
719.987	0.09
720.307	0.09
720.627	0.09
720.947	0.1
721.266	0.1
721.586	0.09
721.906	0.09
722.225	0.09
722.545	0.09
722.864	0.08
723.184	0.1
723.503	0.1
723.823	0.1
724.142	0.09
724.461	0.09
724.78	0.09
725.099	0.09
725.418	0.1
725.737	0.09
726.056	0.1
726.375	0.1
726.694	0.1
727.013	0.09
727.331	0.09
727.65	0.1
727.969	0.1
728.287	0.09
728.606	0.09
728.924	0.08
729.242	0.09
729.561	0.09
729.879	0.09
730.197	0.1
730.515	0.08
730.834	0.08
731.152	0.08
731.47	0.09
731.788	0.09
732.105	0.08
732.423	0.09
732.741	0.09
733.059	0.09
733.376	0.1
733.694	0.09
734.012	0.08
734.329	0.1
734.647	0.09
734.964	0.1
735.281	0.1
735.599	0.09
735.916	0.1
736.233	0.09
736.55	0.09
736.867	0.09
737.184	0.1
737.501	0.09
737.818	0.09
738.135	0.1
738.452	0.09
738.768	0.09
739.085	0.09
739.402	0.08
739.718	0.1
740.035	0.09
740.351	0.1
740.668	0.09
740.984	0.08
741.3	0.09
741.617	0.09
741.933	0.08
742.249	0.09
742.565	0.09
742.881	0.09
743.197	0.08
743.513	0.08
743.829	0.08
744.144	0.08
744.46	0.08
744.776	0.09
745.091	0.08
745.407	0.09
745.722	0.08
746.038	0.08
746.353	0.08
746.669	0.09
746.984	0.07
747.299	0.08
747.614	0.08
747.93	0.09
748.245	0.08
748.56	0.08
748.875	0.08
749.189	0.07
749.504	0.07
749.819	0.08
750.134	0.07
750.448	0.07
750.763	0.07
751.078	0.06
751.392	0.07
751.707	0.08
752.021	0.08
752.335	0.08
752.65	0.08
752.964	0.07
753.278	0.08
753.592	0.08
753.906	0.08
754.22	0.08
754.534	0.09
754.848	0.08
755.162	0.08
755.476	0.08
755.789	0.07
756.103	0.07
756.417	0.08
756.73	0.08
757.044	0.07
757.357	0.08
757.671	0.08
757.984	0.08
758.297	0.08
758.61	0.07
758.924	0.08
759.237	0.07
759.55	0.08
759.863	0.07
760.176	0.08
760.488	0.08
760.801	0.08
761.114	0.07
761.427	0.07
761.739	0.08
762.052	0.07
762.365	0.07
762.677	0.07
762.99	0.07
763.302	0.07
763.614	0.07
763.926	0.08
764.239	0.07
764.551	0.07
764.863	0.07
765.175	0.08
765.487	0.07
765.799	0.07
766.111	0.06
766.423	0.07
766.734	0.07
767.046	0.06
767.358	0.07
767.669	0.07
767.981	0.07
768.292	0.07
768.604	0.07
768.915	0.07
769.226	0.07
769.537	0.06
769.849	0.07
770.16	0.07
770.471	0.06
770.782	0.07
771.093	0.06
771.404	0.06
771.715	0.06
772.025	0.07
772.336	0.07
772.647	0.06
772.957	0.06
773.268	0.07
773.578	0.06
773.889	0.07
774.199	0.07
774.51	0.07
774.82	0.06
775.13	0.08
775.44	0.07
775.75	0.07
776.06	0.07
776.37	0.07
776.68	0.08
776.99	0.08
777.3	0.07
777.61	0.07
777.92	0.07
778.229	0.07
778.539	0.07
778.848	0.07
779.158	0.08
779.467	0.07
779.777	0.07
780.086	0.07
780.395	0.07
780.704	0.06
781.013	0.06
781.323	0.06
781.632	0.06
781.941	0.07
782.249	0.06
782.558	0.06
782.867	0.07
783.176	0.06
783.485	0.06
783.793	0.07
784.102	0.06
784.41	0.06
784.719	0.06
785.027	0.06
785.335	0.06
785.644	0.06
785.952	0.06
786.26	0.06
786.568	0.05
786.876	0.06
787.184	0.06
787.492	0.06
787.8	0.06
788.108	0.06
788.416	0.06
788.723	0.06
789.031	0.06
789.338	0.06
789.646	0.05
789.953	0.06
790.261	0.07
790.568	0.06
790.876	0.07
791.183	0.07
791.49	0.05
791.797	0.06
792.104	0.06
792.411	0.06
792.718	0.06
793.025	0.06
793.332	0.06
793.639	0.07
793.945	0.07
794.252	0.07
794.559	0.07
794.865	0.06
795.172	0.06
795.478	0.06
795.784	0.07
796.091	0.06
796.397	0.07
796.703	0.07
797.009	0.08
797.315	0.07
797.622	0.07
797.927	0.06
798.233	0.07
798.539	0.07
798.845	0.07
799.151	0.07
799.456	0.06
799.762	0.07
800.068	0.06
800.373	0.08
800.679	0.07
800.984	0.06
801.289	0.07
801.595	0.08
801.9	0.07
802.205	0.06
802.51	0.07
802.815	0.06
803.12	0.07
803.425	0.07
803.73	0.06
804.035	0.06
804.339	0.07
804.644	0.07
804.949	0.06
805.253	0.06
805.558	0.06
805.862	0.06
806.167	0.06
806.471	0.06
806.775	0.07
807.08	0.06
807.384	0.06
807.688	0.06
807.992	0.06
808.296	0.06
808.6	0.06
808.904	0.06
809.207	0.06
809.511	0.07
809.815	0.08
810.119	0.06
810.422	0.07
810.726	0.07
811.029	0.07
811.332	0.06
811.636	0.07
811.939	0.06
812.242	0.07
812.546	0.07
812.849	0.07
813.152	0.08
813.455	0.07
813.758	0.07
814.06	0.07
814.363	0.07
814.666	0.07
814.969	0.07
815.271	0.08
815.574	0.07
815.877	0.06
816.179	0.06
816.481	0.06
816.784	0.07
817.086	0.05
817.388	0.06
817.69	0.05
817.993	0.05
818.295	0.06
818.597	0.05
818.899	0.05
819.2	0.05
819.502	0.05
819.804	0.05
820.106	0.05
820.407	0.05
820.709	0.05
821.01	0.05
821.312	0.06
821.613	0.04
821.915	0.05
822.216	0.05
822.517	0.04
822.818	0.04
823.119	0.05
823.42	0.06
823.721	0.04
824.022	0.04
824.323	0.05
824.624	0.04
824.925	0.05
825.226	0.06
825.526	0.05
825.827	0.05
826.127	0.04
826.428	0.04
826.728	0.04
827.028	0.04
827.329	0.05
827.629	0.04
827.929	0.05
828.229	0.04
828.529	0.05
828.829	0.04
829.129	0.04
829.429	0.04
829.729	0.04
830.029	0.04
830.328	0.04
830.628	0.04
830.927	0.04
831.227	0.03
831.526	0.05
831.826	0.04
832.125	0.04
832.424	0.03
832.724	0.04
833.023	0.03
833.322	0.05
833.621	0.03
833.92	0.03
834.219	0.03
834.518	0.03
834.816	0.02
835.115	0.03
835.414	0.03
835.712	0.02
836.011	0.02
836.309	0.02
836.608	0.01
836.906	0.01
837.205	0.01
837.503	0.01
837.801	0.01
838.099	0.01
838.397	-0
838.695	-0
838.993	0
839.291	-0
839.589	0
839.887	0.01
840.184	-0.01
840.482	-0.01
840.78	-0
841.077	-0.01
841.375	-0.01
841.672	0.01
841.969	-0.01
842.267	-0.01
842.564	-0
842.861	-0.01
843.158	-0
843.455	-0.02
843.752	-0.02
844.049	-0.01
844.346	-0.01
844.643	-0.02
844.94	-0.02
845.236	-0
845.533	-0.01
845.83	-0.01
846.126	-0.02
846.423	-0.02
846.719	-0.02
847.015	-0.03
847.312	-0.03
847.608	-0.02
847.904	-0.03
848.2	-0.04
848.496	-0.03
848.792	-0.03
849.088	-0.02
849.384	-0.03
849.68	-0.04
849.975	-0.03
850.271	-0.04
850.567	-0.04
850.862	-0.04
851.158	-0.04
851.453	-0.04
851.748	-0.04
852.044	-0.04
852.339	-0.04
852.634	-0.06
852.929	-0.04
853.224	-0.06
853.519	-0.05
853.814	-0.04
854.109	-0.05
854.404	-0.06
854.699	-0.05
854.994	-0.04
855.288	-0.05
855.583	-0.04
855.877	-0.06
856.172	-0.06
856.466	-0.05
856.76	-0.05
857.055	-0.06
857.349	-0.07
857.643	-0.07
857.937	-0.08
858.231	-0.07
858.525	-0.08
858.819	-0.07
859.113	-0.09
859.407	-0.09
859.701	-0.09
859.994	-0.1
860.288	-0.08
860.581	-0.09
860.875	-0.09
861.168	-0.09
861.462	-0.1
861.755	-0.1
862.048	-0.1
862.341	-0.1
862.634	-0.11
862.928	-0.11
863.221	-0.1
863.513	-0.11
863.806	-0.11
864.099	-0.11
864.392	-0.11
864.685	-0.1
864.977	-0.1
865.27	-0.11
865.562	-0.11
865.855	-0.11
866.147	-0.12
866.44	-0.1
866.732	-0.12
867.024	-0.12
867.316	-0.12
867.608	-0.11
867.9	-0.12
868.192	-0.12
868.484	-0.12
868.776	-0.13
869.068	-0.12
869.359	-0.12
869.651	-0.13
869.943	-0.14
870.234	-0.13
870.526	-0.14
870.817	-0.14
871.108	-0.13
871.4	-0.13
871.691	-0.14
871.982	-0.14
872.273	-0.16
872.564	-0.14
872.855	-0.14
873.146	-0.14
873.437	-0.15
873.728	-0.15
874.019	-0.15
874.309	-0.16
874.6	-0.16
874.89	-0.16
875.181	-0.16
875.471	-0.16
875.762	-0.15
876.052	-0.15
876.342	-0.15
876.632	-0.15
876.922	-0.16
877.213	-0.16
877.503	-0.18
877.792	-0.16
878.082	-0.17
878.372	-0.15
878.662	-0.19
878.952	-0.17
879.241	-0.17
879.531	-0.16
879.82	-0.17
880.11	-0.16
880.399	-0.16
880.688	-0.15
880.978	-0.15
881.267	-0.15
