Data from 12-12-AQDScycling_Absorbance__763__00763.txt Node

Date: Tue Dec 12 14:07:29 EST 2023
User: kyuminlee
Spectrometer: FLMS00943
Trigger mode: 0
Integration Time (sec): 1.000000E-1
Scans to average: 1
Electric dark correction enabled: true
Nonlinearity correction enabled: false
Boxcar width: 0
XAxis mode: Wavelengths
Number of Pixels in Spectrum: 2048
>>>>>Begin Spectral Data<<<<<
179.651	-0
180.037	-0
180.424	-0
180.81	0.65
181.197	0.33
181.583	-0
181.97	-0.41
182.356	-0
182.743	-0
183.129	-0
183.515	0.37
183.901	-2.63
184.288	0.16
184.674	-0
185.06	-0
185.446	-0.34
185.832	-1.29
186.218	-0.02
186.604	0.32
186.99	-0
187.376	0.08
187.762	-0
188.148	0.18
188.534	-0.52
188.92	0.11
189.305	0.1
189.691	0.14
190.077	0.35
190.463	0.02
190.848	0.06
191.234	0.06
191.619	0.23
192.005	0.13
192.391	0.09
192.776	0.24
193.161	0.13
193.547	0.14
193.932	0.07
194.318	0.07
194.703	0.38
195.088	0.22
195.473	0.17
195.859	0.19
196.244	0.14
196.629	0.2
197.014	0.08
197.399	0.15
197.784	0.15
198.169	0.06
198.554	0.25
198.939	0.14
199.324	0.14
199.709	0.01
200.094	0.06
200.478	0.11
200.863	0.13
201.248	0.13
201.633	0.3
202.017	0.1
202.402	0.31
202.787	0.16
203.171	0.09
203.556	0.19
203.94	0.04
204.325	0.33
204.709	0.19
205.093	0.21
205.478	0.1
205.862	0.17
206.246	0.27
206.631	0.21
207.015	0.02
207.399	0.14
207.783	0.06
208.167	0.15
208.551	0.27
208.935	0.23
209.319	0.16
209.703	0.11
210.087	0.22
210.471	0.06
210.855	0.03
211.239	0.26
211.623	0.26
212.007	0.21
212.39	0.16
212.774	0.08
213.158	0.13
213.541	0.24
213.925	0.22
214.309	0.37
214.692	0.24
215.076	0.28
215.459	0.18
215.842	0.17
216.226	0.26
216.609	0.36
216.993	0.14
217.376	0.41
217.759	0.34
218.142	0.31
218.525	0.44
218.909	0.23
219.292	0.36
219.675	0.42
220.058	0.39
220.441	0.42
220.824	0.42
221.207	0.73
221.59	0.48
221.973	0.53
222.355	0.6
222.738	0.66
223.121	0.58
223.504	0.5
223.886	0.65
224.269	0.65
224.652	0.54
225.034	0.69
225.417	0.71
225.799	0.82
226.182	0.72
226.564	0.76
226.947	0.71
227.329	0.9
227.711	1.16
228.094	0.95
228.476	0.92
228.858	0.74
229.24	0.82
229.623	0.9
230.005	0.86
230.387	0.88
230.769	0.89
231.151	0.96
231.533	0.88
231.915	1.03
232.297	0.98
232.679	0.87
233.061	0.99
233.442	1
233.824	1.03
234.206	1.12
234.588	1.02
234.969	1.05
235.351	0.98
235.733	1.06
236.114	1.12
236.496	1.01
236.877	1.12
237.259	0.97
237.64	1.03
238.022	0.99
238.403	0.92
238.784	1.06
239.165	0.96
239.547	1.01
239.928	1.16
240.309	1.08
240.69	1.03
241.071	1.12
241.452	1.04
241.834	1
242.215	1.1
242.595	1.08
242.976	1.19
243.357	1.08
243.738	1.06
244.119	1.24
244.5	1.17
244.881	1.17
245.261	1.18
245.642	1.12
246.023	1.2
246.403	1.2
246.784	1.35
247.164	1.22
247.545	1.29
247.925	1.32
248.306	1.23
248.686	1.38
249.067	1.15
249.447	1.34
249.827	1.46
250.207	1.63
250.588	1.28
250.968	1.49
251.348	1.33
251.728	1.42
252.108	1.37
252.488	1.31
252.868	1.27
253.248	1.26
253.628	1.36
254.008	1.45
254.388	1.27
254.768	1.32
255.147	1.38
255.527	1.66
255.907	1.36
256.287	1.39
256.666	1.43
257.046	1.63
257.425	1.62
257.805	1.37
258.184	1.3
258.564	1.34
258.943	1.29
259.323	1.41
259.702	1.48
260.081	1.41
260.461	1.46
260.84	1.36
261.219	1.65
261.598	1.44
261.977	1.47
262.356	1.46
262.736	1.42
263.115	1.57
263.494	1.45
263.873	1.44
264.251	1.41
264.63	1.46
265.009	1.46
265.388	1.42
265.767	1.52
266.145	1.48
266.524	1.38
266.903	1.44
267.281	1.34
267.66	1.54
268.039	1.57
268.417	1.36
268.796	1.43
269.174	1.49
269.552	1.31
269.931	1.48
270.309	1.56
270.687	1.55
271.066	1.74
271.444	1.37
271.822	1.59
272.2	1.51
272.578	1.44
272.956	1.52
273.334	1.44
273.712	1.4
274.09	1.44
274.468	1.43
274.846	1.3
275.224	1.42
275.602	1.58
275.98	1.4
276.357	1.4
276.735	1.51
277.113	1.38
277.49	1.3
277.868	1.22
278.246	1.33
278.623	1.37
279.001	1.28
279.378	1.38
279.756	1.58
280.133	1.48
280.51	1.41
280.888	1.31
281.265	1.36
281.642	1.71
282.019	1.69
282.396	1.5
282.773	1.42
283.151	1.4
283.528	1.45
283.905	1.37
284.282	1.5
284.659	1.79
285.035	1.39
285.412	1.34
285.789	1.51
286.166	1.47
286.543	1.34
286.919	1.43
287.296	1.38
287.673	1.64
288.049	1.52
288.426	1.58
288.802	1.43
289.179	1.53
289.555	1.73
289.932	1.46
290.308	1.31
290.684	1.43
291.061	1.36
291.437	1.58
291.813	1.29
292.189	1.33
292.565	1.38
292.942	1.43
293.318	1.56
293.694	1.55
294.07	1.43
294.446	1.38
294.822	1.56
295.197	1.41
295.573	1.55
295.949	1.56
296.325	1.56
296.701	1.56
297.076	1.44
297.452	1.53
297.828	1.46
298.203	1.58
298.579	1.41
298.954	1.37
299.33	1.49
299.705	1.46
300.081	1.48
300.456	1.52
300.831	1.5
301.206	1.36
301.582	1.64
301.957	1.48
302.332	1.52
302.707	1.42
303.082	1.44
303.457	1.42
303.832	1.44
304.207	1.35
304.582	1.37
304.957	1.43
305.332	1.43
305.707	1.4
306.082	1.38
306.456	1.48
306.831	1.36
307.206	1.41
307.58	1.42
307.955	1.4
308.33	1.34
308.704	1.41
309.079	1.4
309.453	1.57
309.828	1.47
310.202	1.39
310.576	1.32
310.951	1.42
311.325	1.4
311.699	1.32
312.073	1.36
312.447	1.34
312.821	1.31
313.196	1.41
313.57	1.4
313.944	1.47
314.317	1.28
314.691	1.42
315.065	1.41
315.439	1.35
315.813	1.43
316.187	1.45
316.56	1.55
316.934	1.5
317.308	1.38
317.681	1.48
318.055	1.42
318.428	1.3
318.802	1.37
319.175	1.35
319.549	1.39
319.922	1.32
320.295	1.39
320.669	1.51
321.042	1.43
321.415	1.58
321.788	1.4
322.162	1.38
322.535	1.45
322.908	1.5
323.281	1.39
323.654	1.52
324.027	1.44
324.4	1.41
324.773	1.44
325.145	1.42
325.518	1.32
325.891	1.41
326.264	1.61
326.636	1.29
327.009	1.34
327.382	1.39
327.754	1.43
328.127	1.36
328.499	1.43
328.872	1.46
329.244	1.43
329.616	1.52
329.989	1.41
330.361	1.45
330.733	1.37
331.106	1.35
331.478	1.51
331.85	1.44
332.222	1.35
332.594	1.44
332.966	1.52
333.338	1.62
333.71	1.52
334.082	1.47
334.454	1.44
334.826	1.38
335.197	1.44
335.569	1.42
335.941	1.34
336.312	1.53
336.684	1.36
337.056	1.45
337.427	1.45
337.799	1.47
338.17	1.48
338.542	1.46
338.913	1.48
339.284	1.48
339.656	1.45
340.027	1.56
340.398	1.5
340.769	1.48
341.141	1.7
341.512	1.36
341.883	1.44
342.254	1.42
342.625	1.46
342.996	1.43
343.367	1.34
343.738	1.39
344.108	1.33
344.479	1.48
344.85	1.41
345.221	1.54
345.591	1.32
345.962	1.39
346.333	1.47
346.703	1.29
347.074	1.32
347.444	1.35
347.815	1.28
348.185	1.27
348.556	1.3
348.926	1.26
349.296	1.3
349.666	1.33
350.037	1.23
350.407	1.2
350.777	1.33
351.147	1.35
351.517	1.37
351.887	1.4
352.257	1.45
352.627	1.33
352.997	1.28
353.367	1.35
353.737	1.48
354.106	1.33
354.476	1.34
354.846	1.33
355.216	1.33
355.585	1.42
355.955	1.35
356.324	1.49
356.694	1.46
357.063	1.35
357.433	1.33
357.802	1.41
358.171	1.49
358.541	1.36
358.91	1.44
359.279	1.33
359.648	1.33
360.017	1.4
360.387	1.43
360.756	1.31
361.125	1.46
361.494	1.51
361.863	1.34
362.231	1.34
362.6	1.44
362.969	1.39
363.338	1.33
363.707	1.47
364.075	1.45
364.444	1.27
364.813	1.42
365.181	1.46
365.55	1.44
365.918	1.53
366.287	1.35
366.655	1.5
367.024	1.36
367.392	1.45
367.76	1.39
368.128	1.37
368.497	1.44
368.865	1.4
369.233	1.37
369.601	1.43
369.969	1.37
370.337	1.39
370.705	1.3
371.073	1.43
371.441	1.44
371.809	1.37
372.177	1.44
372.544	1.38
372.912	1.38
373.28	1.38
373.647	1.46
374.015	1.53
374.383	1.82
374.75	1.54
375.118	1.43
375.485	1.45
375.853	1.54
376.22	1.5
376.587	1.47
376.955	1.43
377.322	1.57
377.689	1.49
378.056	1.44
378.423	1.38
378.79	1.38
379.157	1.46
379.524	1.48
379.891	1.42
380.258	1.47
380.625	1.42
380.992	1.48
381.359	1.68
381.726	1.67
382.092	1.42
382.459	1.58
382.826	1.45
383.192	1.73
383.559	1.52
383.925	1.49
384.292	1.48
384.658	1.62
385.025	1.5
385.391	1.47
385.757	1.6
386.123	1.57
386.49	1.53
386.856	1.48
387.222	1.54
387.588	1.5
387.954	1.67
388.32	1.54
388.686	1.49
389.052	1.61
389.418	1.5
389.784	1.39
390.15	1.46
390.515	1.4
390.881	1.56
391.247	1.5
391.613	1.6
391.978	1.44
392.344	1.62
392.709	1.54
393.075	1.57
393.44	1.48
393.806	1.49
394.171	1.37
394.536	1.41
394.902	1.56
395.267	1.46
395.632	1.42
395.997	1.51
396.362	1.47
396.727	1.56
397.092	1.62
397.457	1.6
397.822	1.42
398.187	1.62
398.552	1.43
398.917	1.58
399.282	1.33
399.646	1.47
400.011	1.59
400.376	1.39
400.74	1.47
401.105	1.57
401.47	1.58
401.834	1.44
402.199	1.41
402.563	1.51
402.927	1.51
403.292	1.44
403.656	1.49
404.02	1.4
404.384	1.65
404.749	1.49
405.113	1.5
405.477	1.66
405.841	1.48
406.205	1.49
406.569	1.46
406.933	1.4
407.296	1.38
407.66	1.38
408.024	1.4
408.388	1.55
408.752	1.51
409.115	1.48
409.479	1.48
409.842	1.43
410.206	1.37
410.569	1.38
410.933	1.49
411.296	1.27
411.66	1.37
412.023	1.31
412.386	1.46
412.749	1.33
413.113	1.4
413.476	1.35
413.839	1.32
414.202	1.41
414.565	1.22
414.928	1.36
415.291	1.18
415.654	1.29
416.017	1.44
416.38	1.26
416.742	1.37
417.105	1.24
417.468	1.23
417.83	1.27
418.193	1.34
418.556	1.28
418.918	1.28
419.281	1.25
419.643	1.31
420.005	1.29
420.368	1.31
420.73	1.25
421.092	1.33
421.455	1.34
421.817	1.21
422.179	1.23
422.541	1.32
422.903	1.33
423.265	1.3
423.627	1.3
423.989	1.3
424.351	1.24
424.713	1.24
425.075	1.22
425.436	1.17
425.798	1.2
426.16	1.25
426.521	1.24
426.883	1.22
427.245	1.24
427.606	1.18
427.967	1.2
428.329	1.21
428.69	1.26
429.052	1.17
429.413	1.23
429.774	1.26
430.135	1.22
430.497	1.23
430.858	1.19
431.219	1.26
431.58	1.22
431.941	1.18
432.302	1.22
432.663	1.22
433.024	1.19
433.384	1.18
433.745	1.17
434.106	1.18
434.467	1.2
434.827	1.19
435.188	1.2
435.548	1.21
435.909	1.14
436.269	1.19
436.63	1.14
436.99	1.15
437.351	1.11
437.711	1.17
438.071	1.1
438.431	1.09
438.792	1.1
439.152	1.1
439.512	1.08
439.872	1.09
440.232	1.12
440.592	1.11
440.952	1.09
441.312	1.06
441.671	1.07
442.031	1.04
442.391	1.05
442.751	1.11
443.11	1.03
443.47	1.01
443.83	1.06
444.189	1.06
444.549	1.03
444.908	1.04
445.267	0.99
445.627	1
445.986	0.99
446.345	0.97
446.705	1.01
447.064	1
447.423	0.99
447.782	0.97
448.141	0.97
448.5	0.92
448.859	0.96
449.218	0.95
449.577	0.96
449.936	0.94
450.295	0.94
450.653	0.93
451.012	0.94
451.371	0.94
451.729	0.92
452.088	0.92
452.447	0.88
452.805	0.9
453.163	0.9
453.522	0.89
453.88	0.87
454.239	0.87
454.597	0.85
454.955	0.84
455.313	0.83
455.671	0.84
456.029	0.83
456.388	0.81
456.746	0.81
457.104	0.81
457.461	0.8
457.819	0.8
458.177	0.78
458.535	0.77
458.893	0.76
459.25	0.77
459.608	0.75
459.966	0.74
460.323	0.73
460.681	0.71
461.038	0.72
461.396	0.71
461.753	0.69
462.111	0.7
462.468	0.67
462.825	0.68
463.182	0.67
463.54	0.64
463.897	0.65
464.254	0.64
464.611	0.64
464.968	0.61
465.325	0.62
465.682	0.61
466.039	0.6
466.395	0.58
466.752	0.59
467.109	0.58
467.466	0.59
467.822	0.57
468.179	0.56
468.535	0.55
468.892	0.54
469.248	0.53
469.605	0.52
469.961	0.52
470.318	0.53
470.674	0.51
471.03	0.49
471.386	0.5
471.743	0.49
472.099	0.48
472.455	0.48
472.811	0.47
473.167	0.46
473.523	0.45
473.879	0.47
474.235	0.46
474.59	0.45
474.946	0.44
475.302	0.44
475.657	0.42
476.013	0.42
476.369	0.41
476.724	0.41
477.08	0.41
477.435	0.39
477.791	0.4
478.146	0.4
478.501	0.39
478.857	0.38
479.212	0.38
479.567	0.37
479.922	0.35
480.277	0.35
480.632	0.35
480.987	0.35
481.342	0.34
481.697	0.33
482.052	0.33
482.407	0.33
482.762	0.32
483.116	0.32
483.471	0.31
483.826	0.3
484.18	0.3
484.535	0.3
484.89	0.3
485.244	0.29
485.598	0.29
485.953	0.29
486.307	0.29
486.661	0.29
487.016	0.28
487.37	0.28
487.724	0.27
488.078	0.27
488.432	0.27
488.786	0.27
489.14	0.26
489.494	0.25
489.848	0.25
490.202	0.25
490.556	0.25
490.91	0.25
491.263	0.24
491.617	0.24
491.971	0.24
492.324	0.24
492.678	0.23
493.031	0.24
493.385	0.23
493.738	0.23
494.091	0.23
494.445	0.23
494.798	0.22
495.151	0.22
495.504	0.22
495.857	0.22
496.21	0.22
496.564	0.22
496.916	0.22
497.269	0.21
497.622	0.21
497.975	0.21
498.328	0.21
498.681	0.21
499.033	0.21
499.386	0.2
499.739	0.2
500.091	0.2
500.444	0.19
500.796	0.19
501.149	0.19
501.501	0.19
501.854	0.2
502.206	0.19
502.558	0.19
502.91	0.2
503.263	0.19
503.615	0.19
503.967	0.18
504.319	0.19
504.671	0.19
505.023	0.19
505.375	0.19
505.726	0.18
506.078	0.19
506.43	0.18
506.782	0.19
507.133	0.18
507.485	0.19
507.837	0.19
508.188	0.19
508.54	0.18
508.891	0.19
509.243	0.18
509.594	0.18
509.945	0.18
510.296	0.17
510.648	0.18
510.999	0.17
511.35	0.18
511.701	0.18
512.052	0.18
512.403	0.18
512.754	0.18
513.105	0.17
513.456	0.17
513.807	0.17
514.157	0.18
514.508	0.18
514.859	0.17
515.209	0.17
515.56	0.18
515.91	0.17
516.261	0.18
516.611	0.17
516.962	0.18
517.312	0.17
517.662	0.17
518.013	0.18
518.363	0.18
518.713	0.17
519.063	0.18
519.413	0.18
519.763	0.18
520.113	0.18
520.463	0.18
520.813	0.18
521.163	0.18
521.512	0.18
521.862	0.18
522.212	0.18
522.562	0.18
522.911	0.18
523.261	0.17
523.61	0.18
523.96	0.18
524.309	0.18
524.658	0.18
525.008	0.18
525.357	0.18
525.706	0.18
526.056	0.18
526.405	0.18
526.754	0.18
527.103	0.17
527.452	0.18
527.801	0.18
528.15	0.18
528.499	0.18
528.847	0.18
529.196	0.19
529.545	0.19
529.893	0.19
530.242	0.19
530.591	0.19
530.939	0.19
531.288	0.19
531.636	0.19
531.985	0.18
532.333	0.19
532.681	0.19
533.029	0.19
533.378	0.19
533.726	0.19
534.074	0.19
534.422	0.18
534.77	0.19
535.118	0.19
535.466	0.19
535.814	0.19
536.162	0.19
536.509	0.19
536.857	0.19
537.205	0.19
537.552	0.2
537.9	0.19
538.248	0.18
538.595	0.19
538.943	0.19
539.29	0.19
539.637	0.19
539.985	0.19
540.332	0.19
540.679	0.19
541.026	0.2
541.373	0.19
541.721	0.18
542.068	0.18
542.415	0.19
542.762	0.18
543.108	0.18
543.455	0.18
543.802	0.18
544.149	0.18
544.496	0.19
544.842	0.18
545.189	0.17
545.535	0.18
545.882	0.18
546.228	0.17
546.575	0.18
546.921	0.18
547.267	0.18
547.614	0.18
547.96	0.18
548.306	0.18
548.652	0.18
548.998	0.19
549.344	0.18
549.69	0.18
550.036	0.18
550.382	0.18
550.728	0.19
551.074	0.18
551.42	0.18
551.765	0.18
552.111	0.19
552.457	0.2
552.802	0.19
553.148	0.19
553.493	0.18
553.839	0.19
554.184	0.19
554.529	0.18
554.875	0.19
555.22	0.2
555.565	0.18
555.91	0.18
556.255	0.2
556.6	0.19
556.945	0.19
557.29	0.19
557.635	0.2
557.98	0.19
558.325	0.19
558.67	0.19
559.014	0.19
559.359	0.19
559.704	0.19
560.048	0.17
560.393	0.19
560.737	0.18
561.082	0.19
561.426	0.18
561.77	0.19
562.115	0.18
562.459	0.19
562.803	0.19
563.147	0.19
563.491	0.19
563.835	0.18
564.179	0.18
564.523	0.18
564.867	0.18
565.211	0.19
565.555	0.19
565.899	0.2
566.242	0.19
566.586	0.18
566.93	0.19
567.273	0.2
567.617	0.19
567.96	0.19
568.304	0.19
568.647	0.19
568.99	0.19
569.334	0.2
569.677	0.19
570.02	0.19
570.363	0.2
570.706	0.19
571.049	0.2
571.392	0.2
571.735	0.19
572.078	0.19
572.421	0.21
572.764	0.19
573.106	0.19
573.449	0.19
573.792	0.2
574.134	0.19
574.477	0.2
574.819	0.19
575.162	0.19
575.504	0.19
575.847	0.19
576.189	0.19
576.531	0.19
576.873	0.19
577.215	0.19
577.558	0.2
577.9	0.18
578.242	0.19
578.584	0.2
578.926	0.19
579.267	0.19
579.609	0.19
579.951	0.18
580.293	0.19
580.634	0.19
580.976	0.2
581.318	0.19
581.659	0.19
582.001	0.19
582.342	0.19
582.683	0.19
583.025	0.19
583.366	0.18
583.707	0.19
584.049	0.18
584.39	0.18
584.731	0.19
585.072	0.19
585.413	0.19
585.754	0.19
586.095	0.2
586.435	0.19
586.776	0.19
587.117	0.19
587.458	0.18
587.798	0.19
588.139	0.19
588.48	0.18
588.82	0.19
589.161	0.19
589.501	0.18
589.841	0.18
590.182	0.19
590.522	0.18
590.862	0.19
591.202	0.19
591.542	0.18
591.882	0.19
592.222	0.19
592.562	0.19
592.902	0.18
593.242	0.18
593.582	0.19
593.922	0.19
594.261	0.18
594.601	0.18
594.941	0.18
595.28	0.18
595.62	0.18
595.959	0.17
596.299	0.18
596.638	0.19
596.977	0.18
597.317	0.19
597.656	0.18
597.995	0.19
598.334	0.2
598.673	0.18
599.012	0.19
599.351	0.19
599.69	0.18
600.029	0.2
600.368	0.2
600.707	0.19
601.046	0.19
601.384	0.2
601.723	0.2
602.061	0.18
602.4	0.19
602.738	0.19
603.077	0.19
603.415	0.19
603.754	0.19
604.092	0.19
604.43	0.18
604.768	0.19
605.107	0.19
605.445	0.18
605.783	0.19
606.121	0.18
606.459	0.19
606.796	0.18
607.134	0.18
607.472	0.18
607.81	0.19
608.148	0.18
608.485	0.19
608.823	0.18
609.16	0.18
609.498	0.18
609.835	0.18
610.173	0.18
610.51	0.19
610.847	0.18
611.185	0.19
611.522	0.19
611.859	0.18
612.196	0.19
612.533	0.19
612.87	0.19
613.207	0.18
613.544	0.19
613.881	0.19
614.217	0.19
614.554	0.19
614.891	0.19
615.228	0.19
615.564	0.18
615.901	0.19
616.237	0.19
616.574	0.19
616.91	0.2
617.246	0.19
617.583	0.19
617.919	0.2
618.255	0.19
618.591	0.19
618.927	0.18
619.263	0.19
619.599	0.19
619.935	0.18
620.271	0.19
620.607	0.18
620.943	0.19
621.279	0.18
621.614	0.18
621.95	0.19
622.286	0.18
622.621	0.18
622.957	0.18
623.292	0.19
623.627	0.18
623.963	0.17
624.298	0.18
624.633	0.18
624.968	0.18
625.304	0.18
625.639	0.18
625.974	0.17
626.309	0.17
626.644	0.17
626.979	0.18
627.313	0.17
627.648	0.18
627.983	0.18
628.318	0.17
628.652	0.17
628.987	0.18
629.321	0.18
629.656	0.17
629.99	0.16
630.325	0.17
630.659	0.17
630.993	0.16
631.327	0.17
631.662	0.16
631.996	0.16
632.33	0.16
632.664	0.16
632.998	0.16
633.332	0.16
633.666	0.16
633.999	0.17
634.333	0.16
634.667	0.15
635.001	0.15
635.334	0.15
635.668	0.16
636.001	0.16
636.335	0.16
636.668	0.16
637.001	0.16
637.335	0.16
637.668	0.16
638.001	0.16
638.334	0.16
638.668	0.15
639.001	0.15
639.334	0.15
639.667	0.16
639.999	0.16
640.332	0.15
640.665	0.16
640.998	0.16
641.331	0.16
641.663	0.16
641.996	0.16
642.328	0.16
642.661	0.16
642.993	0.16
643.326	0.16
643.658	0.16
643.99	0.15
644.323	0.16
644.655	0.16
644.987	0.16
645.319	0.16
645.651	0.17
645.983	0.17
646.315	0.16
646.647	0.16
646.979	0.17
647.31	0.17
647.642	0.16
647.974	0.15
648.305	0.17
648.637	0.15
648.968	0.16
649.3	0.16
649.631	0.16
649.963	0.15
650.294	0.16
650.625	0.15
650.957	0.16
651.288	0.15
651.619	0.16
651.95	0.16
652.281	0.16
652.612	0.16
652.943	0.16
653.274	0.17
653.604	0.16
653.935	0.15
654.266	0.15
654.596	0.16
654.927	0.15
655.258	0.16
655.588	0.15
655.918	0.15
656.249	0.13
656.579	0.15
656.909	0.15
657.24	0.15
657.57	0.16
657.9	0.15
658.23	0.15
658.56	0.15
658.89	0.15
659.22	0.15
659.55	0.15
659.88	0.15
660.209	0.15
660.539	0.16
660.869	0.15
661.198	0.15
661.528	0.15
661.857	0.15
662.187	0.15
662.516	0.15
662.846	0.15
663.175	0.14
663.504	0.15
663.833	0.14
664.163	0.15
664.492	0.14
664.821	0.14
665.15	0.14
665.479	0.15
665.807	0.14
666.136	0.14
666.465	0.15
666.794	0.14
667.122	0.14
667.451	0.14
667.78	0.14
668.108	0.15
668.437	0.15
668.765	0.15
669.093	0.16
669.422	0.14
669.75	0.15
670.078	0.15
670.406	0.14
670.734	0.15
671.062	0.14
671.39	0.14
671.718	0.15
672.046	0.15
672.374	0.13
672.702	0.14
673.029	0.14
673.357	0.14
673.685	0.15
674.012	0.14
674.34	0.14
674.667	0.14
674.995	0.14
675.322	0.14
675.649	0.14
675.977	0.14
676.304	0.14
676.631	0.14
676.958	0.13
677.285	0.13
677.612	0.13
677.939	0.13
678.266	0.13
678.593	0.14
678.92	0.13
679.246	0.13
679.573	0.14
679.9	0.13
680.226	0.13
680.553	0.13
680.879	0.13
681.206	0.14
681.532	0.13
681.858	0.13
682.184	0.13
682.511	0.13
682.837	0.13
683.163	0.14
683.489	0.14
683.815	0.13
684.141	0.13
684.467	0.13
684.793	0.13
685.118	0.13
685.444	0.13
685.77	0.13
686.095	0.13
686.421	0.13
686.746	0.13
687.072	0.13
687.397	0.12
687.723	0.13
688.048	0.13
688.373	0.12
688.698	0.12
689.023	0.13
689.349	0.12
689.674	0.12
689.999	0.12
690.323	0.11
690.648	0.11
690.973	0.11
691.298	0.11
691.623	0.12
691.947	0.12
692.272	0.12
692.596	0.12
692.921	0.12
693.245	0.12
693.57	0.12
693.894	0.12
694.218	0.13
694.543	0.13
694.867	0.13
695.191	0.12
695.515	0.13
695.839	0.12
696.163	0.13
696.487	0.13
696.811	0.12
697.135	0.13
697.458	0.12
697.782	0.12
698.106	0.13
698.429	0.13
698.753	0.11
699.076	0.11
699.4	0.12
699.723	0.12
700.046	0.11
700.37	0.12
700.693	0.12
701.016	0.12
701.339	0.12
701.662	0.13
701.985	0.11
702.308	0.12
702.631	0.12
702.954	0.12
703.277	0.12
703.599	0.11
703.922	0.11
704.245	0.11
704.567	0.11
704.89	0.1
705.212	0.12
705.535	0.11
705.857	0.11
706.179	0.1
706.502	0.1
706.824	0.11
707.146	0.1
707.468	0.11
707.79	0.1
708.112	0.12
708.434	0.11
708.756	0.11
709.078	0.11
709.399	0.11
709.721	0.11
710.043	0.11
710.364	0.1
710.686	0.11
711.007	0.11
711.329	0.12
711.65	0.11
711.972	0.11
712.293	0.11
712.614	0.11
712.935	0.11
713.256	0.11
713.577	0.12
713.898	0.11
714.219	0.11
714.54	0.11
714.861	0.1
715.182	0.11
715.503	0.11
715.823	0.1
716.144	0.1
716.464	0.1
716.785	0.1
717.105	0.1
717.426	0.1
717.746	0.1
718.066	0.1
718.387	0.1
718.707	0.09
719.027	0.1
719.347	0.09
719.667	0.09
719.987	0.09
720.307	0.1
720.627	0.09
720.947	0.09
721.266	0.09
721.586	0.09
721.906	0.1
722.225	0.08
722.545	0.09
722.864	0.08
723.184	0.1
723.503	0.09
723.823	0.1
724.142	0.09
724.461	0.09
724.78	0.09
725.099	0.09
725.418	0.1
725.737	0.09
726.056	0.09
726.375	0.1
726.694	0.1
727.013	0.09
727.331	0.08
727.65	0.09
727.969	0.09
728.287	0.09
728.606	0.09
728.924	0.08
729.242	0.09
729.561	0.09
729.879	0.09
730.197	0.09
730.515	0.08
730.834	0.09
731.152	0.09
731.47	0.09
731.788	0.09
732.105	0.08
732.423	0.09
732.741	0.09
733.059	0.09
733.376	0.09
733.694	0.08
734.012	0.09
734.329	0.09
734.647	0.09
734.964	0.1
735.281	0.09
735.599	0.1
735.916	0.1
736.233	0.09
736.55	0.09
736.867	0.09
737.184	0.1
737.501	0.09
737.818	0.09
738.135	0.1
738.452	0.1
738.768	0.09
739.085	0.09
739.402	0.09
739.718	0.09
740.035	0.09
740.351	0.09
740.668	0.1
740.984	0.08
741.3	0.08
741.617	0.09
741.933	0.09
742.249	0.09
742.565	0.09
742.881	0.09
743.197	0.09
743.513	0.08
743.829	0.07
744.144	0.08
744.46	0.09
744.776	0.08
745.091	0.08
745.407	0.08
745.722	0.08
746.038	0.09
746.353	0.07
746.669	0.09
746.984	0.07
747.299	0.07
747.614	0.08
747.93	0.08
748.245	0.08
748.56	0.08
748.875	0.07
749.189	0.07
749.504	0.07
749.819	0.08
750.134	0.06
750.448	0.08
750.763	0.07
751.078	0.06
751.392	0.07
751.707	0.09
752.021	0.08
752.335	0.08
752.65	0.08
752.964	0.07
753.278	0.08
753.592	0.08
753.906	0.07
754.22	0.08
754.534	0.08
754.848	0.08
755.162	0.08
755.476	0.08
755.789	0.08
756.103	0.07
756.417	0.08
756.73	0.08
757.044	0.08
757.357	0.08
757.671	0.08
757.984	0.08
758.297	0.08
758.61	0.08
758.924	0.08
759.237	0.07
759.55	0.08
759.863	0.07
760.176	0.08
760.488	0.08
760.801	0.07
761.114	0.07
761.427	0.07
761.739	0.07
762.052	0.07
762.365	0.07
762.677	0.07
762.99	0.06
763.302	0.07
763.614	0.06
763.926	0.07
764.239	0.07
764.551	0.07
764.863	0.07
765.175	0.07
765.487	0.07
765.799	0.06
766.111	0.06
766.423	0.07
766.734	0.07
767.046	0.06
767.358	0.07
767.669	0.07
767.981	0.07
768.292	0.06
768.604	0.07
768.915	0.07
769.226	0.07
769.537	0.06
769.849	0.07
770.16	0.06
770.471	0.06
770.782	0.07
771.093	0.07
771.404	0.06
771.715	0.05
772.025	0.06
772.336	0.07
772.647	0.06
772.957	0.07
773.268	0.07
773.578	0.06
773.889	0.08
774.199	0.08
774.51	0.07
774.82	0.06
775.13	0.07
775.44	0.07
775.75	0.07
776.06	0.07
776.37	0.07
776.68	0.08
776.99	0.07
777.3	0.07
777.61	0.07
777.92	0.07
778.229	0.07
778.539	0.07
778.848	0.06
779.158	0.07
779.467	0.07
779.777	0.06
780.086	0.07
780.395	0.06
780.704	0.06
781.013	0.05
781.323	0.06
781.632	0.06
781.941	0.06
782.249	0.06
782.558	0.06
782.867	0.06
783.176	0.05
783.485	0.05
783.793	0.06
784.102	0.06
784.41	0.07
784.719	0.06
785.027	0.07
785.335	0.06
785.644	0.06
785.952	0.05
786.26	0.06
786.568	0.06
786.876	0.05
787.184	0.06
787.492	0.06
787.8	0.06
788.108	0.06
788.416	0.06
788.723	0.07
789.031	0.05
789.338	0.05
789.646	0.06
789.953	0.07
790.261	0.07
790.568	0.07
790.876	0.06
791.183	0.07
791.49	0.06
791.797	0.07
792.104	0.06
792.411	0.07
792.718	0.06
793.025	0.06
793.332	0.07
793.639	0.07
793.945	0.08
794.252	0.06
794.559	0.06
794.865	0.07
795.172	0.07
795.478	0.06
795.784	0.07
796.091	0.07
796.397	0.07
796.703	0.06
797.009	0.08
797.315	0.07
797.622	0.08
797.927	0.07
798.233	0.06
798.539	0.08
798.845	0.07
799.151	0.07
799.456	0.07
799.762	0.06
800.068	0.06
800.373	0.07
800.679	0.07
800.984	0.06
801.289	0.06
801.595	0.06
801.9	0.07
802.205	0.06
802.51	0.07
802.815	0.07
803.12	0.07
803.425	0.07
803.73	0.06
804.035	0.07
804.339	0.06
804.644	0.06
804.949	0.07
805.253	0.06
805.558	0.07
805.862	0.06
806.167	0.07
806.471	0.06
806.775	0.06
807.08	0.06
807.384	0.06
807.688	0.06
807.992	0.07
808.296	0.06
808.6	0.06
808.904	0.06
809.207	0.06
809.511	0.07
809.815	0.07
810.119	0.07
810.422	0.07
810.726	0.07
811.029	0.07
811.332	0.07
811.636	0.08
811.939	0.07
812.242	0.07
812.546	0.07
812.849	0.06
813.152	0.07
813.455	0.08
813.758	0.07
814.06	0.07
814.363	0.07
814.666	0.07
814.969	0.07
815.271	0.07
815.574	0.07
815.877	0.07
816.179	0.07
816.481	0.07
816.784	0.07
817.086	0.06
817.388	0.05
817.69	0.05
817.993	0.05
818.295	0.05
818.597	0.05
818.899	0.05
819.2	0.05
819.502	0.04
819.804	0.06
820.106	0.05
820.407	0.04
820.709	0.05
821.01	0.05
821.312	0.06
821.613	0.05
821.915	0.04
822.216	0.05
822.517	0.04
822.818	0.04
823.119	0.04
823.42	0.05
823.721	0.04
824.022	0.04
824.323	0.05
824.624	0.05
824.925	0.05
825.226	0.06
825.526	0.05
825.827	0.05
826.127	0.04
826.428	0.05
826.728	0.05
827.028	0.04
827.329	0.04
827.629	0.04
827.929	0.04
828.229	0.04
828.529	0.04
828.829	0.04
829.129	0.04
829.429	0.04
829.729	0.05
830.029	0.04
830.328	0.04
830.628	0.04
830.927	0.04
831.227	0.03
831.526	0.04
831.826	0.04
832.125	0.03
832.424	0.03
832.724	0.03
833.023	0.04
833.322	0.04
833.621	0.03
833.92	0.03
834.219	0.03
834.518	0.03
834.816	0.03
835.115	0.03
835.414	0.02
835.712	0.02
836.011	0.02
836.309	0.03
836.608	0.02
836.906	0.01
837.205	0.01
837.503	0.01
837.801	0.01
838.099	0.01
838.397	-0
838.695	0
838.993	0
839.291	-0.01
839.589	0
839.887	-0.01
840.184	-0.01
840.482	-0.01
840.78	-0.01
841.077	-0.01
841.375	-0
841.672	0
841.969	-0
842.267	-0
842.564	-0.01
842.861	-0
843.158	-0
843.455	-0.02
843.752	-0.02
844.049	-0.01
844.346	-0.01
844.643	-0.02
844.94	-0.02
845.236	-0.01
845.533	-0.01
845.83	-0.01
846.126	-0.02
846.423	-0.02
846.719	-0.03
847.015	-0.02
847.312	-0.02
847.608	-0.02
847.904	-0.03
848.2	-0.04
848.496	-0.04
848.792	-0.02
849.088	-0.02
849.384	-0.04
849.68	-0.04
849.975	-0.03
850.271	-0.04
850.567	-0.03
850.862	-0.05
851.158	-0.04
851.453	-0.04
851.748	-0.05
852.044	-0.04
852.339	-0.04
852.634	-0.06
852.929	-0.05
853.224	-0.05
853.519	-0.05
853.814	-0.04
854.109	-0.05
854.404	-0.05
854.699	-0.06
854.994	-0.05
855.288	-0.05
855.583	-0.04
855.877	-0.05
856.172	-0.05
856.466	-0.06
856.76	-0.06
857.055	-0.06
857.349	-0.07
857.643	-0.08
857.937	-0.08
858.231	-0.08
858.525	-0.08
858.819	-0.08
859.113	-0.09
859.407	-0.1
859.701	-0.1
859.994	-0.09
860.288	-0.09
860.581	-0.1
860.875	-0.09
861.168	-0.1
861.462	-0.1
861.755	-0.1
862.048	-0.1
862.341	-0.1
862.634	-0.11
862.928	-0.09
863.221	-0.1
863.513	-0.11
863.806	-0.11
864.099	-0.11
864.392	-0.11
864.685	-0.1
864.977	-0.1
865.27	-0.1
865.562	-0.11
865.855	-0.1
866.147	-0.11
866.44	-0.11
866.732	-0.11
867.024	-0.12
867.316	-0.11
867.608	-0.11
867.9	-0.12
868.192	-0.12
868.484	-0.13
868.776	-0.12
869.068	-0.13
869.359	-0.13
869.651	-0.13
869.943	-0.15
870.234	-0.14
870.526	-0.14
870.817	-0.14
871.108	-0.13
871.4	-0.13
871.691	-0.14
871.982	-0.14
872.273	-0.15
872.564	-0.13
872.855	-0.15
873.146	-0.15
873.437	-0.14
873.728	-0.16
874.019	-0.15
874.309	-0.15
874.6	-0.16
874.89	-0.16
875.181	-0.17
875.471	-0.15
875.762	-0.15
876.052	-0.15
876.342	-0.15
876.632	-0.17
876.922	-0.16
877.213	-0.17
877.503	-0.18
877.792	-0.16
878.082	-0.17
878.372	-0.16
878.662	-0.19
878.952	-0.17
879.241	-0.16
879.531	-0.16
879.82	-0.16
880.11	-0.16
880.399	-0.16
880.688	-0.16
880.978	-0.16
881.267	-0.16
