Data from 12-12-AQDScycling_Absorbance__6__00006.txt Node

Date: Tue Dec 12 10:58:14 EST 2023
User: kyuminlee
Spectrometer: FLMS00943
Trigger mode: 0
Integration Time (sec): 1.000000E-1
Scans to average: 1
Electric dark correction enabled: true
Nonlinearity correction enabled: false
Boxcar width: 0
XAxis mode: Wavelengths
Number of Pixels in Spectrum: 2048
>>>>>Begin Spectral Data<<<<<
179.651	-0
180.037	-0
180.424	-0
180.81	-0.38
181.197	0.26
181.583	-0
181.97	-0.28
182.356	-0
182.743	-0
183.129	0.52
183.515	0.48
183.901	-2.78
184.288	-0.09
184.674	-0
185.06	-0.94
185.446	-0.44
185.832	-0
186.218	0.04
186.604	0.11
186.99	-0
187.376	-0
187.762	-0
188.148	0.3
188.534	0.2
188.92	0.11
189.305	0.01
189.691	0.15
190.077	0.12
190.463	0.22
190.848	0.05
191.234	-0.01
191.619	0.21
192.005	0.08
192.391	0.34
192.776	0.18
193.161	0.19
193.547	0.12
193.932	-0.01
194.318	0.01
194.703	0.25
195.088	0.22
195.473	0.1
195.859	0.1
196.244	0.24
196.629	0.27
197.014	0.15
197.399	0.16
197.784	0.1
198.169	0.06
198.554	0.18
198.939	0.1
199.324	0.05
199.709	-0.02
200.094	0.05
200.478	0.05
200.863	0.22
201.248	0.13
201.633	0.2
202.017	0.14
202.402	0.02
202.787	0.12
203.171	0.33
203.556	0.25
203.94	0.03
204.325	0.17
204.709	0.16
205.093	0.08
205.478	-0.02
205.862	0.04
206.246	-0
206.631	0.14
207.015	0.05
207.399	0.21
207.783	0.09
208.167	0.09
208.551	0.14
208.935	0.21
209.319	0.09
209.703	0.1
210.087	0.38
210.471	0.04
210.855	0.2
211.239	0.31
211.623	0.14
212.007	0.23
212.39	0.37
212.774	0.22
213.158	0.04
213.541	0.29
213.925	0.14
214.309	0.24
214.692	0.14
215.076	0.39
215.459	0.2
215.842	0.09
216.226	0.24
216.609	0.17
216.993	0.14
217.376	0.35
217.759	0.17
218.142	0.36
218.525	0.29
218.909	0.41
219.292	0.35
219.675	0.37
220.058	0.38
220.441	0.44
220.824	0.43
221.207	0.56
221.59	0.45
221.973	0.57
222.355	0.67
222.738	0.54
223.121	0.74
223.504	0.61
223.886	0.61
224.269	0.6
224.652	0.58
225.034	0.79
225.417	0.72
225.799	0.77
226.182	0.77
226.564	0.83
226.947	0.78
227.329	0.74
227.711	1.02
228.094	1.03
228.476	0.89
228.858	0.7
229.24	0.77
229.623	0.91
230.005	0.81
230.387	0.82
230.769	0.78
231.151	0.88
231.533	0.84
231.915	0.94
232.297	0.9
232.679	0.94
233.061	1
233.442	0.88
233.824	1.06
234.206	1.05
234.588	1.06
234.969	1.09
235.351	0.95
235.733	1.01
236.114	1.09
236.496	1.06
236.877	1.18
237.259	1.19
237.64	1.02
238.022	1.04
238.403	0.94
238.784	1.07
239.165	0.92
239.547	1.04
239.928	1.15
240.309	1.12
240.69	1
241.071	0.99
241.452	1.23
241.834	1.05
242.215	1.12
242.595	1.06
242.976	1.1
243.357	1.07
243.738	1.02
244.119	1.38
244.5	1.07
244.881	1.2
245.261	1.12
245.642	1.08
246.023	1.13
246.403	1.13
246.784	1.24
247.164	1.18
247.545	1.18
247.925	1.12
248.306	1.27
248.686	1.35
249.067	1.24
249.447	1.27
249.827	1.38
250.207	1.31
250.588	1.23
250.968	1.39
251.348	1.31
251.728	1.35
252.108	1.46
252.488	1.39
252.868	1.22
253.248	1.33
253.628	1.37
254.008	1.56
254.388	1.22
254.768	1.29
255.147	1.34
255.527	1.45
255.907	1.29
256.287	1.3
256.666	1.37
257.046	1.45
257.425	1.59
257.805	1.26
258.184	1.34
258.564	1.3
258.943	1.34
259.323	1.86
259.702	1.38
260.081	1.41
260.461	1.47
260.84	1.4
261.219	1.57
261.598	1.53
261.977	1.43
262.356	1.52
262.736	1.48
263.115	1.77
263.494	1.39
263.873	1.45
264.251	1.38
264.63	1.5
265.009	1.29
265.388	1.39
265.767	1.37
266.145	1.42
266.524	1.37
266.903	1.33
267.281	1.39
267.66	1.4
268.039	1.45
268.417	1.37
268.796	1.38
269.174	1.45
269.552	1.32
269.931	1.5
270.309	1.4
270.687	1.47
271.066	1.53
271.444	1.36
271.822	1.54
272.2	1.46
272.578	1.34
272.956	1.43
273.334	1.4
273.712	1.47
274.09	1.4
274.468	1.49
274.846	1.36
275.224	1.4
275.602	1.39
275.98	1.37
276.357	1.43
276.735	1.4
277.113	1.39
277.49	1.35
277.868	1.2
278.246	1.49
278.623	1.34
279.001	1.36
279.378	1.62
279.756	1.43
280.133	1.58
280.51	1.38
280.888	1.29
281.265	1.29
281.642	1.39
282.019	1.65
282.396	1.64
282.773	1.37
283.151	1.41
283.528	1.44
283.905	1.37
284.282	1.72
284.659	1.56
285.035	1.33
285.412	1.33
285.789	1.51
286.166	1.41
286.543	1.45
286.919	1.45
287.296	1.36
287.673	1.61
288.049	1.49
288.426	1.48
288.802	1.43
289.179	1.67
289.555	1.61
289.932	1.44
290.308	1.37
290.684	1.19
291.061	1.36
291.437	1.47
291.813	1.28
292.189	1.27
292.565	1.19
292.942	1.28
293.318	1.3
293.694	1.33
294.07	1.29
294.446	1.4
294.822	1.48
295.197	1.4
295.573	1.49
295.949	1.47
296.325	1.43
296.701	1.69
297.076	1.45
297.452	1.52
297.828	1.39
298.203	1.72
298.579	1.51
298.954	1.57
299.33	1.4
299.705	1.49
300.081	1.48
300.456	1.58
300.831	1.46
301.206	1.43
301.582	1.72
301.957	1.48
302.332	1.49
302.707	1.44
303.082	1.42
303.457	1.45
303.832	1.37
304.207	1.47
304.582	1.5
304.957	1.46
305.332	1.49
305.707	1.4
306.082	1.48
306.456	1.56
306.831	1.45
307.206	1.53
307.58	1.46
307.955	1.47
308.33	1.48
308.704	1.54
309.079	1.45
309.453	1.7
309.828	1.42
310.202	1.41
310.576	1.46
310.951	1.45
311.325	1.63
311.699	1.5
312.073	1.47
312.447	1.48
312.821	1.46
313.196	1.47
313.57	1.51
313.944	1.55
314.317	1.44
314.691	1.55
315.065	1.58
315.439	1.57
315.813	1.55
316.187	1.46
316.56	1.63
316.934	1.61
317.308	1.54
317.681	1.55
318.055	1.45
318.428	1.63
318.802	1.64
319.175	1.42
319.549	1.41
319.922	1.34
320.295	1.38
320.669	1.59
321.042	1.47
321.415	1.73
321.788	1.48
322.162	1.48
322.535	1.56
322.908	1.48
323.281	1.47
323.654	1.61
324.027	1.38
324.4	1.76
324.773	1.59
325.145	1.64
325.518	1.34
325.891	1.43
326.264	1.45
326.636	1.31
327.009	1.5
327.382	1.52
327.754	1.52
328.127	1.47
328.499	1.46
328.872	1.45
329.244	1.59
329.616	1.49
329.989	1.51
330.361	1.56
330.733	1.39
331.106	1.49
331.478	1.55
331.85	1.33
332.222	1.38
332.594	1.51
332.966	1.47
333.338	1.57
333.71	1.53
334.082	1.68
334.454	1.37
334.826	1.48
335.197	1.49
335.569	1.47
335.941	1.43
336.312	1.49
336.684	1.44
337.056	1.43
337.427	1.6
337.799	1.6
338.17	1.53
338.542	1.4
338.913	1.62
339.284	1.59
339.656	1.45
340.027	1.52
340.398	1.51
340.769	1.47
341.141	1.6
341.512	1.48
341.883	1.56
342.254	1.47
342.625	1.56
342.996	1.54
343.367	1.55
343.738	1.48
344.108	1.43
344.479	1.56
344.85	1.41
345.221	1.49
345.591	1.46
345.962	1.58
346.333	1.44
346.703	1.34
347.074	1.36
347.444	1.31
347.815	1.32
348.185	1.43
348.556	1.28
348.926	1.25
349.296	1.28
349.666	1.3
350.037	1.42
350.407	1.24
350.777	1.3
351.147	1.37
351.517	1.34
351.887	1.22
352.257	1.31
352.627	1.27
352.997	1.21
353.367	1.22
353.737	1.3
354.106	1.33
354.476	1.26
354.846	1.31
355.216	1.34
355.585	1.35
355.955	1.32
356.324	1.24
356.694	1.18
357.063	1.17
357.433	1.19
357.802	1.21
358.171	1.17
358.541	1.16
358.91	1.17
359.279	1.11
359.648	1.08
360.017	1.05
360.387	1.03
360.756	0.98
361.125	1.03
361.494	0.97
361.863	0.94
362.231	0.93
362.6	0.94
362.969	0.91
363.338	0.84
363.707	0.86
364.075	0.84
364.444	0.77
364.813	0.79
365.181	0.76
365.55	0.75
365.918	0.75
366.287	0.72
366.655	0.72
367.024	0.67
367.392	0.67
367.76	0.62
368.128	0.62
368.497	0.6
368.865	0.6
369.233	0.57
369.601	0.56
369.969	0.55
370.337	0.55
370.705	0.52
371.073	0.5
371.441	0.48
371.809	0.48
372.177	0.46
372.544	0.46
372.912	0.45
373.28	0.45
373.647	0.42
374.015	0.43
374.383	0.4
374.75	0.43
375.118	0.4
375.485	0.39
375.853	0.4
376.22	0.35
376.587	0.36
376.955	0.35
377.322	0.34
377.689	0.35
378.056	0.32
378.423	0.33
378.79	0.32
379.157	0.33
379.524	0.31
379.891	0.32
380.258	0.3
380.625	0.29
380.992	0.29
381.359	0.28
381.726	0.28
382.092	0.27
382.459	0.28
382.826	0.28
383.192	0.27
383.559	0.25
383.925	0.26
384.292	0.26
384.658	0.24
385.025	0.24
385.391	0.23
385.757	0.24
386.123	0.26
386.49	0.24
386.856	0.23
387.222	0.21
387.588	0.23
387.954	0.22
388.32	0.21
388.686	0.22
389.052	0.2
389.418	0.2
389.784	0.22
390.15	0.2
390.515	0.21
390.881	0.2
391.247	0.21
391.613	0.21
391.978	0.2
392.344	0.21
392.709	0.19
393.075	0.2
393.44	0.2
393.806	0.18
394.171	0.2
394.536	0.18
394.902	0.19
395.267	0.17
395.632	0.18
395.997	0.17
396.362	0.18
396.727	0.19
397.092	0.18
397.457	0.17
397.822	0.18
398.187	0.17
398.552	0.16
398.917	0.16
399.282	0.17
399.646	0.16
400.011	0.17
400.376	0.16
400.74	0.17
401.105	0.17
401.47	0.18
401.834	0.16
402.199	0.16
402.563	0.12
402.927	0.14
403.292	0.16
403.656	0.16
404.02	0.15
404.384	0.15
404.749	0.16
405.113	0.15
405.477	0.15
405.841	0.15
406.205	0.15
406.569	0.14
406.933	0.14
407.296	0.14
407.66	0.14
408.024	0.14
408.388	0.16
408.752	0.13
409.115	0.12
409.479	0.13
409.842	0.14
410.206	0.12
410.569	0.14
410.933	0.12
411.296	0.14
411.66	0.13
412.023	0.11
412.386	0.12
412.749	0.13
413.113	0.12
413.476	0.11
413.839	0.11
414.202	0.11
414.565	0.12
414.928	0.11
415.291	0.1
415.654	0.11
416.017	0.1
416.38	0.09
416.742	0.1
417.105	0.09
417.468	0.11
417.83	0.1
418.193	0.1
418.556	0.11
418.918	0.1
419.281	0.1
419.643	0.09
420.005	0.09
420.368	0.09
420.73	0.07
421.092	0.09
421.455	0.08
421.817	0.08
422.179	0.07
422.541	0.08
422.903	0.08
423.265	0.08
423.627	0.07
423.989	0.08
424.351	0.07
424.713	0.08
425.075	0.06
425.436	0.07
425.798	0.07
426.16	0.07
426.521	0.07
426.883	0.07
427.245	0.06
427.606	0.07
427.967	0.07
428.329	0.08
428.69	0.08
429.052	0.07
429.413	0.06
429.774	0.06
430.135	0.05
430.497	0.06
430.858	0.06
431.219	0.06
431.58	0.06
431.941	0.07
432.302	0.07
432.663	0.06
433.024	0.07
433.384	0.06
433.745	0.05
434.106	0.06
434.467	0.06
434.827	0.07
435.188	0.05
435.548	0.07
435.909	0.07
436.269	0.08
436.63	0.05
436.99	0.05
437.351	0.07
437.711	0.07
438.071	0.05
438.431	0.06
438.792	0.06
439.152	0.05
439.512	0.05
439.872	0.06
440.232	0.07
440.592	0.05
440.952	0.05
441.312	0.05
441.671	0.04
442.031	0.05
442.391	0.05
442.751	0.05
443.11	0.04
443.47	0.04
443.83	0.06
444.189	0.05
444.549	0.05
444.908	0.06
445.267	0.04
445.627	0.03
445.986	0.04
446.345	0.04
446.705	0.03
447.064	0.04
447.423	0.05
447.782	0.04
448.141	0.04
448.5	0.05
448.859	0.05
449.218	0.04
449.577	0.05
449.936	0.06
450.295	0.05
450.653	0.04
451.012	0.05
451.371	0.05
451.729	0.05
452.088	0.05
452.447	0.05
452.805	0.06
453.163	0.06
453.522	0.05
453.88	0.04
454.239	0.05
454.597	0.04
454.955	0.04
455.313	0.04
455.671	0.05
456.029	0.03
456.388	0.04
456.746	0.04
457.104	0.03
457.461	0.03
457.819	0.04
458.177	0.03
458.535	0.03
458.893	0.04
459.25	0.04
459.608	0.04
459.966	0.03
460.323	0.03
460.681	0.02
461.038	0.04
461.396	0.03
461.753	0.04
462.111	0.03
462.468	0.03
462.825	0.03
463.182	0.03
463.54	0.03
463.897	0.03
464.254	0.03
464.611	0.03
464.968	0.02
465.325	0.03
465.682	0.04
466.039	0.02
466.395	0.02
466.752	0.02
467.109	0.02
467.466	0.03
467.822	0.04
468.179	0.03
468.535	0.03
468.892	0.03
469.248	0.02
469.605	0.03
469.961	0.03
470.318	0.03
470.674	0.03
471.03	0.02
471.386	0.03
471.743	0.02
472.099	0.03
472.455	0.03
472.811	0.02
473.167	0.03
473.523	0.02
473.879	0.03
474.235	0.03
474.59	0.03
474.946	0.02
475.302	0.03
475.657	0.02
476.013	0.03
476.369	0.03
476.724	0.03
477.08	0.03
477.435	0.02
477.791	0.02
478.146	0.03
478.501	0.03
478.857	0.03
479.212	0.03
479.567	0.03
479.922	0.02
480.277	0.02
480.632	0.02
480.987	0.02
481.342	0.02
481.697	0.02
482.052	0.02
482.407	0.02
482.762	0.02
483.116	0.02
483.471	0.02
483.826	0.01
484.18	0.02
484.535	0.02
484.89	0.02
485.244	0.02
485.598	0.03
485.953	0.03
486.307	0.03
486.661	0.03
487.016	0.02
487.37	0.03
487.724	0.03
488.078	0.03
488.432	0.03
488.786	0.03
489.14	0.03
489.494	0.02
489.848	0.02
490.202	0.02
490.556	0.02
490.91	0.03
491.263	0.02
491.617	0.02
491.971	0.03
492.324	0.02
492.678	0.03
493.031	0.02
493.385	0.03
493.738	0.02
494.091	0.02
494.445	0.02
494.798	0.03
495.151	0.03
495.504	0.03
495.857	0.03
496.21	0.03
496.564	0.02
496.916	0.03
497.269	0.02
497.622	0.03
497.975	0.03
498.328	0.03
498.681	0.03
499.033	0.02
499.386	0.02
499.739	0.03
500.091	0.03
500.444	0.03
500.796	0.03
501.149	0.03
501.501	0.02
501.854	0.03
502.206	0.02
502.558	0.03
502.91	0.02
503.263	0.02
503.615	0.02
503.967	0.02
504.319	0.02
504.671	0.02
505.023	0.02
505.375	0.02
505.726	0.02
506.078	0.02
506.43	0.02
506.782	0.02
507.133	0.02
507.485	0.03
507.837	0.02
508.188	0.02
508.54	0.03
508.891	0.03
509.243	0.02
509.594	0.02
509.945	0.02
510.296	0.01
510.648	0.03
510.999	0.01
511.35	0.01
511.701	0.02
512.052	0.02
512.403	0.02
512.754	0.01
513.105	0.01
513.456	0.01
513.807	0.01
514.157	0.01
514.508	0.01
514.859	0.01
515.209	0.01
515.56	0.01
515.91	0.01
516.261	0.01
516.611	0.01
516.962	0.02
517.312	0.01
517.662	0.01
518.013	0.01
518.363	0.01
518.713	0.02
519.063	0.02
519.413	0.02
519.763	0.01
520.113	0.01
520.463	0.02
520.813	0.02
521.163	0.02
521.512	0.01
521.862	0.02
522.212	0.02
522.562	0.02
522.911	0.02
523.261	0.02
523.61	0.02
523.96	0.02
524.309	0.02
524.658	0.02
525.008	0.01
525.357	0.02
525.706	0.02
526.056	0.02
526.405	0.02
526.754	0.02
527.103	0.02
527.452	0.02
527.801	0.02
528.15	0.02
528.499	0.01
528.847	0.02
529.196	0.02
529.545	0.02
529.893	0.02
530.242	0.02
530.591	0.02
530.939	0.02
531.288	0.02
531.636	0.02
531.985	0.02
532.333	0.02
532.681	0.01
533.029	0.01
533.378	0.02
533.726	0.02
534.074	0.02
534.422	0.02
534.77	0.02
535.118	0.01
535.466	0.01
535.814	0.01
536.162	0.01
536.509	0.02
536.857	0.02
537.205	0.01
537.552	0.02
537.9	0.01
538.248	0.01
538.595	0.01
538.943	0.01
539.29	0.01
539.637	0.01
539.985	0.01
540.332	0.01
540.679	0.01
541.026	0.01
541.373	0.02
541.721	0.01
542.068	0.01
542.415	0.01
542.762	0.01
543.108	0
543.455	0
543.802	0.01
544.149	0
544.496	0.01
544.842	0.01
545.189	0.01
545.535	0.01
545.882	0.01
546.228	0.01
546.575	0
546.921	-0
547.267	0.01
547.614	0
547.96	0.01
548.306	0
548.652	0
548.998	0.01
549.344	-0
549.69	0.01
550.036	0.01
550.382	0
550.728	0
551.074	0.01
551.42	0.01
551.765	0
552.111	0.01
552.457	0.01
552.802	-0
553.148	0
553.493	0.01
553.839	0.01
554.184	0.01
554.529	-0
554.875	0.01
555.22	0
555.565	0.01
555.91	0
556.255	0.01
556.6	0
556.945	-0.01
557.29	0
557.635	0.01
557.98	-0
558.325	-0
558.67	-0
559.014	-0.01
559.359	0
559.704	0
560.048	-0.01
560.393	0
560.737	-0.01
561.082	-0
561.426	-0.01
561.77	-0
562.115	-0.01
562.459	-0.01
562.803	-0
563.147	-0
563.491	-0
563.835	0
564.179	-0
564.523	-0.01
564.867	-0.01
565.211	-0
565.555	-0
565.899	0
566.242	0
566.586	-0.01
566.93	-0
567.273	0
567.617	-0
567.96	0.01
568.304	0.01
568.647	-0
568.99	0.01
569.334	0.01
569.677	0.01
570.02	0.01
570.363	0
570.706	0
571.049	0
571.392	0.01
571.735	0
572.078	0.01
572.421	0.01
572.764	0.01
573.106	0.01
573.449	0
573.792	-0
574.134	-0
574.477	0
574.819	0
575.162	-0
575.504	-0
575.847	0
576.189	0
576.531	0
576.873	-0.01
577.215	-0
577.558	0
577.9	-0.01
578.242	-0
578.584	-0.01
578.926	-0
579.267	-0.01
579.609	-0.01
579.951	-0
580.293	-0.01
580.634	-0
580.976	-0
581.318	-0
581.659	-0.01
582.001	0
582.342	-0
582.683	-0
583.025	-0.01
583.366	-0.01
583.707	-0.01
584.049	-0.01
584.39	-0.01
584.731	-0.01
585.072	-0.01
585.413	0
585.754	-0.01
586.095	-0
586.435	0
586.776	0
587.117	-0
587.458	-0
587.798	-0
588.139	0
588.48	-0.01
588.82	-0.01
589.161	-0.01
589.501	-0.01
589.841	0
590.182	-0.01
590.522	-0.01
590.862	-0.01
591.202	-0
591.542	-0.01
591.882	-0
592.222	-0
592.562	-0.01
592.902	-0.01
593.242	-0.01
593.582	0
593.922	-0
594.261	-0.01
594.601	-0.01
594.941	-0.01
595.28	-0
595.62	-0
595.959	-0.01
596.299	-0
596.638	-0.01
596.977	-0
597.317	-0
597.656	-0
597.995	-0.01
598.334	0
598.673	0
599.012	-0
599.351	-0
599.69	0
600.029	0
600.368	0
600.707	-0
601.046	-0
601.384	0.01
601.723	0
602.061	-0.01
602.4	-0
602.738	0
603.077	-0.01
603.415	-0
603.754	-0
604.092	-0
604.43	0
604.768	-0
605.107	0
605.445	-0
605.783	-0.01
606.121	-0
606.459	0
606.796	0
607.134	-0
607.472	-0
607.81	0
608.148	-0
608.485	0
608.823	0
609.16	-0
609.498	0.01
609.835	0
610.173	0.01
610.51	0.01
610.847	0.01
611.185	0.01
611.522	0.01
611.859	0.01
612.196	0.01
612.533	0.02
612.87	0.02
613.207	0.01
613.544	0.01
613.881	0.02
614.217	0.01
614.554	0.01
614.891	0.01
615.228	0.01
615.564	0.01
615.901	0.01
616.237	0.01
616.574	0.01
616.91	0.02
617.246	0.01
617.583	0.01
617.919	0.02
618.255	0.02
618.591	0.01
618.927	0.02
619.263	0.02
619.599	0.01
619.935	0.02
620.271	0.01
620.607	0.01
620.943	0.01
621.279	0.01
621.614	0.01
621.95	0.01
622.286	0
622.621	0
622.957	0.01
623.292	0.01
623.627	0
623.963	0
624.298	0
624.633	0.01
624.968	0.01
625.304	0.01
625.639	0
625.974	0
626.309	0
626.644	0.01
626.979	0.01
627.313	0.01
627.648	0.01
627.983	0.02
628.318	0
628.652	0
628.987	0.01
629.321	0.01
629.656	0
629.99	0
630.325	0.01
630.659	0
630.993	-0
631.327	0
631.662	-0.01
631.996	-0
632.33	-0
632.664	0
632.998	-0.01
633.332	-0.01
633.666	-0.01
633.999	-0
634.333	-0.01
634.667	-0.01
635.001	-0.01
635.334	-0
635.668	-0
636.001	-0
636.335	-0.01
636.668	-0
637.001	-0.01
637.335	0
637.668	-0
638.001	-0
638.334	0
638.668	-0.01
639.001	-0
639.334	-0.01
639.667	-0.01
639.999	-0.01
640.332	-0
640.665	-0.01
640.998	-0
641.331	-0
641.663	-0.01
641.996	-0
642.328	0
642.661	0
642.993	0
643.326	0
643.658	0
643.99	-0.01
644.323	0
644.655	0.01
644.987	-0
645.319	0.01
645.651	0.01
645.983	0.01
646.315	0
646.647	0.01
646.979	0.02
647.31	0.01
647.642	0.01
647.974	0.01
648.305	0.02
648.637	0.01
648.968	0.01
649.3	0.01
649.631	0.02
649.963	0.01
650.294	0.01
650.625	0
650.957	0.02
651.288	0.01
651.619	0.01
651.95	0.01
652.281	0.01
652.612	0.01
652.943	0.01
653.274	0.02
653.604	0.01
653.935	0.01
654.266	0.01
654.596	0.01
654.927	0
655.258	0.01
655.588	0.01
655.918	0.02
656.249	0
656.579	0.01
656.909	0.02
657.24	0.01
657.57	0.02
657.9	0.01
658.23	0.01
658.56	0.02
658.89	0.03
659.22	0.01
659.55	0.02
659.88	0.02
660.209	0.02
660.539	0.03
660.869	0.02
661.198	0.02
661.528	0.02
661.857	0.02
662.187	0.02
662.516	0.01
662.846	0.01
663.175	0.02
663.504	0.02
663.833	0.02
664.163	0.02
664.492	0.01
664.821	0.01
665.15	0.02
665.479	0.01
665.807	0.01
666.136	0.01
666.465	0.02
666.794	0.01
667.122	0.01
667.451	0.01
667.78	0.01
668.108	0.02
668.437	0.01
668.765	0.02
669.093	0.02
669.422	0.01
669.75	0.01
670.078	0.01
670.406	0.01
670.734	0.02
671.062	0.01
671.39	0.02
671.718	0.02
672.046	0.02
672.374	0.01
672.702	0.01
673.029	0.01
673.357	0.02
673.685	0.03
674.012	0.02
674.34	0.01
674.667	0.02
674.995	0.02
675.322	0.02
675.649	0.01
675.977	0.02
676.304	0.01
676.631	0.01
676.958	0.01
677.285	0.01
677.612	0
677.939	0.01
678.266	0.01
678.593	0
678.92	0.01
679.246	-0
679.573	0
679.9	-0
680.226	0
680.553	0
680.879	0.01
681.206	0
681.532	0
681.858	0.01
682.184	-0
682.511	0
682.837	0
683.163	0
683.489	0.01
683.815	0.01
684.141	0.01
684.467	0
684.793	0
685.118	0
685.444	0.01
685.77	0
686.095	0.01
686.421	0.01
686.746	0.01
687.072	0.01
687.397	0
687.723	0.01
688.048	0.01
688.373	0.01
688.698	0.01
689.023	0.01
689.349	0.01
689.674	0.01
689.999	0.01
690.323	-0
690.648	-0
690.973	0
691.298	0
691.623	0.01
691.947	0.01
692.272	0
692.596	0.01
692.921	0
693.245	0
693.57	0.01
693.894	0.01
694.218	0
694.543	0.01
694.867	0.01
695.191	-0
695.515	0
695.839	-0
696.163	0
696.487	0
696.811	-0
697.135	0
697.458	0
697.782	0.01
698.106	0
698.429	0.01
698.753	0
699.076	0.01
699.4	0
699.723	0.01
700.046	0.01
700.37	0.01
700.693	0.01
701.016	0.01
701.339	0.01
701.662	0.02
701.985	0.01
702.308	0
702.631	0
702.954	0.01
703.277	0
703.599	0
703.922	0
704.245	-0
704.567	-0
704.89	0
705.212	0
705.535	-0
705.857	-0
706.179	-0.01
706.502	-0.01
706.824	-0.01
707.146	-0.01
707.468	-0
707.79	-0
708.112	0
708.434	-0.01
708.756	0.01
709.078	-0.01
709.399	-0
709.721	-0.01
710.043	-0
710.364	0
710.686	-0
711.007	0
711.329	0
711.65	-0
711.972	-0
712.293	0
712.614	0
712.935	0.01
713.256	0
713.577	0.02
713.898	0.01
714.219	0
714.54	0
714.861	-0
715.182	0.01
715.503	0.01
715.823	0.01
716.144	0.01
716.464	0
716.785	-0
717.105	0
717.426	0
717.746	0
718.066	-0
718.387	-0
718.707	-0
719.027	0
719.347	-0.01
719.667	0
719.987	-0
720.307	-0.01
720.627	-0
720.947	0
721.266	0
721.586	-0
721.906	0
722.225	-0.01
722.545	0.01
722.864	0
723.184	0.01
723.503	0.01
723.823	0.01
724.142	0
724.461	0.01
724.78	0.01
725.099	0.01
725.418	0.01
725.737	0.01
726.056	0.01
726.375	0.02
726.694	0.01
727.013	0.01
727.331	0
727.65	0
727.969	0
728.287	0.01
728.606	0
728.924	-0
729.242	0
729.561	0
729.879	0
730.197	0
730.515	-0
730.834	0
731.152	-0
731.47	0.01
731.788	0
732.105	-0
732.423	-0.01
732.741	0
733.059	0
733.376	0.01
733.694	0
734.012	0
734.329	0.01
734.647	0.01
734.964	0.01
735.281	0
735.599	0.01
735.916	0.02
736.233	-0.01
736.55	0.01
736.867	0.01
737.184	0.01
737.501	0.01
737.818	0.01
738.135	0.01
738.452	0.01
738.768	0.01
739.085	0.01
739.402	-0
739.718	0.01
740.035	0.01
740.351	0.01
740.668	0.01
740.984	0
741.3	0
741.617	0.01
741.933	0
742.249	0.01
742.565	0.01
742.881	0.01
743.197	0.01
743.513	-0
743.829	0
744.144	0.01
744.46	0
744.776	0.01
745.091	0
745.407	0
745.722	0.01
746.038	0
746.353	-0
746.669	0.01
746.984	-0
747.299	0
747.614	0.01
747.93	0.01
748.245	0
748.56	0
748.875	0
749.189	0
749.504	0
749.819	0
750.134	0
750.448	0
750.763	0
751.078	-0
751.392	0.01
751.707	0.01
752.021	0.01
752.335	0.02
752.65	0.01
752.964	0.01
753.278	0.01
753.592	0.01
753.906	-0
754.22	0.01
754.534	0.01
754.848	0.01
755.162	0.01
755.476	0.01
755.789	0.01
756.103	0
756.417	0.02
756.73	0.01
757.044	0.01
757.357	0
757.671	0.01
757.984	0.01
758.297	0.02
758.61	0.02
758.924	0.01
759.237	0.01
759.55	0.01
759.863	0.01
760.176	0.01
760.488	0.01
760.801	0.01
761.114	0.01
761.427	0.01
761.739	0.01
762.052	0.01
762.365	0.01
762.677	0.01
762.99	0
763.302	0.01
763.614	0.01
763.926	0.02
764.239	0.02
764.551	0.01
764.863	0.01
765.175	0.02
765.487	0.01
765.799	0.01
766.111	0
766.423	0.01
766.734	0.01
767.046	0.01
767.358	0.02
767.669	0.02
767.981	0.01
768.292	0.01
768.604	0.01
768.915	0.01
769.226	0.01
769.537	-0
769.849	0.02
770.16	0.01
770.471	0
770.782	0.01
771.093	0.01
771.404	0
771.715	0
772.025	0.01
772.336	-0
772.647	-0
772.957	-0
773.268	0
773.578	0
773.889	0.01
774.199	0.01
774.51	0
774.82	-0
775.13	0
775.44	0.01
775.75	0.01
776.06	0.01
776.37	0.01
776.68	0.01
776.99	0.01
777.3	0.01
777.61	0.01
777.92	0.01
778.229	0
778.539	0.01
778.848	0.01
779.158	0.01
779.467	0.01
779.777	0
780.086	0.01
780.395	0.01
780.704	0.01
781.013	0.01
781.323	0.01
781.632	0.01
781.941	0.01
782.249	0.01
782.558	0.01
782.867	0.02
783.176	0.01
783.485	0
783.793	0.01
784.102	0.01
784.41	0.01
784.719	0.01
785.027	0.01
785.335	0.01
785.644	0.01
785.952	0
786.26	0.01
786.568	0.01
786.876	0.01
787.184	0.01
787.492	0.02
787.8	0.01
788.108	0.01
788.416	0.01
788.723	0.01
789.031	0.01
789.338	0.01
789.646	0.02
789.953	0.02
790.261	0.02
790.568	0.02
790.876	0.02
791.183	0.02
791.49	0.02
791.797	0.02
792.104	0.01
792.411	0.02
792.718	0.01
793.025	0.02
793.332	0.02
793.639	0.03
793.945	0.03
794.252	0.02
794.559	0.02
794.865	0.02
795.172	0.02
795.478	0.01
795.784	0.02
796.091	0.02
796.397	0.03
796.703	0.02
797.009	0.03
797.315	0.02
797.622	0.02
797.927	0.02
798.233	0.01
798.539	0.02
798.845	0.02
799.151	0.02
799.456	0.01
799.762	0.01
800.068	0.01
800.373	0.01
800.679	0.01
800.984	0.02
801.289	0.01
801.595	0.01
801.9	0.01
802.205	0
802.51	0.01
802.815	0.01
803.12	0.01
803.425	0.01
803.73	0.01
804.035	0.01
804.339	0.01
804.644	0.02
804.949	0.01
805.253	0.01
805.558	0.01
805.862	0.01
806.167	0.01
806.471	0.02
806.775	0.02
807.08	0.01
807.384	0.01
807.688	0.01
807.992	0.02
808.296	0.01
808.6	0.01
808.904	0.02
809.207	0.01
809.511	0.02
809.815	0.02
810.119	0.02
810.422	0.02
810.726	0.02
811.029	0.03
811.332	0.02
811.636	0.02
811.939	0.02
812.242	0.02
812.546	0.02
812.849	0.02
813.152	0.02
813.455	0.03
813.758	0.03
814.06	0.03
814.363	0.03
814.666	0.03
814.969	0.03
815.271	0.02
815.574	0.03
815.877	0.03
816.179	0.03
816.481	0.02
816.784	0.03
817.086	0.02
817.388	0.02
817.69	0.02
817.993	0.02
818.295	0.02
818.597	0.02
818.899	0.01
819.2	0.01
819.502	0.01
819.804	0.01
820.106	0.01
820.407	0.01
820.709	0.02
821.01	0.01
821.312	0.01
821.613	0
821.915	-0
822.216	0
822.517	-0
822.818	-0
823.119	0
823.42	-0
823.721	0
824.022	-0.01
824.323	-0
824.624	-0
824.925	0
825.226	0
825.526	0
825.827	0
826.127	-0
826.428	-0
826.728	-0
827.028	0
827.329	0
827.629	-0.01
827.929	-0
828.229	0.01
828.529	0
828.829	-0
829.129	-0
829.429	0
829.729	0
830.029	-0
830.328	0.01
830.628	-0.01
830.927	-0.01
831.227	-0
831.526	-0
831.826	0
832.125	-0.01
832.424	-0.01
832.724	-0
833.023	-0.01
833.322	0
833.621	-0.01
833.92	-0.01
834.219	-0.01
834.518	-0
834.816	-0.01
835.115	-0.01
835.414	-0.01
835.712	-0.01
836.011	-0.02
836.309	-0.02
836.608	-0.02
836.906	-0.02
837.205	-0.02
837.503	-0.02
837.801	-0.03
838.099	-0.02
838.397	-0.04
838.695	-0.04
838.993	-0.02
839.291	-0.04
839.589	-0.03
839.887	-0.04
840.184	-0.04
840.482	-0.04
840.78	-0.04
841.077	-0.04
841.375	-0.04
841.672	-0.04
841.969	-0.04
842.267	-0.04
842.564	-0.04
842.861	-0.04
843.158	-0.05
843.455	-0.06
843.752	-0.05
844.049	-0.04
844.346	-0.05
844.643	-0.05
844.94	-0.06
845.236	-0.04
845.533	-0.05
845.83	-0.05
846.126	-0.06
846.423	-0.06
846.719	-0.07
847.015	-0.06
847.312	-0.06
847.608	-0.07
847.904	-0.07
848.2	-0.07
848.496	-0.08
848.792	-0.08
849.088	-0.07
849.384	-0.08
849.68	-0.09
849.975	-0.08
850.271	-0.08
850.567	-0.09
850.862	-0.09
851.158	-0.1
851.453	-0.09
851.748	-0.11
852.044	-0.09
852.339	-0.09
852.634	-0.12
852.929	-0.1
853.224	-0.11
853.519	-0.11
853.814	-0.11
854.109	-0.12
854.404	-0.11
854.699	-0.11
854.994	-0.11
855.288	-0.11
855.583	-0.11
855.877	-0.12
856.172	-0.11
856.466	-0.12
856.76	-0.11
857.055	-0.12
857.349	-0.13
857.643	-0.13
857.937	-0.13
858.231	-0.13
858.525	-0.12
858.819	-0.13
859.113	-0.14
859.407	-0.14
859.701	-0.13
859.994	-0.14
860.288	-0.13
860.581	-0.14
860.875	-0.13
861.168	-0.14
861.462	-0.14
861.755	-0.13
862.048	-0.14
862.341	-0.13
862.634	-0.13
862.928	-0.13
863.221	-0.13
863.513	-0.13
863.806	-0.13
864.099	-0.14
864.392	-0.14
864.685	-0.13
864.977	-0.12
865.27	-0.13
865.562	-0.13
865.855	-0.13
866.147	-0.14
866.44	-0.14
866.732	-0.15
867.024	-0.15
867.316	-0.14
867.608	-0.13
867.9	-0.15
868.192	-0.15
868.484	-0.15
868.776	-0.15
869.068	-0.15
869.359	-0.14
869.651	-0.15
869.943	-0.17
870.234	-0.16
870.526	-0.16
870.817	-0.16
871.108	-0.15
871.4	-0.15
871.691	-0.16
871.982	-0.16
872.273	-0.18
872.564	-0.17
872.855	-0.17
873.146	-0.17
873.437	-0.16
873.728	-0.18
874.019	-0.17
874.309	-0.17
874.6	-0.18
874.89	-0.18
875.181	-0.17
875.471	-0.17
875.762	-0.17
876.052	-0.17
876.342	-0.14
876.632	-0.17
876.922	-0.18
877.213	-0.17
877.503	-0.19
877.792	-0.18
878.082	-0.19
878.372	-0.17
878.662	-0.19
878.952	-0.19
879.241	-0.19
879.531	-0.18
879.82	-0.18
880.11	-0.18
880.399	-0.18
880.688	-0.17
880.978	-0.17
881.267	-0.17
