Data from 12-12-AQDScycling_Absorbance__531__00531.txt Node

Date: Tue Dec 12 13:09:29 EST 2023
User: kyuminlee
Spectrometer: FLMS00943
Trigger mode: 0
Integration Time (sec): 1.000000E-1
Scans to average: 1
Electric dark correction enabled: true
Nonlinearity correction enabled: false
Boxcar width: 0
XAxis mode: Wavelengths
Number of Pixels in Spectrum: 2048
>>>>>Begin Spectral Data<<<<<
179.651	-0
180.037	-0
180.424	-0
180.81	-0
181.197	0.09
181.583	-0
181.97	0.19
182.356	-0
182.743	-0
183.129	0.12
183.515	0.15
183.901	-1.96
184.288	0.18
184.674	1.51
185.06	0.07
185.446	-0
185.832	-0.82
186.218	0.61
186.604	0.32
186.99	-0
187.376	-0
187.762	-0
188.148	0.61
188.534	0.13
188.92	0.23
189.305	-0
189.691	0.13
190.077	0.12
190.463	0.12
190.848	0.2
191.234	0.06
191.619	0.09
192.005	0.17
192.391	0.14
192.776	0.07
193.161	0.18
193.547	0.1
193.932	0.29
194.318	0.06
194.703	0.14
195.088	0.15
195.473	0.08
195.859	0.19
196.244	0.12
196.629	0.3
197.014	0.23
197.399	0.23
197.784	0.28
198.169	0.17
198.554	0.2
198.939	0.13
199.324	0.08
199.709	0.15
200.094	0.1
200.478	0.08
200.863	0.09
201.248	0.12
201.633	0.17
202.017	0.16
202.402	0.11
202.787	0.03
203.171	0.15
203.556	0.29
203.94	0.07
204.325	0.16
204.709	0.21
205.093	0.05
205.478	0.16
205.862	0.14
206.246	0.37
206.631	0.06
207.015	0.19
207.399	0.26
207.783	0.16
208.167	0.15
208.551	0.26
208.935	0.18
209.319	0.15
209.703	0.09
210.087	0.21
210.471	0.03
210.855	0.05
211.239	0.15
211.623	0.24
212.007	0.3
212.39	0.37
212.774	0.11
213.158	0.08
213.541	0.26
213.925	0.16
214.309	0.25
214.692	0.18
215.076	0.16
215.459	0.13
215.842	0.24
216.226	0.17
216.609	0.32
216.993	0.2
217.376	0.34
217.759	0.23
218.142	0.27
218.525	0.44
218.909	0.4
219.292	0.3
219.675	0.45
220.058	0.44
220.441	0.62
220.824	0.49
221.207	0.65
221.59	0.48
221.973	0.56
222.355	0.59
222.738	0.82
223.121	0.48
223.504	0.5
223.886	0.74
224.269	0.76
224.652	0.59
225.034	0.75
225.417	0.68
225.799	0.79
226.182	0.84
226.564	0.82
226.947	0.75
227.329	0.89
227.711	0.97
228.094	0.95
228.476	0.88
228.858	0.79
229.24	0.83
229.623	0.98
230.005	0.81
230.387	0.92
230.769	0.75
231.151	0.94
231.533	0.9
231.915	0.93
232.297	0.97
232.679	0.91
233.061	0.97
233.442	1.08
233.824	0.98
234.206	1.11
234.588	1.08
234.969	1.1
235.351	0.98
235.733	1.2
236.114	1.11
236.496	0.99
236.877	1.12
237.259	1.11
237.64	1.14
238.022	1
238.403	1.02
238.784	0.98
239.165	0.98
239.547	1.04
239.928	1.25
240.309	1.05
240.69	1.04
241.071	1.06
241.452	1.17
241.834	1.05
242.215	1.1
242.595	1.08
242.976	1.28
243.357	1.14
243.738	1.06
244.119	1.35
244.5	1.07
244.881	1.26
245.261	1.35
245.642	1.16
246.023	1.26
246.403	1.16
246.784	1.1
247.164	1.23
247.545	1.16
247.925	1.21
248.306	1.22
248.686	1.26
249.067	1.26
249.447	1.36
249.827	1.45
250.207	1.46
250.588	1.35
250.968	1.37
251.348	1.35
251.728	1.41
252.108	1.28
252.488	1.39
252.868	1.37
253.248	1.19
253.628	1.34
254.008	1.44
254.388	1.31
254.768	1.33
255.147	1.33
255.527	1.52
255.907	1.29
256.287	1.37
256.666	1.39
257.046	1.44
257.425	1.43
257.805	1.26
258.184	1.25
258.564	1.39
258.943	1.51
259.323	1.46
259.702	1.58
260.081	1.49
260.461	1.53
260.84	1.51
261.219	1.8
261.598	1.43
261.977	1.46
262.356	1.38
262.736	1.58
263.115	1.69
263.494	1.41
263.873	1.43
264.251	1.46
264.63	1.71
265.009	1.45
265.388	1.43
265.767	1.44
266.145	1.38
266.524	1.47
266.903	1.41
267.281	1.37
267.66	1.59
268.039	1.49
268.417	1.47
268.796	1.44
269.174	1.5
269.552	1.39
269.931	1.45
270.309	1.41
270.687	1.8
271.066	1.53
271.444	1.49
271.822	1.35
272.2	1.6
272.578	1.41
272.956	1.38
273.334	1.39
273.712	1.5
274.09	1.38
274.468	1.49
274.846	1.46
275.224	1.39
275.602	1.43
275.98	1.52
276.357	1.36
276.735	1.31
277.113	1.45
277.49	1.31
277.868	1.28
278.246	1.51
278.623	1.33
279.001	1.36
279.378	1.4
279.756	1.41
280.133	1.68
280.51	1.44
280.888	1.49
281.265	1.29
281.642	1.38
282.019	1.57
282.396	1.59
282.773	1.51
283.151	1.57
283.528	1.47
283.905	1.47
284.282	1.65
284.659	1.61
285.035	1.51
285.412	1.39
285.789	1.48
286.166	1.43
286.543	1.44
286.919	1.56
287.296	1.47
287.673	1.54
288.049	1.54
288.426	1.55
288.802	1.4
289.179	1.41
289.555	1.72
289.932	1.3
290.308	1.33
290.684	1.43
291.061	1.4
291.437	1.61
291.813	1.41
292.189	1.32
292.565	1.39
292.942	1.36
293.318	1.37
293.694	1.47
294.07	1.3
294.446	1.54
294.822	1.4
295.197	1.35
295.573	1.39
295.949	1.55
296.325	1.37
296.701	1.51
297.076	1.62
297.452	1.62
297.828	1.52
298.203	1.62
298.579	1.5
298.954	1.32
299.33	1.38
299.705	1.39
300.081	1.52
300.456	1.4
300.831	1.4
301.206	1.38
301.582	1.48
301.957	1.38
302.332	1.51
302.707	1.36
303.082	1.35
303.457	1.41
303.832	1.43
304.207	1.39
304.582	1.33
304.957	1.35
305.332	1.39
305.707	1.37
306.082	1.36
306.456	1.52
306.831	1.31
307.206	1.32
307.58	1.39
307.955	1.36
308.33	1.36
308.704	1.31
309.079	1.29
309.453	1.38
309.828	1.4
310.202	1.25
310.576	1.3
310.951	1.36
311.325	1.29
311.699	1.24
312.073	1.21
312.447	1.29
312.821	1.24
313.196	1.34
313.57	1.19
313.944	1.25
314.317	1.21
314.691	1.35
315.065	1.28
315.439	1.31
315.813	1.38
316.187	1.2
316.56	1.32
316.934	1.3
317.308	1.32
317.681	1.27
318.055	1.21
318.428	1.31
318.802	1.37
319.175	1.22
319.549	1.3
319.922	1.2
320.295	1.3
320.669	1.31
321.042	1.35
321.415	1.44
321.788	1.3
322.162	1.34
322.535	1.43
322.908	1.36
323.281	1.31
323.654	1.39
324.027	1.3
324.4	1.37
324.773	1.32
325.145	1.28
325.518	1.36
325.891	1.25
326.264	1.53
326.636	1.4
327.009	1.42
327.382	1.32
327.754	1.45
328.127	1.37
328.499	1.25
328.872	1.3
329.244	1.25
329.616	1.36
329.989	1.32
330.361	1.41
330.733	1.31
331.106	1.28
331.478	1.4
331.85	1.32
332.222	1.27
332.594	1.41
332.966	1.45
333.338	1.61
333.71	1.45
334.082	1.55
334.454	1.27
334.826	1.37
335.197	1.44
335.569	1.32
335.941	1.36
336.312	1.35
336.684	1.35
337.056	1.37
337.427	1.43
337.799	1.39
338.17	1.31
338.542	1.36
338.913	1.37
339.284	1.44
339.656	1.28
340.027	1.37
340.398	1.42
340.769	1.41
341.141	1.49
341.512	1.37
341.883	1.48
342.254	1.46
342.625	1.39
342.996	1.36
343.367	1.34
343.738	1.37
344.108	1.37
344.479	1.39
344.85	1.32
345.221	1.33
345.591	1.34
345.962	1.48
346.333	1.4
346.703	1.23
347.074	1.22
347.444	1.29
347.815	1.36
348.185	1.3
348.556	1.3
348.926	1.3
349.296	1.26
349.666	1.29
350.037	1.24
350.407	1.24
350.777	1.31
351.147	1.31
351.517	1.27
351.887	1.27
352.257	1.39
352.627	1.28
352.997	1.34
353.367	1.43
353.737	1.49
354.106	1.32
354.476	1.32
354.846	1.41
355.216	1.35
355.585	1.44
355.955	1.36
356.324	1.46
356.694	1.33
357.063	1.36
357.433	1.31
357.802	1.4
358.171	1.4
358.541	1.32
358.91	1.39
359.279	1.45
359.648	1.36
360.017	1.46
360.387	1.41
360.756	1.39
361.125	1.44
361.494	1.45
361.863	1.38
362.231	1.34
362.6	1.45
362.969	1.39
363.338	1.38
363.707	1.52
364.075	1.65
364.444	1.37
364.813	1.44
365.181	1.48
365.55	1.49
365.918	1.48
366.287	1.44
366.655	1.44
367.024	1.41
367.392	1.46
367.76	1.46
368.128	1.39
368.497	1.39
368.865	1.48
369.233	1.44
369.601	1.38
369.969	1.4
370.337	1.42
370.705	1.45
371.073	1.47
371.441	1.46
371.809	1.46
372.177	1.48
372.544	1.43
372.912	1.55
373.28	1.45
373.647	1.46
374.015	1.56
374.383	1.94
374.75	1.49
375.118	1.44
375.485	1.65
375.853	1.62
376.22	1.55
376.587	1.57
376.955	1.62
377.322	1.49
377.689	1.53
378.056	1.52
378.423	1.45
378.79	1.49
379.157	1.48
379.524	1.55
379.891	1.47
380.258	1.52
380.625	1.58
380.992	1.53
381.359	1.51
381.726	1.79
382.092	1.5
382.459	1.68
382.826	1.45
383.192	1.52
383.559	1.53
383.925	1.47
384.292	1.43
384.658	1.61
385.025	1.54
385.391	1.66
385.757	1.81
386.123	1.59
386.49	1.54
386.856	1.47
387.222	1.62
387.588	1.51
387.954	1.77
388.32	1.7
388.686	1.65
389.052	1.59
389.418	1.61
389.784	1.49
390.15	1.73
390.515	1.44
390.881	1.63
391.247	1.63
391.613	1.79
391.978	1.43
392.344	1.54
392.709	1.62
393.075	1.63
393.44	1.56
393.806	1.56
394.171	1.48
394.536	1.5
394.902	1.67
395.267	1.5
395.632	1.48
395.997	1.61
396.362	1.46
396.727	1.55
397.092	1.61
397.457	1.53
397.822	1.51
398.187	1.6
398.552	1.48
398.917	1.63
399.282	1.43
399.646	1.43
400.011	1.64
400.376	1.43
400.74	1.49
401.105	1.48
401.47	1.51
401.834	1.67
402.199	1.57
402.563	1.54
402.927	1.48
403.292	1.54
403.656	1.54
404.02	1.59
404.384	1.9
404.749	1.53
405.113	1.49
405.477	1.56
405.841	1.5
406.205	1.44
406.569	1.44
406.933	1.47
407.296	1.45
407.66	1.5
408.024	1.52
408.388	1.6
408.752	1.52
409.115	1.58
409.479	1.45
409.842	1.51
410.206	1.48
410.569	1.57
410.933	1.49
411.296	1.33
411.66	1.47
412.023	1.39
412.386	1.51
412.749	1.44
413.113	1.45
413.476	1.3
413.839	1.37
414.202	1.39
414.565	1.38
414.928	1.34
415.291	1.3
415.654	1.44
416.017	1.45
416.38	1.44
416.742	1.27
417.105	1.28
417.468	1.27
417.83	1.35
418.193	1.48
418.556	1.38
418.918	1.33
419.281	1.43
419.643	1.34
420.005	1.39
420.368	1.34
420.73	1.32
421.092	1.54
421.455	1.39
421.817	1.32
422.179	1.31
422.541	1.33
422.903	1.49
423.265	1.44
423.627	1.33
423.989	1.32
424.351	1.38
424.713	1.37
425.075	1.29
425.436	1.31
425.798	1.29
426.16	1.3
426.521	1.29
426.883	1.33
427.245	1.27
427.606	1.25
427.967	1.25
428.329	1.37
428.69	1.39
429.052	1.27
429.413	1.33
429.774	1.29
430.135	1.29
430.497	1.32
430.858	1.29
431.219	1.35
431.58	1.24
431.941	1.25
432.302	1.31
432.663	1.31
433.024	1.38
433.384	1.32
433.745	1.26
434.106	1.37
434.467	1.23
434.827	1.22
435.188	1.28
435.548	1.39
435.909	1.24
436.269	1.32
436.63	1.23
436.99	1.25
437.351	1.2
437.711	1.27
438.071	1.21
438.431	1.19
438.792	1.25
439.152	1.22
439.512	1.18
439.872	1.16
440.232	1.21
440.592	1.23
440.952	1.21
441.312	1.12
441.671	1.14
442.031	1.15
442.391	1.13
442.751	1.19
443.11	1.15
443.47	1.1
443.83	1.12
444.189	1.09
444.549	1.16
444.908	1.11
445.267	1.09
445.627	1.08
445.986	1.09
446.345	1.07
446.705	1.1
447.064	1.11
447.423	1.08
447.782	1.08
448.141	1.04
448.5	1.02
448.859	1.04
449.218	1.04
449.577	1.03
449.936	1.02
450.295	1.03
450.653	1.04
451.012	0.98
451.371	1.01
451.729	0.96
452.088	1
452.447	0.99
452.805	0.98
453.163	0.98
453.522	0.95
453.88	0.93
454.239	0.95
454.597	0.91
454.955	0.91
455.313	0.93
455.671	0.91
456.029	0.91
456.388	0.89
456.746	0.86
457.104	0.87
457.461	0.84
457.819	0.87
458.177	0.85
458.535	0.83
458.893	0.84
459.25	0.82
459.608	0.81
459.966	0.8
460.323	0.79
460.681	0.76
461.038	0.76
461.396	0.76
461.753	0.76
462.111	0.74
462.468	0.74
462.825	0.74
463.182	0.71
463.54	0.7
463.897	0.7
464.254	0.69
464.611	0.67
464.968	0.68
465.325	0.67
465.682	0.66
466.039	0.65
466.395	0.64
466.752	0.63
467.109	0.62
467.466	0.62
467.822	0.61
468.179	0.6
468.535	0.59
468.892	0.58
469.248	0.57
469.605	0.57
469.961	0.56
470.318	0.57
470.674	0.54
471.03	0.55
471.386	0.53
471.743	0.52
472.099	0.52
472.455	0.52
472.811	0.49
473.167	0.49
473.523	0.49
473.879	0.49
474.235	0.48
474.59	0.46
474.946	0.46
475.302	0.45
475.657	0.45
476.013	0.44
476.369	0.44
476.724	0.43
477.08	0.43
477.435	0.41
477.791	0.41
478.146	0.41
478.501	0.4
478.857	0.4
479.212	0.39
479.567	0.38
479.922	0.37
480.277	0.37
480.632	0.36
480.987	0.36
481.342	0.36
481.697	0.35
482.052	0.34
482.407	0.34
482.762	0.33
483.116	0.33
483.471	0.32
483.826	0.32
484.18	0.32
484.535	0.31
484.89	0.31
485.244	0.31
485.598	0.3
485.953	0.3
486.307	0.29
486.661	0.29
487.016	0.28
487.37	0.29
487.724	0.28
488.078	0.28
488.432	0.28
488.786	0.27
489.14	0.27
489.494	0.27
489.848	0.26
490.202	0.26
490.556	0.26
490.91	0.25
491.263	0.25
491.617	0.25
491.971	0.25
492.324	0.24
492.678	0.24
493.031	0.24
493.385	0.23
493.738	0.24
494.091	0.23
494.445	0.23
494.798	0.23
495.151	0.23
495.504	0.22
495.857	0.22
496.21	0.22
496.564	0.22
496.916	0.22
497.269	0.21
497.622	0.21
497.975	0.2
498.328	0.21
498.681	0.2
499.033	0.2
499.386	0.2
499.739	0.2
500.091	0.2
500.444	0.2
500.796	0.2
501.149	0.19
501.501	0.2
501.854	0.2
502.206	0.2
502.558	0.19
502.91	0.19
503.263	0.19
503.615	0.19
503.967	0.19
504.319	0.19
504.671	0.18
505.023	0.18
505.375	0.19
505.726	0.18
506.078	0.18
506.43	0.18
506.782	0.18
507.133	0.18
507.485	0.18
507.837	0.18
508.188	0.18
508.54	0.18
508.891	0.19
509.243	0.17
509.594	0.18
509.945	0.17
510.296	0.17
510.648	0.18
510.999	0.17
511.35	0.18
511.701	0.17
512.052	0.18
512.403	0.18
512.754	0.17
513.105	0.17
513.456	0.17
513.807	0.17
514.157	0.17
514.508	0.17
514.859	0.17
515.209	0.17
515.56	0.17
515.91	0.17
516.261	0.18
516.611	0.17
516.962	0.17
517.312	0.18
517.662	0.17
518.013	0.17
518.363	0.18
518.713	0.17
519.063	0.18
519.413	0.17
519.763	0.17
520.113	0.17
520.463	0.17
520.813	0.18
521.163	0.17
521.512	0.18
521.862	0.17
522.212	0.17
522.562	0.17
522.911	0.17
523.261	0.17
523.61	0.17
523.96	0.17
524.309	0.18
524.658	0.17
525.008	0.17
525.357	0.16
525.706	0.18
526.056	0.17
526.405	0.17
526.754	0.17
527.103	0.17
527.452	0.17
527.801	0.17
528.15	0.17
528.499	0.17
528.847	0.17
529.196	0.18
529.545	0.18
529.893	0.18
530.242	0.18
530.591	0.18
530.939	0.18
531.288	0.18
531.636	0.18
531.985	0.18
532.333	0.18
532.681	0.18
533.029	0.18
533.378	0.18
533.726	0.18
534.074	0.19
534.422	0.18
534.77	0.18
535.118	0.18
535.466	0.18
535.814	0.18
536.162	0.18
536.509	0.18
536.857	0.18
537.205	0.18
537.552	0.18
537.9	0.18
538.248	0.17
538.595	0.18
538.943	0.18
539.29	0.18
539.637	0.18
539.985	0.18
540.332	0.18
540.679	0.18
541.026	0.17
541.373	0.19
541.721	0.18
542.068	0.17
542.415	0.18
542.762	0.18
543.108	0.17
543.455	0.17
543.802	0.18
544.149	0.17
544.496	0.17
544.842	0.17
545.189	0.16
545.535	0.17
545.882	0.17
546.228	0.17
546.575	0.16
546.921	0.17
547.267	0.17
547.614	0.18
547.96	0.17
548.306	0.17
548.652	0.17
548.998	0.18
549.344	0.18
549.69	0.17
550.036	0.17
550.382	0.17
550.728	0.17
551.074	0.18
551.42	0.18
551.765	0.18
552.111	0.18
552.457	0.18
552.802	0.18
553.148	0.17
553.493	0.17
553.839	0.18
554.184	0.18
554.529	0.17
554.875	0.18
555.22	0.17
555.565	0.18
555.91	0.18
556.255	0.18
556.6	0.18
556.945	0.17
557.29	0.18
557.635	0.18
557.98	0.18
558.325	0.18
558.67	0.18
559.014	0.18
559.359	0.18
559.704	0.18
560.048	0.18
560.393	0.18
560.737	0.17
561.082	0.17
561.426	0.17
561.77	0.18
562.115	0.18
562.459	0.17
562.803	0.18
563.147	0.18
563.491	0.18
563.835	0.18
564.179	0.18
564.523	0.18
564.867	0.17
565.211	0.18
565.555	0.19
565.899	0.18
566.242	0.18
566.586	0.16
566.93	0.18
567.273	0.18
567.617	0.18
567.96	0.18
568.304	0.18
568.647	0.18
568.99	0.18
569.334	0.18
569.677	0.18
570.02	0.19
570.363	0.18
570.706	0.18
571.049	0.19
571.392	0.18
571.735	0.18
572.078	0.18
572.421	0.19
572.764	0.19
573.106	0.18
573.449	0.18
573.792	0.18
574.134	0.17
574.477	0.18
574.819	0.17
575.162	0.17
575.504	0.18
575.847	0.17
576.189	0.18
576.531	0.18
576.873	0.18
577.215	0.17
577.558	0.18
577.9	0.18
578.242	0.18
578.584	0.18
578.926	0.18
579.267	0.18
579.609	0.18
579.951	0.18
580.293	0.18
580.634	0.19
580.976	0.19
581.318	0.18
581.659	0.17
582.001	0.19
582.342	0.18
582.683	0.17
583.025	0.17
583.366	0.17
583.707	0.17
584.049	0.18
584.39	0.17
584.731	0.18
585.072	0.17
585.413	0.18
585.754	0.18
586.095	0.18
586.435	0.18
586.776	0.18
587.117	0.17
587.458	0.17
587.798	0.17
588.139	0.17
588.48	0.17
588.82	0.17
589.161	0.17
589.501	0.17
589.841	0.18
590.182	0.18
590.522	0.17
590.862	0.18
591.202	0.18
591.542	0.17
591.882	0.17
592.222	0.17
592.562	0.18
592.902	0.18
593.242	0.18
593.582	0.18
593.922	0.17
594.261	0.17
594.601	0.18
594.941	0.17
595.28	0.18
595.62	0.18
595.959	0.17
596.299	0.17
596.638	0.17
596.977	0.18
597.317	0.18
597.656	0.17
597.995	0.18
598.334	0.19
598.673	0.18
599.012	0.17
599.351	0.18
599.69	0.17
600.029	0.18
600.368	0.18
600.707	0.18
601.046	0.18
601.384	0.18
601.723	0.18
602.061	0.18
602.4	0.18
602.738	0.18
603.077	0.17
603.415	0.17
603.754	0.18
604.092	0.18
604.43	0.17
604.768	0.17
605.107	0.18
605.445	0.17
605.783	0.17
606.121	0.17
606.459	0.17
606.796	0.17
607.134	0.17
607.472	0.17
607.81	0.18
608.148	0.17
608.485	0.17
608.823	0.17
609.16	0.17
609.498	0.17
609.835	0.16
610.173	0.17
610.51	0.17
610.847	0.17
611.185	0.17
611.522	0.17
611.859	0.17
612.196	0.17
612.533	0.18
612.87	0.18
613.207	0.18
613.544	0.18
613.881	0.19
614.217	0.17
614.554	0.18
614.891	0.18
615.228	0.18
615.564	0.18
615.901	0.19
616.237	0.18
616.574	0.18
616.91	0.18
617.246	0.18
617.583	0.18
617.919	0.18
618.255	0.18
618.591	0.17
618.927	0.18
619.263	0.19
619.599	0.19
619.935	0.18
620.271	0.17
620.607	0.18
620.943	0.18
621.279	0.18
621.614	0.18
621.95	0.18
622.286	0.17
622.621	0.17
622.957	0.17
623.292	0.17
623.627	0.17
623.963	0.17
624.298	0.17
624.633	0.17
624.968	0.17
625.304	0.16
625.639	0.16
625.974	0.16
626.309	0.16
626.644	0.16
626.979	0.16
627.313	0.17
627.648	0.17
627.983	0.16
628.318	0.16
628.652	0.16
628.987	0.16
629.321	0.17
629.656	0.15
629.99	0.16
630.325	0.15
630.659	0.16
630.993	0.15
631.327	0.15
631.662	0.15
631.996	0.15
632.33	0.15
632.664	0.16
632.998	0.15
633.332	0.15
633.666	0.15
633.999	0.15
634.333	0.15
634.667	0.15
635.001	0.15
635.334	0.15
635.668	0.15
636.001	0.15
636.335	0.15
636.668	0.15
637.001	0.14
637.335	0.15
637.668	0.15
638.001	0.15
638.334	0.15
638.668	0.15
639.001	0.15
639.334	0.15
639.667	0.15
639.999	0.15
640.332	0.15
640.665	0.14
640.998	0.15
641.331	0.15
641.663	0.14
641.996	0.14
642.328	0.15
642.661	0.14
642.993	0.14
643.326	0.15
643.658	0.14
643.99	0.14
644.323	0.14
644.655	0.14
644.987	0.14
645.319	0.15
645.651	0.14
645.983	0.15
646.315	0.14
646.647	0.14
646.979	0.14
647.31	0.15
647.642	0.14
647.974	0.14
648.305	0.15
648.637	0.14
648.968	0.14
649.3	0.15
649.631	0.15
649.963	0.14
650.294	0.15
650.625	0.14
650.957	0.15
651.288	0.15
651.619	0.15
651.95	0.14
652.281	0.15
652.612	0.15
652.943	0.15
653.274	0.15
653.604	0.15
653.935	0.15
654.266	0.15
654.596	0.14
654.927	0.14
655.258	0.14
655.588	0.15
655.918	0.14
656.249	0.12
656.579	0.14
656.909	0.14
657.24	0.13
657.57	0.14
657.9	0.14
658.23	0.14
658.56	0.15
658.89	0.15
659.22	0.14
659.55	0.14
659.88	0.14
660.209	0.14
660.539	0.16
660.869	0.14
661.198	0.14
661.528	0.14
661.857	0.14
662.187	0.14
662.516	0.14
662.846	0.14
663.175	0.13
663.504	0.14
663.833	0.14
664.163	0.14
664.492	0.14
664.821	0.13
665.15	0.14
665.479	0.14
665.807	0.14
666.136	0.15
666.465	0.13
666.794	0.14
667.122	0.13
667.451	0.13
667.78	0.14
668.108	0.14
668.437	0.13
668.765	0.14
669.093	0.14
669.422	0.14
669.75	0.14
670.078	0.14
670.406	0.13
670.734	0.14
671.062	0.14
671.39	0.13
671.718	0.13
672.046	0.13
672.374	0.13
672.702	0.13
673.029	0.12
673.357	0.14
673.685	0.14
674.012	0.13
674.34	0.13
674.667	0.14
674.995	0.13
675.322	0.14
675.649	0.13
675.977	0.13
676.304	0.13
676.631	0.13
676.958	0.12
677.285	0.12
677.612	0.13
677.939	0.13
678.266	0.13
678.593	0.12
678.92	0.12
679.246	0.12
679.573	0.13
679.9	0.12
680.226	0.13
680.553	0.12
680.879	0.13
681.206	0.13
681.532	0.13
681.858	0.13
682.184	0.12
682.511	0.13
682.837	0.12
683.163	0.13
683.489	0.13
683.815	0.12
684.141	0.12
684.467	0.12
684.793	0.12
685.118	0.12
685.444	0.12
685.77	0.12
686.095	0.12
686.421	0.11
686.746	0.12
687.072	0.12
687.397	0.12
687.723	0.12
688.048	0.12
688.373	0.11
688.698	0.12
689.023	0.12
689.349	0.12
689.674	0.11
689.999	0.12
690.323	0.11
690.648	0.11
690.973	0.11
691.298	0.11
691.623	0.11
691.947	0.11
692.272	0.11
692.596	0.12
692.921	0.12
693.245	0.11
693.57	0.12
693.894	0.12
694.218	0.11
694.543	0.12
694.867	0.11
695.191	0.11
695.515	0.12
695.839	0.11
696.163	0.11
696.487	0.12
696.811	0.11
697.135	0.11
697.458	0.11
697.782	0.12
698.106	0.11
698.429	0.11
698.753	0.11
699.076	0.11
699.4	0.11
699.723	0.12
700.046	0.11
700.37	0.11
700.693	0.11
701.016	0.11
701.339	0.11
701.662	0.11
701.985	0.11
702.308	0.11
702.631	0.11
702.954	0.11
703.277	0.11
703.599	0.11
703.922	0.1
704.245	0.1
704.567	0.09
704.89	0.11
705.212	0.1
705.535	0.11
705.857	0.1
706.179	0.1
706.502	0.1
706.824	0.1
707.146	0.09
707.468	0.11
707.79	0.1
708.112	0.1
708.434	0.1
708.756	0.11
709.078	0.11
709.399	0.1
709.721	0.1
710.043	0.1
710.364	0.1
710.686	0.1
711.007	0.11
711.329	0.1
711.65	0.1
711.972	0.1
712.293	0.1
712.614	0.11
712.935	0.11
713.256	0.1
713.577	0.1
713.898	0.1
714.219	0.1
714.54	0.09
714.861	0.09
715.182	0.1
715.503	0.09
715.823	0.09
716.144	0.1
716.464	0.09
716.785	0.08
717.105	0.1
717.426	0.1
717.746	0.09
718.066	0.08
718.387	0.08
718.707	0.09
719.027	0.09
719.347	0.08
719.667	0.09
719.987	0.08
720.307	0.09
720.627	0.08
720.947	0.09
721.266	0.09
721.586	0.08
721.906	0.08
722.225	0.08
722.545	0.09
722.864	0.08
723.184	0.09
723.503	0.09
723.823	0.09
724.142	0.08
724.461	0.09
724.78	0.08
725.099	0.08
725.418	0.09
725.737	0.08
726.056	0.08
726.375	0.08
726.694	0.08
727.013	0.08
727.331	0.08
727.65	0.08
727.969	0.08
728.287	0.09
728.606	0.08
728.924	0.08
729.242	0.09
729.561	0.08
729.879	0.08
730.197	0.08
730.515	0.08
730.834	0.08
731.152	0.08
731.47	0.08
731.788	0.09
732.105	0.08
732.423	0.08
732.741	0.08
733.059	0.08
733.376	0.09
733.694	0.08
734.012	0.08
734.329	0.09
734.647	0.08
734.964	0.08
735.281	0.09
735.599	0.09
735.916	0.09
736.233	0.08
736.55	0.08
736.867	0.08
737.184	0.08
737.501	0.08
737.818	0.09
738.135	0.08
738.452	0.08
738.768	0.08
739.085	0.08
739.402	0.07
739.718	0.08
740.035	0.09
740.351	0.07
740.668	0.08
740.984	0.09
741.3	0.07
741.617	0.08
741.933	0.07
742.249	0.08
742.565	0.08
742.881	0.08
743.197	0.09
743.513	0.07
743.829	0.07
744.144	0.07
744.46	0.07
744.776	0.08
745.091	0.08
745.407	0.07
745.722	0.07
746.038	0.06
746.353	0.06
746.669	0.07
746.984	0.06
747.299	0.06
747.614	0.07
747.93	0.07
748.245	0.06
748.56	0.07
748.875	0.06
749.189	0.07
749.504	0.07
749.819	0.07
750.134	0.07
750.448	0.07
750.763	0.07
751.078	0.06
751.392	0.07
751.707	0.08
752.021	0.07
752.335	0.08
752.65	0.08
752.964	0.07
753.278	0.08
753.592	0.07
753.906	0.06
754.22	0.07
754.534	0.08
754.848	0.08
755.162	0.07
755.476	0.07
755.789	0.08
756.103	0.07
756.417	0.08
756.73	0.08
757.044	0.07
757.357	0.08
757.671	0.08
757.984	0.07
758.297	0.08
758.61	0.08
758.924	0.07
759.237	0.07
759.55	0.08
759.863	0.07
760.176	0.07
760.488	0.07
760.801	0.07
761.114	0.07
761.427	0.06
761.739	0.08
762.052	0.07
762.365	0.06
762.677	0.07
762.99	0.06
763.302	0.06
763.614	0.06
763.926	0.07
764.239	0.06
764.551	0.07
764.863	0.06
765.175	0.08
765.487	0.07
765.799	0.06
766.111	0.06
766.423	0.06
766.734	0.07
767.046	0.07
767.358	0.07
767.669	0.06
767.981	0.07
768.292	0.06
768.604	0.07
768.915	0.06
769.226	0.06
769.537	0.05
769.849	0.07
770.16	0.06
770.471	0.05
770.782	0.06
771.093	0.05
771.404	0.05
771.715	0.06
772.025	0.06
772.336	0.06
772.647	0.05
772.957	0.06
773.268	0.06
773.578	0.05
773.889	0.06
774.199	0.07
774.51	0.07
774.82	0.06
775.13	0.06
775.44	0.06
775.75	0.06
776.06	0.07
776.37	0.06
776.68	0.06
776.99	0.06
777.3	0.06
777.61	0.06
777.92	0.06
778.229	0.06
778.539	0.07
778.848	0.07
779.158	0.06
779.467	0.06
779.777	0.06
780.086	0.07
780.395	0.05
780.704	0.05
781.013	0.05
781.323	0.05
781.632	0.05
781.941	0.06
782.249	0.06
782.558	0.05
782.867	0.06
783.176	0.05
783.485	0.05
783.793	0.06
784.102	0.06
784.41	0.05
784.719	0.05
785.027	0.05
785.335	0.05
785.644	0.05
785.952	0.05
786.26	0.06
786.568	0.05
786.876	0.04
787.184	0.05
787.492	0.05
787.8	0.05
788.108	0.05
788.416	0.05
788.723	0.05
789.031	0.05
789.338	0.05
789.646	0.05
789.953	0.05
790.261	0.06
790.568	0.06
790.876	0.05
791.183	0.06
791.49	0.05
791.797	0.06
792.104	0.05
792.411	0.06
792.718	0.05
793.025	0.06
793.332	0.05
793.639	0.06
793.945	0.06
794.252	0.06
794.559	0.06
794.865	0.07
795.172	0.06
795.478	0.06
795.784	0.07
796.091	0.07
796.397	0.07
796.703	0.06
797.009	0.07
797.315	0.06
797.622	0.06
797.927	0.06
798.233	0.06
798.539	0.07
798.845	0.07
799.151	0.07
799.456	0.07
799.762	0.07
800.068	0.07
800.373	0.07
800.679	0.07
800.984	0.06
801.289	0.07
801.595	0.06
801.9	0.06
802.205	0.06
802.51	0.06
802.815	0.06
803.12	0.06
803.425	0.06
803.73	0.06
804.035	0.06
804.339	0.05
804.644	0.05
804.949	0.05
805.253	0.05
805.558	0.06
805.862	0.06
806.167	0.06
806.471	0.05
806.775	0.06
807.08	0.05
807.384	0.05
807.688	0.06
807.992	0.05
808.296	0.06
808.6	0.06
808.904	0.06
809.207	0.06
809.511	0.06
809.815	0.07
810.119	0.06
810.422	0.07
810.726	0.07
811.029	0.07
811.332	0.07
811.636	0.07
811.939	0.07
812.242	0.07
812.546	0.07
812.849	0.07
813.152	0.07
813.455	0.07
813.758	0.07
814.06	0.07
814.363	0.07
814.666	0.08
814.969	0.08
815.271	0.07
815.574	0.06
815.877	0.07
816.179	0.07
816.481	0.06
816.784	0.06
817.086	0.06
817.388	0.05
817.69	0.06
817.993	0.05
818.295	0.06
818.597	0.06
818.899	0.05
819.2	0.05
819.502	0.05
819.804	0.05
820.106	0.05
820.407	0.05
820.709	0.06
821.01	0.05
821.312	0.05
821.613	0.05
821.915	0.05
822.216	0.05
822.517	0.04
822.818	0.04
823.119	0.04
823.42	0.05
823.721	0.03
824.022	0.03
824.323	0.04
824.624	0.04
824.925	0.04
825.226	0.05
825.526	0.04
825.827	0.05
826.127	0.05
826.428	0.04
826.728	0.04
827.028	0.04
827.329	0.04
827.629	0.03
827.929	0.04
828.229	0.04
828.529	0.05
828.829	0.03
829.129	0.04
829.429	0.04
829.729	0.04
830.029	0.03
830.328	0.05
830.628	0.04
830.927	0.03
831.227	0.03
831.526	0.04
831.826	0.04
832.125	0.03
832.424	0.03
832.724	0.04
833.023	0.04
833.322	0.04
833.621	0.04
833.92	0.03
834.219	0.02
834.518	0.03
834.816	0.01
835.115	0.02
835.414	0.02
835.712	0.03
836.011	0.02
836.309	0.02
836.608	0.02
836.906	0.02
837.205	0.01
837.503	0.02
837.801	0
838.099	-0
838.397	-0
838.695	0
838.993	0.01
839.291	-0.01
839.589	0
839.887	-0
840.184	-0
840.482	-0.01
840.78	0
841.077	-0.01
841.375	-0
841.672	0
841.969	-0.01
842.267	-0.01
842.564	0
842.861	-0.01
843.158	-0.01
843.455	-0.03
843.752	-0.02
844.049	-0.02
844.346	-0.01
844.643	-0.03
844.94	-0.02
845.236	-0.01
845.533	-0.02
845.83	-0.02
846.126	-0.02
846.423	-0.03
846.719	-0.03
847.015	-0.03
847.312	-0.03
847.608	-0.04
847.904	-0.04
848.2	-0.04
848.496	-0.04
848.792	-0.03
849.088	-0.03
849.384	-0.03
849.68	-0.05
849.975	-0.04
850.271	-0.04
850.567	-0.04
850.862	-0.05
851.158	-0.05
851.453	-0.05
851.748	-0.05
852.044	-0.05
852.339	-0.04
852.634	-0.06
852.929	-0.05
853.224	-0.05
853.519	-0.05
853.814	-0.05
854.109	-0.05
854.404	-0.06
854.699	-0.07
854.994	-0.05
855.288	-0.04
855.583	-0.05
855.877	-0.06
856.172	-0.05
856.466	-0.07
856.76	-0.07
857.055	-0.08
857.349	-0.08
857.643	-0.09
857.937	-0.09
858.231	-0.09
858.525	-0.09
858.819	-0.09
859.113	-0.11
859.407	-0.11
859.701	-0.11
859.994	-0.1
860.288	-0.1
860.581	-0.1
860.875	-0.11
861.168	-0.1
861.462	-0.1
861.755	-0.1
862.048	-0.11
862.341	-0.11
862.634	-0.11
862.928	-0.1
863.221	-0.1
863.513	-0.12
863.806	-0.1
864.099	-0.12
864.392	-0.11
864.685	-0.11
864.977	-0.11
865.27	-0.11
865.562	-0.11
865.855	-0.1
866.147	-0.11
866.44	-0.1
866.732	-0.12
867.024	-0.12
867.316	-0.11
867.608	-0.12
867.9	-0.12
868.192	-0.12
868.484	-0.12
868.776	-0.13
869.068	-0.12
869.359	-0.12
869.651	-0.13
869.943	-0.15
870.234	-0.13
870.526	-0.14
870.817	-0.14
871.108	-0.13
871.4	-0.14
871.691	-0.14
871.982	-0.15
872.273	-0.16
872.564	-0.16
872.855	-0.15
873.146	-0.16
873.437	-0.15
873.728	-0.17
874.019	-0.17
874.309	-0.17
874.6	-0.16
874.89	-0.16
875.181	-0.16
875.471	-0.16
875.762	-0.16
876.052	-0.16
876.342	-0.15
876.632	-0.15
876.922	-0.16
877.213	-0.17
877.503	-0.17
877.792	-0.17
878.082	-0.18
878.372	-0.16
878.662	-0.18
878.952	-0.17
879.241	-0.16
879.531	-0.16
879.82	-0.16
880.11	-0.16
880.399	-0.16
880.688	-0.14
880.978	-0.14
881.267	-0.14
