Data from 12-12-AQDScycling_Absorbance__862__00862.txt Node

Date: Tue Dec 12 14:32:14 EST 2023
User: kyuminlee
Spectrometer: FLMS00943
Trigger mode: 0
Integration Time (sec): 1.000000E-1
Scans to average: 1
Electric dark correction enabled: true
Nonlinearity correction enabled: false
Boxcar width: 0
XAxis mode: Wavelengths
Number of Pixels in Spectrum: 2048
>>>>>Begin Spectral Data<<<<<
179.651	-0.08
180.037	-0.08
180.424	-0.08
180.81	-0.64
181.197	0.34
181.583	-0
181.97	0.08
182.356	-0
182.743	-0.93
183.129	-0
183.515	0.2
183.901	-2.16
184.288	0.29
184.674	-0
185.06	-0.99
185.446	-0
185.832	-0
186.218	-0.03
186.604	0.24
186.99	-0.22
187.376	1.25
187.762	0.37
188.148	0.25
188.534	-0.11
188.92	0.03
189.305	0.05
189.691	0.2
190.077	0.08
190.463	0.09
190.848	0.15
191.234	0.13
191.619	0.04
192.005	-0.04
192.391	0.15
192.776	0.08
193.161	0.05
193.547	0.13
193.932	-0
194.318	0.12
194.703	0.19
195.088	0.13
195.473	0.24
195.859	0.38
196.244	0.34
196.629	0.25
197.014	0.1
197.399	0.19
197.784	0.16
198.169	0.08
198.554	0.13
198.939	0.22
199.324	0.17
199.709	0.08
200.094	0.1
200.478	0.02
200.863	0.21
201.248	0.24
201.633	0.19
202.017	0.02
202.402	0.31
202.787	0.04
203.171	0.06
203.556	0.06
203.94	0.14
204.325	0.26
204.709	0.32
205.093	-0
205.478	0.21
205.862	0.03
206.246	0.06
206.631	0.2
207.015	0.14
207.399	0.24
207.783	0.16
208.167	0.19
208.551	0.25
208.935	0.25
209.319	0.12
209.703	0.13
210.087	0.14
210.471	-0.01
210.855	0.11
211.239	0.21
211.623	0.22
212.007	0.3
212.39	0.34
212.774	0.27
213.158	0.11
213.541	0.22
213.925	0.22
214.309	0.31
214.692	0.24
215.076	0.16
215.459	0.23
215.842	0.14
216.226	0.19
216.609	0.28
216.993	0.36
217.376	0.66
217.759	0.16
218.142	0.32
218.525	0.61
218.909	0.48
219.292	0.34
219.675	0.35
220.058	0.38
220.441	0.42
220.824	0.47
221.207	0.5
221.59	0.59
221.973	0.57
222.355	0.59
222.738	0.79
223.121	0.68
223.504	0.5
223.886	0.78
224.269	0.71
224.652	0.62
225.034	0.75
225.417	0.7
225.799	0.71
226.182	0.88
226.564	0.82
226.947	0.83
227.329	0.83
227.711	1.17
228.094	0.89
228.476	0.9
228.858	0.84
229.24	0.88
229.623	0.88
230.005	0.74
230.387	0.86
230.769	0.84
231.151	0.96
231.533	0.92
231.915	0.88
232.297	0.98
232.679	1.06
233.061	1.11
233.442	1.05
233.824	1.05
234.206	1.12
234.588	1.06
234.969	0.99
235.351	0.97
235.733	1.06
236.114	1.25
236.496	1.1
236.877	1.32
237.259	1.1
237.64	1.03
238.022	1.03
238.403	1.07
238.784	1.11
239.165	0.97
239.547	1.08
239.928	1.05
240.309	0.99
240.69	1.02
241.071	1.25
241.452	1.14
241.834	1.17
242.215	1.02
242.595	1
242.976	1.12
243.357	1.13
243.738	1.04
244.119	1.18
244.5	1.21
244.881	1.18
245.261	1.24
245.642	1.16
246.023	1.17
246.403	1.22
246.784	1.26
247.164	1.34
247.545	1.33
247.925	1.31
248.306	1.31
248.686	1.26
249.067	1.21
249.447	1.22
249.827	1.46
250.207	1.5
250.588	1.17
250.968	1.47
251.348	1.3
251.728	1.35
252.108	1.35
252.488	1.37
252.868	1.4
253.248	1.34
253.628	1.41
254.008	1.35
254.388	1.29
254.768	1.34
255.147	1.37
255.527	1.43
255.907	1.28
256.287	1.34
256.666	1.37
257.046	1.32
257.425	1.48
257.805	1.37
258.184	1.33
258.564	1.31
258.943	1.37
259.323	1.42
259.702	1.49
260.081	1.44
260.461	1.52
260.84	1.44
261.219	1.83
261.598	1.6
261.977	1.49
262.356	1.45
262.736	1.52
263.115	1.51
263.494	1.39
263.873	1.5
264.251	1.47
264.63	1.49
265.009	1.39
265.388	1.48
265.767	1.4
266.145	1.34
266.524	1.44
266.903	1.43
267.281	1.37
267.66	1.54
268.039	1.39
268.417	1.49
268.796	1.44
269.174	1.42
269.552	1.45
269.931	1.32
270.309	1.47
270.687	1.57
271.066	1.53
271.444	1.33
271.822	1.81
272.2	1.47
272.578	1.34
272.956	1.35
273.334	1.5
273.712	1.32
274.09	1.46
274.468	1.39
274.846	1.28
275.224	1.36
275.602	1.45
275.98	1.59
276.357	1.26
276.735	1.46
277.113	1.4
277.49	1.29
277.868	1.28
278.246	1.34
278.623	1.23
279.001	1.28
279.378	1.3
279.756	1.39
280.133	1.6
280.51	1.38
280.888	1.44
281.265	1.26
281.642	1.69
282.019	1.44
282.396	1.45
282.773	1.39
283.151	1.75
283.528	1.46
283.905	1.41
284.282	1.48
284.659	1.44
285.035	1.28
285.412	1.36
285.789	1.38
286.166	1.45
286.543	1.48
286.919	1.36
287.296	1.39
287.673	1.51
288.049	1.57
288.426	1.63
288.802	1.55
289.179	1.46
289.555	1.59
289.932	1.48
290.308	1.3
290.684	1.36
291.061	1.38
291.437	1.62
291.813	1.34
292.189	1.24
292.565	1.3
292.942	1.37
293.318	1.45
293.694	1.37
294.07	1.3
294.446	1.34
294.822	1.49
295.197	1.48
295.573	1.38
295.949	1.49
296.325	1.48
296.701	1.39
297.076	1.41
297.452	1.57
297.828	1.36
298.203	1.6
298.579	1.39
298.954	1.34
299.33	1.32
299.705	1.31
300.081	1.4
300.456	1.33
300.831	1.3
301.206	1.26
301.582	1.34
301.957	1.26
302.332	1.31
302.707	1.16
303.082	1.16
303.457	1.22
303.832	1.19
304.207	1.15
304.582	1.13
304.957	1.1
305.332	1.15
305.707	1.11
306.082	1.1
306.456	1.09
306.831	1.08
307.206	1.02
307.58	1.04
307.955	1
308.33	0.95
308.704	1
309.079	0.97
309.453	1
309.828	0.96
310.202	0.88
310.576	0.88
310.951	0.91
311.325	0.87
311.699	0.84
312.073	0.84
312.447	0.86
312.821	0.88
313.196	0.79
313.57	0.83
313.944	0.78
314.317	0.78
314.691	0.81
315.065	0.79
315.439	0.79
315.813	0.79
316.187	0.74
316.56	0.78
316.934	0.76
317.308	0.73
317.681	0.76
318.055	0.75
318.428	0.73
318.802	0.75
319.175	0.72
319.549	0.73
319.922	0.72
320.295	0.74
320.669	0.76
321.042	0.72
321.415	0.74
321.788	0.74
322.162	0.7
322.535	0.71
322.908	0.72
323.281	0.69
323.654	0.69
324.027	0.69
324.4	0.73
324.773	0.75
325.145	0.73
325.518	0.69
325.891	0.7
326.264	0.75
326.636	0.72
327.009	0.71
327.382	0.72
327.754	0.77
328.127	0.72
328.499	0.71
328.872	0.73
329.244	0.74
329.616	0.69
329.989	0.74
330.361	0.74
330.733	0.72
331.106	0.74
331.478	0.76
331.85	0.76
332.222	0.76
332.594	0.78
332.966	0.79
333.338	0.8
333.71	0.79
334.082	0.84
334.454	0.82
334.826	0.83
335.197	0.83
335.569	0.84
335.941	0.8
336.312	0.85
336.684	0.81
337.056	0.86
337.427	0.89
337.799	0.91
338.17	0.87
338.542	0.89
338.913	0.92
339.284	0.92
339.656	0.91
340.027	0.92
340.398	0.96
340.769	0.93
341.141	1.01
341.512	0.92
341.883	0.99
342.254	0.99
342.625	0.97
342.996	0.99
343.367	1.05
343.738	0.97
344.108	0.98
344.479	1.04
344.85	1
345.221	1.14
345.591	1.04
345.962	1.15
346.333	1.06
346.703	1.02
347.074	1.06
347.444	1.05
347.815	1.13
348.185	1.18
348.556	1.15
348.926	1.12
349.296	1.12
349.666	1.17
350.037	1.15
350.407	1.15
350.777	1.19
351.147	1.27
351.517	1.16
351.887	1.22
352.257	1.23
352.627	1.2
352.997	1.28
353.367	1.45
353.737	1.32
354.106	1.4
354.476	1.23
354.846	1.47
355.216	1.36
355.585	1.38
355.955	1.38
356.324	1.52
356.694	1.32
357.063	1.46
357.433	1.39
357.802	1.46
358.171	1.57
358.541	1.44
358.91	1.54
359.279	1.45
359.648	1.53
360.017	1.53
360.387	1.6
360.756	1.48
361.125	1.52
361.494	1.61
361.863	1.51
362.231	1.52
362.6	1.57
362.969	1.5
363.338	1.6
363.707	1.63
364.075	1.68
364.444	1.48
364.813	1.58
365.181	1.59
365.55	1.54
365.918	1.73
366.287	1.6
366.655	1.81
367.024	1.6
367.392	1.6
367.76	1.44
368.128	1.61
368.497	1.55
368.865	1.5
369.233	1.45
369.601	1.52
369.969	1.58
370.337	1.59
370.705	1.61
371.073	1.54
371.441	1.65
371.809	1.58
372.177	1.46
372.544	1.58
372.912	1.52
373.28	1.46
373.647	1.57
374.015	1.61
374.383	1.78
374.75	1.74
375.118	1.61
375.485	1.66
375.853	1.56
376.22	1.49
376.587	1.52
376.955	1.74
377.322	1.58
377.689	1.47
378.056	1.62
378.423	1.44
378.79	1.58
379.157	1.48
379.524	1.51
379.891	1.44
380.258	1.73
380.625	1.58
380.992	1.67
381.359	1.56
381.726	1.71
382.092	1.41
382.459	1.55
382.826	1.45
383.192	1.49
383.559	1.52
383.925	1.48
384.292	1.49
384.658	1.66
385.025	1.74
385.391	1.79
385.757	1.82
386.123	1.49
386.49	1.56
386.856	1.54
387.222	1.57
387.588	1.66
387.954	1.81
388.32	1.68
388.686	1.56
389.052	1.49
389.418	1.63
389.784	1.46
390.15	1.65
390.515	1.36
390.881	1.66
391.247	1.51
391.613	1.75
391.978	1.5
392.344	1.59
392.709	1.58
393.075	1.57
393.44	1.71
393.806	1.59
394.171	1.42
394.536	1.61
394.902	1.56
395.267	1.5
395.632	1.48
395.997	1.42
396.362	1.48
396.727	1.66
397.092	1.44
397.457	1.63
397.822	1.74
398.187	1.67
398.552	1.48
398.917	1.67
399.282	1.5
399.646	1.45
400.011	1.7
400.376	1.62
400.74	1.42
401.105	1.5
401.47	1.56
401.834	1.51
402.199	1.56
402.563	1.64
402.927	1.58
403.292	1.55
403.656	1.47
404.02	1.51
404.384	1.66
404.749	1.6
405.113	1.63
405.477	1.58
405.841	1.53
406.205	1.54
406.569	1.63
406.933	1.61
407.296	1.52
407.66	1.44
408.024	1.63
408.388	1.75
408.752	1.55
409.115	1.96
409.479	1.51
409.842	1.7
410.206	1.63
410.569	1.53
410.933	1.63
411.296	1.53
411.66	1.48
412.023	1.4
412.386	1.47
412.749	1.57
413.113	1.48
413.476	1.41
413.839	1.4
414.202	1.51
414.565	1.43
414.928	1.49
415.291	1.38
415.654	1.37
416.017	1.44
416.38	1.41
416.742	1.62
417.105	1.43
417.468	1.47
417.83	1.43
418.193	1.59
418.556	1.39
418.918	1.33
419.281	1.48
419.643	1.59
420.005	1.53
420.368	1.47
420.73	1.42
421.092	1.62
421.455	1.46
421.817	1.47
422.179	1.49
422.541	1.58
422.903	1.64
423.265	1.66
423.627	1.5
423.989	1.52
424.351	1.54
424.713	1.56
425.075	1.58
425.436	1.55
425.798	1.53
426.16	1.53
426.521	1.5
426.883	1.54
427.245	1.52
427.606	1.42
427.967	1.43
428.329	1.46
428.69	1.56
429.052	1.47
429.413	1.53
429.774	1.54
430.135	1.54
430.497	1.61
430.858	1.51
431.219	1.55
431.58	1.47
431.941	1.58
432.302	1.42
432.663	1.48
433.024	1.63
433.384	1.54
433.745	1.49
434.106	1.58
434.467	1.59
434.827	1.59
435.188	1.52
435.548	1.75
435.909	1.5
436.269	1.63
436.63	1.5
436.99	1.49
437.351	1.36
437.711	1.46
438.071	1.4
438.431	1.45
438.792	1.39
439.152	1.52
439.512	1.44
439.872	1.49
440.232	1.49
440.592	1.47
440.952	1.5
441.312	1.42
441.671	1.48
442.031	1.49
442.391	1.48
442.751	1.44
443.11	1.48
443.47	1.37
443.83	1.38
444.189	1.39
444.549	1.42
444.908	1.35
445.267	1.45
445.627	1.38
445.986	1.38
446.345	1.36
446.705	1.4
447.064	1.4
447.423	1.35
447.782	1.38
448.141	1.32
448.5	1.27
448.859	1.33
449.218	1.33
449.577	1.35
449.936	1.36
450.295	1.34
450.653	1.35
451.012	1.32
451.371	1.34
451.729	1.26
452.088	1.3
452.447	1.28
452.805	1.28
453.163	1.31
453.522	1.25
453.88	1.25
454.239	1.24
454.597	1.22
454.955	1.19
455.313	1.21
455.671	1.19
456.029	1.22
456.388	1.16
456.746	1.15
457.104	1.13
457.461	1.13
457.819	1.11
458.177	1.1
458.535	1.1
458.893	1.07
459.25	1.06
459.608	1.06
459.966	1.04
460.323	1.03
460.681	1.02
461.038	1.01
461.396	0.95
461.753	0.97
462.111	0.97
462.468	0.94
462.825	0.93
463.182	0.92
463.54	0.89
463.897	0.92
464.254	0.9
464.611	0.89
464.968	0.86
465.325	0.86
465.682	0.83
466.039	0.82
466.395	0.79
466.752	0.79
467.109	0.79
467.466	0.78
467.822	0.77
468.179	0.73
468.535	0.73
468.892	0.73
469.248	0.71
469.605	0.7
469.961	0.7
470.318	0.69
470.674	0.69
471.03	0.66
471.386	0.65
471.743	0.64
472.099	0.63
472.455	0.62
472.811	0.6
473.167	0.6
473.523	0.59
473.879	0.57
474.235	0.56
474.59	0.55
474.946	0.55
475.302	0.55
475.657	0.52
476.013	0.53
476.369	0.5
476.724	0.5
477.08	0.49
477.435	0.48
477.791	0.47
478.146	0.46
478.501	0.45
478.857	0.46
479.212	0.43
479.567	0.43
479.922	0.41
480.277	0.41
480.632	0.4
480.987	0.39
481.342	0.38
481.697	0.38
482.052	0.37
482.407	0.36
482.762	0.35
483.116	0.35
483.471	0.34
483.826	0.32
484.18	0.32
484.535	0.32
484.89	0.31
485.244	0.31
485.598	0.31
485.953	0.3
486.307	0.28
486.661	0.29
487.016	0.28
487.37	0.27
487.724	0.27
488.078	0.26
488.432	0.26
488.786	0.26
489.14	0.25
489.494	0.24
489.848	0.23
490.202	0.23
490.556	0.22
490.91	0.22
491.263	0.21
491.617	0.21
491.971	0.21
492.324	0.2
492.678	0.21
493.031	0.2
493.385	0.2
493.738	0.19
494.091	0.19
494.445	0.18
494.798	0.18
495.151	0.17
495.504	0.18
495.857	0.17
496.21	0.17
496.564	0.17
496.916	0.17
497.269	0.16
497.622	0.16
497.975	0.16
498.328	0.15
498.681	0.15
499.033	0.14
499.386	0.14
499.739	0.14
500.091	0.13
500.444	0.13
500.796	0.13
501.149	0.13
501.501	0.13
501.854	0.13
502.206	0.12
502.558	0.13
502.91	0.12
503.263	0.12
503.615	0.12
503.967	0.12
504.319	0.11
504.671	0.11
505.023	0.11
505.375	0.11
505.726	0.11
506.078	0.11
506.43	0.1
506.782	0.1
507.133	0.11
507.485	0.11
507.837	0.11
508.188	0.1
508.54	0.1
508.891	0.11
509.243	0.1
509.594	0.1
509.945	0.09
510.296	0.09
510.648	0.09
510.999	0.09
511.35	0.09
511.701	0.09
512.052	0.09
512.403	0.09
512.754	0.08
513.105	0.08
513.456	0.08
513.807	0.08
514.157	0.08
514.508	0.09
514.859	0.08
515.209	0.08
515.56	0.08
515.91	0.08
516.261	0.09
516.611	0.08
516.962	0.08
517.312	0.08
517.662	0.08
518.013	0.08
518.363	0.08
518.713	0.08
519.063	0.08
519.413	0.08
519.763	0.09
520.113	0.08
520.463	0.09
520.813	0.08
521.163	0.08
521.512	0.08
521.862	0.08
522.212	0.08
522.562	0.09
522.911	0.08
523.261	0.07
523.61	0.07
523.96	0.07
524.309	0.09
524.658	0.08
525.008	0.08
525.357	0.08
525.706	0.08
526.056	0.07
526.405	0.07
526.754	0.08
527.103	0.07
527.452	0.07
527.801	0.07
528.15	0.08
528.499	0.07
528.847	0.07
529.196	0.09
529.545	0.09
529.893	0.09
530.242	0.08
530.591	0.08
530.939	0.09
531.288	0.07
531.636	0.08
531.985	0.09
532.333	0.08
532.681	0.08
533.029	0.09
533.378	0.08
533.726	0.08
534.074	0.09
534.422	0.08
534.77	0.08
535.118	0.07
535.466	0.07
535.814	0.08
536.162	0.08
536.509	0.08
536.857	0.07
537.205	0.08
537.552	0.08
537.9	0.08
538.248	0.08
538.595	0.08
538.943	0.08
539.29	0.08
539.637	0.08
539.985	0.08
540.332	0.07
540.679	0.08
541.026	0.08
541.373	0.08
541.721	0.08
542.068	0.07
542.415	0.08
542.762	0.07
543.108	0.07
543.455	0.07
543.802	0.07
544.149	0.07
544.496	0.08
544.842	0.07
545.189	0.06
545.535	0.06
545.882	0.07
546.228	0.06
546.575	0.06
546.921	0.06
547.267	0.06
547.614	0.06
547.96	0.07
548.306	0.06
548.652	0.07
548.998	0.07
549.344	0.06
549.69	0.07
550.036	0.07
550.382	0.06
550.728	0.07
551.074	0.08
551.42	0.07
551.765	0.07
552.111	0.07
552.457	0.07
552.802	0.07
553.148	0.07
553.493	0.06
553.839	0.07
554.184	0.07
554.529	0.06
554.875	0.07
555.22	0.08
555.565	0.08
555.91	0.07
556.255	0.08
556.6	0.08
556.945	0.06
557.29	0.07
557.635	0.08
557.98	0.07
558.325	0.07
558.67	0.07
559.014	0.07
559.359	0.07
559.704	0.08
560.048	0.06
560.393	0.07
560.737	0.06
561.082	0.07
561.426	0.06
561.77	0.07
562.115	0.06
562.459	0.07
562.803	0.06
563.147	0.07
563.491	0.07
563.835	0.07
564.179	0.07
564.523	0.06
564.867	0.06
565.211	0.07
565.555	0.06
565.899	0.07
566.242	0.08
566.586	0.07
566.93	0.07
567.273	0.08
567.617	0.07
567.96	0.07
568.304	0.08
568.647	0.07
568.99	0.07
569.334	0.08
569.677	0.07
570.02	0.07
570.363	0.07
570.706	0.07
571.049	0.07
571.392	0.07
571.735	0.06
572.078	0.07
572.421	0.09
572.764	0.07
573.106	0.08
573.449	0.07
573.792	0.07
574.134	0.07
574.477	0.07
574.819	0.07
575.162	0.07
575.504	0.06
575.847	0.07
576.189	0.07
576.531	0.07
576.873	0.07
577.215	0.07
577.558	0.07
577.9	0.06
578.242	0.07
578.584	0.07
578.926	0.07
579.267	0.07
579.609	0.07
579.951	0.07
580.293	0.07
580.634	0.07
580.976	0.07
581.318	0.07
581.659	0.06
582.001	0.07
582.342	0.07
582.683	0.07
583.025	0.07
583.366	0.06
583.707	0.07
584.049	0.07
584.39	0.07
584.731	0.06
585.072	0.06
585.413	0.07
585.754	0.07
586.095	0.08
586.435	0.07
586.776	0.08
587.117	0.06
587.458	0.07
587.798	0.07
588.139	0.07
588.48	0.06
588.82	0.06
589.161	0.07
589.501	0.06
589.841	0.06
590.182	0.06
590.522	0.07
590.862	0.07
591.202	0.07
591.542	0.06
591.882	0.06
592.222	0.06
592.562	0.06
592.902	0.06
593.242	0.07
593.582	0.07
593.922	0.07
594.261	0.06
594.601	0.06
594.941	0.07
595.28	0.07
595.62	0.07
595.959	0.07
596.299	0.06
596.638	0.07
596.977	0.07
597.317	0.07
597.656	0.06
597.995	0.07
598.334	0.07
598.673	0.07
599.012	0.07
599.351	0.07
599.69	0.07
600.029	0.07
600.368	0.08
600.707	0.08
601.046	0.08
601.384	0.08
601.723	0.08
602.061	0.07
602.4	0.07
602.738	0.07
603.077	0.07
603.415	0.07
603.754	0.07
604.092	0.07
604.43	0.07
604.768	0.07
605.107	0.08
605.445	0.06
605.783	0.07
606.121	0.06
606.459	0.07
606.796	0.07
607.134	0.06
607.472	0.06
607.81	0.07
608.148	0.06
608.485	0.07
608.823	0.07
609.16	0.06
609.498	0.06
609.835	0.07
610.173	0.06
610.51	0.07
610.847	0.07
611.185	0.07
611.522	0.07
611.859	0.07
612.196	0.07
612.533	0.07
612.87	0.08
613.207	0.08
613.544	0.08
613.881	0.08
614.217	0.08
614.554	0.07
614.891	0.07
615.228	0.07
615.564	0.07
615.901	0.08
616.237	0.08
616.574	0.07
616.91	0.08
617.246	0.08
617.583	0.08
617.919	0.08
618.255	0.09
618.591	0.08
618.927	0.08
619.263	0.08
619.599	0.08
619.935	0.08
620.271	0.09
620.607	0.08
620.943	0.08
621.279	0.08
621.614	0.08
621.95	0.07
622.286	0.08
622.621	0.07
622.957	0.07
623.292	0.07
623.627	0.07
623.963	0.08
624.298	0.07
624.633	0.07
624.968	0.07
625.304	0.07
625.639	0.07
625.974	0.07
626.309	0.06
626.644	0.07
626.979	0.07
627.313	0.07
627.648	0.07
627.983	0.08
628.318	0.07
628.652	0.07
628.987	0.07
629.321	0.08
629.656	0.06
629.99	0.06
630.325	0.07
630.659	0.06
630.993	0.06
631.327	0.06
631.662	0.06
631.996	0.06
632.33	0.06
632.664	0.06
632.998	0.06
633.332	0.06
633.666	0.06
633.999	0.06
634.333	0.06
634.667	0.05
635.001	0.05
635.334	0.06
635.668	0.05
636.001	0.05
636.335	0.06
636.668	0.06
637.001	0.05
637.335	0.05
637.668	0.05
638.001	0.05
638.334	0.06
638.668	0.05
639.001	0.06
639.334	0.05
639.667	0.06
639.999	0.05
640.332	0.06
640.665	0.05
640.998	0.06
641.331	0.06
641.663	0.05
641.996	0.06
642.328	0.07
642.661	0.06
642.993	0.06
643.326	0.06
643.658	0.05
643.99	0.06
644.323	0.06
644.655	0.06
644.987	0.06
645.319	0.07
645.651	0.07
645.983	0.06
646.315	0.06
646.647	0.07
646.979	0.07
647.31	0.07
647.642	0.07
647.974	0.06
648.305	0.07
648.637	0.07
648.968	0.06
649.3	0.06
649.631	0.07
649.963	0.06
650.294	0.06
650.625	0.06
650.957	0.07
651.288	0.07
651.619	0.07
651.95	0.06
652.281	0.06
652.612	0.06
652.943	0.06
653.274	0.07
653.604	0.06
653.935	0.06
654.266	0.06
654.596	0.06
654.927	0.06
655.258	0.06
655.588	0.08
655.918	0.07
656.249	0.05
656.579	0.06
656.909	0.07
657.24	0.06
657.57	0.07
657.9	0.07
658.23	0.07
658.56	0.07
658.89	0.07
659.22	0.06
659.55	0.06
659.88	0.06
660.209	0.06
660.539	0.08
660.869	0.07
661.198	0.07
661.528	0.07
661.857	0.06
662.187	0.07
662.516	0.06
662.846	0.06
663.175	0.06
663.504	0.06
663.833	0.06
664.163	0.07
664.492	0.06
664.821	0.06
665.15	0.06
665.479	0.06
665.807	0.06
666.136	0.06
666.465	0.06
666.794	0.06
667.122	0.06
667.451	0.06
667.78	0.07
668.108	0.07
668.437	0.07
668.765	0.08
669.093	0.07
669.422	0.07
669.75	0.07
670.078	0.07
670.406	0.07
670.734	0.07
671.062	0.07
671.39	0.07
671.718	0.07
672.046	0.07
672.374	0.07
672.702	0.07
673.029	0.07
673.357	0.07
673.685	0.07
674.012	0.06
674.34	0.07
674.667	0.07
674.995	0.07
675.322	0.07
675.649	0.06
675.977	0.07
676.304	0.06
676.631	0.06
676.958	0.07
677.285	0.06
677.612	0.06
677.939	0.06
678.266	0.07
678.593	0.06
678.92	0.07
679.246	0.06
679.573	0.06
679.9	0.06
680.226	0.06
680.553	0.06
680.879	0.07
681.206	0.07
681.532	0.06
681.858	0.07
682.184	0.06
682.511	0.07
682.837	0.06
683.163	0.07
683.489	0.07
683.815	0.06
684.141	0.07
684.467	0.07
684.793	0.06
685.118	0.06
685.444	0.07
685.77	0.06
686.095	0.07
686.421	0.06
686.746	0.07
687.072	0.06
687.397	0.06
687.723	0.07
688.048	0.07
688.373	0.06
688.698	0.07
689.023	0.06
689.349	0.06
689.674	0.06
689.999	0.05
690.323	0.05
690.648	0.05
690.973	0.05
691.298	0.05
691.623	0.06
691.947	0.05
692.272	0.05
692.596	0.05
692.921	0.06
693.245	0.06
693.57	0.07
693.894	0.06
694.218	0.06
694.543	0.06
694.867	0.07
695.191	0.06
695.515	0.06
695.839	0.06
696.163	0.06
696.487	0.06
696.811	0.06
697.135	0.07
697.458	0.06
697.782	0.06
698.106	0.06
698.429	0.06
698.753	0.06
699.076	0.06
699.4	0.06
699.723	0.06
700.046	0.06
700.37	0.06
700.693	0.06
701.016	0.05
701.339	0.07
701.662	0.07
701.985	0.07
702.308	0.06
702.631	0.06
702.954	0.06
703.277	0.06
703.599	0.06
703.922	0.05
704.245	0.05
704.567	0.06
704.89	0.05
705.212	0.05
705.535	0.05
705.857	0.05
706.179	0.05
706.502	0.06
706.824	0.05
707.146	0.05
707.468	0.06
707.79	0.05
708.112	0.05
708.434	0.06
708.756	0.06
709.078	0.06
709.399	0.05
709.721	0.05
710.043	0.06
710.364	0.06
710.686	0.05
711.007	0.06
711.329	0.06
711.65	0.06
711.972	0.06
712.293	0.06
712.614	0.06
712.935	0.06
713.256	0.06
713.577	0.07
713.898	0.06
714.219	0.06
714.54	0.06
714.861	0.05
715.182	0.07
715.503	0.05
715.823	0.06
716.144	0.05
716.464	0.05
716.785	0.05
717.105	0.05
717.426	0.06
717.746	0.05
718.066	0.04
718.387	0.05
718.707	0.04
719.027	0.05
719.347	0.04
719.667	0.05
719.987	0.05
720.307	0.04
720.627	0.05
720.947	0.05
721.266	0.05
721.586	0.04
721.906	0.05
722.225	0.04
722.545	0.04
722.864	0.04
723.184	0.05
723.503	0.05
723.823	0.06
724.142	0.05
724.461	0.04
724.78	0.05
725.099	0.05
725.418	0.05
725.737	0.05
726.056	0.06
726.375	0.06
726.694	0.05
727.013	0.05
727.331	0.05
727.65	0.05
727.969	0.05
728.287	0.05
728.606	0.05
728.924	0.05
729.242	0.05
729.561	0.05
729.879	0.05
730.197	0.05
730.515	0.04
730.834	0.05
731.152	0.04
731.47	0.05
731.788	0.06
732.105	0.05
732.423	0.05
732.741	0.05
733.059	0.05
733.376	0.05
733.694	0.05
734.012	0.06
734.329	0.06
734.647	0.05
734.964	0.05
735.281	0.06
735.599	0.06
735.916	0.06
736.233	0.06
736.55	0.06
736.867	0.06
737.184	0.07
737.501	0.05
737.818	0.06
738.135	0.07
738.452	0.06
738.768	0.06
739.085	0.06
739.402	0.04
739.718	0.06
740.035	0.06
740.351	0.06
740.668	0.06
740.984	0.05
741.3	0.05
741.617	0.05
741.933	0.05
742.249	0.06
742.565	0.05
742.881	0.06
743.197	0.04
743.513	0.05
743.829	0.05
744.144	0.05
744.46	0.05
744.776	0.05
745.091	0.05
745.407	0.05
745.722	0.05
746.038	0.05
746.353	0.03
746.669	0.06
746.984	0.04
747.299	0.05
747.614	0.05
747.93	0.05
748.245	0.05
748.56	0.05
748.875	0.04
749.189	0.04
749.504	0.05
749.819	0.05
750.134	0.04
750.448	0.05
750.763	0.05
751.078	0.04
751.392	0.04
751.707	0.05
752.021	0.05
752.335	0.05
752.65	0.05
752.964	0.05
753.278	0.05
753.592	0.05
753.906	0.04
754.22	0.05
754.534	0.04
754.848	0.06
755.162	0.05
755.476	0.05
755.789	0.05
756.103	0.04
756.417	0.05
756.73	0.05
757.044	0.05
757.357	0.05
757.671	0.06
757.984	0.05
758.297	0.05
758.61	0.05
758.924	0.05
759.237	0.04
759.55	0.04
759.863	0.05
760.176	0.05
760.488	0.05
760.801	0.04
761.114	0.04
761.427	0.04
761.739	0.04
762.052	0.04
762.365	0.04
762.677	0.05
762.99	0.04
763.302	0.05
763.614	0.04
763.926	0.05
764.239	0.04
764.551	0.04
764.863	0.05
765.175	0.05
765.487	0.05
765.799	0.04
766.111	0.04
766.423	0.04
766.734	0.04
767.046	0.04
767.358	0.04
767.669	0.04
767.981	0.05
768.292	0.04
768.604	0.05
768.915	0.04
769.226	0.04
769.537	0.04
769.849	0.04
770.16	0.05
770.471	0.04
770.782	0.04
771.093	0.04
771.404	0.03
771.715	0.04
772.025	0.03
772.336	0.04
772.647	0.04
772.957	0.04
773.268	0.04
773.578	0.04
773.889	0.04
774.199	0.05
774.51	0.05
774.82	0.04
775.13	0.04
775.44	0.05
775.75	0.05
776.06	0.05
776.37	0.05
776.68	0.04
776.99	0.05
777.3	0.05
777.61	0.06
777.92	0.05
778.229	0.05
778.539	0.06
778.848	0.05
779.158	0.05
779.467	0.05
779.777	0.04
780.086	0.06
780.395	0.04
780.704	0.04
781.013	0.04
781.323	0.04
781.632	0.05
781.941	0.05
782.249	0.04
782.558	0.04
782.867	0.05
783.176	0.04
783.485	0.03
783.793	0.05
784.102	0.05
784.41	0.05
784.719	0.05
785.027	0.04
785.335	0.05
785.644	0.04
785.952	0.04
786.26	0.05
786.568	0.04
786.876	0.04
787.184	0.05
787.492	0.04
787.8	0.05
788.108	0.05
788.416	0.05
788.723	0.05
789.031	0.04
789.338	0.05
789.646	0.04
789.953	0.05
790.261	0.05
790.568	0.05
790.876	0.05
791.183	0.05
791.49	0.04
791.797	0.05
792.104	0.05
792.411	0.05
792.718	0.04
793.025	0.05
793.332	0.05
793.639	0.05
793.945	0.06
794.252	0.05
794.559	0.05
794.865	0.05
795.172	0.05
795.478	0.05
795.784	0.05
796.091	0.04
796.397	0.05
796.703	0.05
797.009	0.05
797.315	0.06
797.622	0.06
797.927	0.05
798.233	0.05
798.539	0.06
798.845	0.05
799.151	0.06
799.456	0.06
799.762	0.05
800.068	0.05
800.373	0.06
800.679	0.06
800.984	0.05
801.289	0.05
801.595	0.05
801.9	0.06
802.205	0.05
802.51	0.05
802.815	0.05
803.12	0.05
803.425	0.04
803.73	0.05
804.035	0.06
804.339	0.05
804.644	0.05
804.949	0.05
805.253	0.05
805.558	0.05
805.862	0.05
806.167	0.04
806.471	0.05
806.775	0.05
807.08	0.05
807.384	0.05
807.688	0.05
807.992	0.06
808.296	0.05
808.6	0.05
808.904	0.05
809.207	0.05
809.511	0.05
809.815	0.06
810.119	0.05
810.422	0.06
810.726	0.07
811.029	0.06
811.332	0.06
811.636	0.06
811.939	0.06
812.242	0.06
812.546	0.06
812.849	0.05
813.152	0.06
813.455	0.05
813.758	0.06
814.06	0.05
814.363	0.06
814.666	0.06
814.969	0.05
815.271	0.06
815.574	0.06
815.877	0.05
816.179	0.05
816.481	0.05
816.784	0.05
817.086	0.04
817.388	0.04
817.69	0.04
817.993	0.04
818.295	0.04
818.597	0.04
818.899	0.04
819.2	0.04
819.502	0.03
819.804	0.04
820.106	0.04
820.407	0.03
820.709	0.03
821.01	0.04
821.312	0.04
821.613	0.03
821.915	0.04
822.216	0.04
822.517	0.03
822.818	0.03
823.119	0.04
823.42	0.04
823.721	0.03
824.022	0.04
824.323	0.03
824.624	0.03
824.925	0.04
825.226	0.04
825.526	0.03
825.827	0.04
826.127	0.04
826.428	0.04
826.728	0.03
827.028	0.04
827.329	0.04
827.629	0.02
827.929	0.03
828.229	0.04
828.529	0.04
828.829	0.04
829.129	0.02
829.429	0.03
829.729	0.03
830.029	0.03
830.328	0.03
830.628	0.03
830.927	0.02
831.227	0.02
831.526	0.03
831.826	0.03
832.125	0.04
832.424	0.02
832.724	0.03
833.023	0.02
833.322	0.03
833.621	0.02
833.92	0.02
834.219	0.02
834.518	0.02
834.816	0.01
835.115	0.03
835.414	0.02
835.712	0.01
836.011	0.02
836.309	0.02
836.608	0.01
836.906	0
837.205	0
837.503	0.01
837.801	-0
838.099	-0
838.397	-0.01
838.695	-0.01
838.993	-0.01
839.291	-0.01
839.589	-0.01
839.887	-0.01
840.184	-0.02
840.482	-0.02
840.78	-0.01
841.077	-0.02
841.375	-0.01
841.672	-0.01
841.969	-0.02
842.267	-0.01
842.564	-0.01
842.861	-0
843.158	-0.01
843.455	-0.02
843.752	-0.02
844.049	-0.02
844.346	-0.02
844.643	-0.02
844.94	-0.02
845.236	-0.01
845.533	-0.03
845.83	-0.02
846.126	-0.02
846.423	-0.03
846.719	-0.03
847.015	-0.02
847.312	-0.03
847.608	-0.04
847.904	-0.04
848.2	-0.04
848.496	-0.04
848.792	-0.04
849.088	-0.02
849.384	-0.03
849.68	-0.04
849.975	-0.05
850.271	-0.05
850.567	-0.04
850.862	-0.05
851.158	-0.05
851.453	-0.05
851.748	-0.06
852.044	-0.05
852.339	-0.05
852.634	-0.07
852.929	-0.05
853.224	-0.07
853.519	-0.06
853.814	-0.06
854.109	-0.07
854.404	-0.06
854.699	-0.07
854.994	-0.06
855.288	-0.05
855.583	-0.05
855.877	-0.06
856.172	-0.06
856.466	-0.06
856.76	-0.06
857.055	-0.07
857.349	-0.07
857.643	-0.07
857.937	-0.08
858.231	-0.07
858.525	-0.08
858.819	-0.08
859.113	-0.08
859.407	-0.09
859.701	-0.1
859.994	-0.1
860.288	-0.09
860.581	-0.1
860.875	-0.1
861.168	-0.1
861.462	-0.11
861.755	-0.11
862.048	-0.12
862.341	-0.1
862.634	-0.11
862.928	-0.1
863.221	-0.11
863.513	-0.11
863.806	-0.12
864.099	-0.12
864.392	-0.12
864.685	-0.11
864.977	-0.11
865.27	-0.11
865.562	-0.11
865.855	-0.11
866.147	-0.11
866.44	-0.12
866.732	-0.12
867.024	-0.13
867.316	-0.13
867.608	-0.13
867.9	-0.13
868.192	-0.13
868.484	-0.13
868.776	-0.13
869.068	-0.13
869.359	-0.14
869.651	-0.13
869.943	-0.14
870.234	-0.14
870.526	-0.15
870.817	-0.15
871.108	-0.12
871.4	-0.15
871.691	-0.14
871.982	-0.14
872.273	-0.16
872.564	-0.16
872.855	-0.15
873.146	-0.16
873.437	-0.15
873.728	-0.15
874.019	-0.15
874.309	-0.16
874.6	-0.15
874.89	-0.15
875.181	-0.15
875.471	-0.15
875.762	-0.16
876.052	-0.16
876.342	-0.15
876.632	-0.16
876.922	-0.16
877.213	-0.17
877.503	-0.18
877.792	-0.16
878.082	-0.18
878.372	-0.15
878.662	-0.18
878.952	-0.17
879.241	-0.17
879.531	-0.17
879.82	-0.16
880.11	-0.17
880.399	-0.16
880.688	-0.15
880.978	-0.15
881.267	-0.15
