Data from 12-12-AQDScycling_Absorbance__841__00841.txt Node

Date: Tue Dec 12 14:26:59 EST 2023
User: kyuminlee
Spectrometer: FLMS00943
Trigger mode: 0
Integration Time (sec): 1.000000E-1
Scans to average: 1
Electric dark correction enabled: true
Nonlinearity correction enabled: false
Boxcar width: 0
XAxis mode: Wavelengths
Number of Pixels in Spectrum: 2048
>>>>>Begin Spectral Data<<<<<
179.651	0.51
180.037	0.51
180.424	0.51
180.81	-0
181.197	0.11
181.583	-0
181.97	-0.25
182.356	-0
182.743	-1.15
183.129	0.46
183.515	0.47
183.901	-2.27
184.288	0.15
184.674	0.95
185.06	0.09
185.446	-0
185.832	-0
186.218	-0.1
186.604	-0.46
186.99	-0
187.376	-0
187.762	-0.39
188.148	0.9
188.534	0.08
188.92	0.08
189.305	0.06
189.691	0.16
190.077	0.14
190.463	0.03
190.848	0.01
191.234	0.23
191.619	0.06
192.005	0.09
192.391	0.09
192.776	0.11
193.161	0
193.547	0.04
193.932	0
194.318	0.06
194.703	0.07
195.088	0.05
195.473	0.04
195.859	0.22
196.244	0.16
196.629	0.13
197.014	0.08
197.399	0.18
197.784	0.17
198.169	0.16
198.554	0.17
198.939	0
199.324	0.06
199.709	0.14
200.094	0.03
200.478	0.04
200.863	0.08
201.248	0.14
201.633	0.13
202.017	0.08
202.402	0.22
202.787	0.24
203.171	0.11
203.556	0.18
203.94	0.15
204.325	0.15
204.709	0.21
205.093	0.06
205.478	0.07
205.862	0.06
206.246	0.06
206.631	0.3
207.015	0.1
207.399	0.22
207.783	0.2
208.167	0.15
208.551	0.16
208.935	0.11
209.319	0.12
209.703	0.15
210.087	0.26
210.471	0.14
210.855	0.26
211.239	0.14
211.623	0.21
212.007	0.3
212.39	0.25
212.774	0.09
213.158	0.08
213.541	0.23
213.925	0.27
214.309	0.33
214.692	0.28
215.076	0.19
215.459	0.18
215.842	0.2
216.226	0.17
216.609	0.34
216.993	0.21
217.376	0.33
217.759	0.14
218.142	0.19
218.525	0.35
218.909	0.32
219.292	0.29
219.675	0.31
220.058	0.36
220.441	0.38
220.824	0.36
221.207	0.47
221.59	0.51
221.973	0.47
222.355	0.53
222.738	0.6
223.121	0.54
223.504	0.52
223.886	0.58
224.269	0.65
224.652	0.62
225.034	0.85
225.417	0.71
225.799	0.7
226.182	0.81
226.564	0.88
226.947	0.65
227.329	0.77
227.711	0.87
228.094	0.83
228.476	0.93
228.858	0.73
229.24	0.76
229.623	1.02
230.005	0.82
230.387	0.88
230.769	0.78
231.151	0.96
231.533	0.92
231.915	0.89
232.297	0.91
232.679	0.98
233.061	1.02
233.442	1.04
233.824	0.91
234.206	1.11
234.588	0.97
234.969	0.99
235.351	1.02
235.733	1.13
236.114	1.17
236.496	0.96
236.877	1.16
237.259	0.96
237.64	0.97
238.022	0.95
238.403	1
238.784	1.02
239.165	0.88
239.547	0.99
239.928	1
240.309	1.02
240.69	1.04
241.071	0.95
241.452	1.05
241.834	1.12
242.215	0.99
242.595	1.04
242.976	1.03
243.357	1.06
243.738	1.07
244.119	1.27
244.5	1.03
244.881	1.15
245.261	1.08
245.642	1.16
246.023	1.14
246.403	1.19
246.784	1.13
247.164	1.2
247.545	1.32
247.925	1.2
248.306	1.18
248.686	1.43
249.067	1.23
249.447	1.33
249.827	1.44
250.207	1.5
250.588	1.21
250.968	1.28
251.348	1.21
251.728	1.54
252.108	1.3
252.488	1.33
252.868	1.26
253.248	1.28
253.628	1.4
254.008	1.38
254.388	1.37
254.768	1.22
255.147	1.33
255.527	1.36
255.907	1.33
256.287	1.3
256.666	1.44
257.046	1.33
257.425	1.43
257.805	1.32
258.184	1.31
258.564	1.31
258.943	1.31
259.323	1.53
259.702	1.42
260.081	1.4
260.461	1.5
260.84	1.38
261.219	1.55
261.598	1.49
261.977	1.39
262.356	1.38
262.736	1.48
263.115	1.5
263.494	1.38
263.873	1.38
264.251	1.29
264.63	1.53
265.009	1.41
265.388	1.46
265.767	1.29
266.145	1.47
266.524	1.4
266.903	1.47
267.281	1.42
267.66	1.55
268.039	1.42
268.417	1.34
268.796	1.33
269.174	1.43
269.552	1.29
269.931	1.35
270.309	1.24
270.687	1.33
271.066	1.53
271.444	1.27
271.822	1.39
272.2	1.41
272.578	1.5
272.956	1.42
273.334	1.36
273.712	1.39
274.09	1.39
274.468	1.38
274.846	1.42
275.224	1.38
275.602	1.35
275.98	1.55
276.357	1.37
276.735	1.32
277.113	1.31
277.49	1.35
277.868	1.3
278.246	1.43
278.623	1.29
279.001	1.36
279.378	1.25
279.756	1.41
280.133	1.47
280.51	1.32
280.888	1.45
281.265	1.32
281.642	1.46
282.019	1.62
282.396	1.48
282.773	1.36
283.151	1.53
283.528	1.4
283.905	1.34
284.282	1.38
284.659	1.47
285.035	1.38
285.412	1.25
285.789	1.44
286.166	1.44
286.543	1.38
286.919	1.4
287.296	1.36
287.673	1.48
288.049	1.45
288.426	1.59
288.802	1.61
289.179	1.45
289.555	1.63
289.932	1.32
290.308	1.33
290.684	1.36
291.061	1.31
291.437	1.45
291.813	1.38
292.189	1.33
292.565	1.32
292.942	1.2
293.318	1.28
293.694	1.31
294.07	1.28
294.446	1.34
294.822	1.63
295.197	1.4
295.573	1.36
295.949	1.51
296.325	1.38
296.701	1.36
297.076	1.44
297.452	1.46
297.828	1.41
298.203	1.42
298.579	1.24
298.954	1.35
299.33	1.28
299.705	1.33
300.081	1.24
300.456	1.33
300.831	1.21
301.206	1.26
301.582	1.25
301.957	1.18
302.332	1.25
302.707	1.13
303.082	1.12
303.457	1.12
303.832	1.1
304.207	1.06
304.582	1.08
304.957	1.07
305.332	1.08
305.707	0.99
306.082	0.98
306.456	1
306.831	0.94
307.206	0.96
307.58	0.95
307.955	0.88
308.33	0.91
308.704	0.87
309.079	0.88
309.453	0.85
309.828	0.81
310.202	0.83
310.576	0.8
310.951	0.8
311.325	0.79
311.699	0.8
312.073	0.77
312.447	0.75
312.821	0.75
313.196	0.74
313.57	0.72
313.944	0.68
314.317	0.65
314.691	0.7
315.065	0.71
315.439	0.68
315.813	0.66
316.187	0.65
316.56	0.68
316.934	0.65
317.308	0.63
317.681	0.62
318.055	0.61
318.428	0.6
318.802	0.64
319.175	0.6
319.549	0.58
319.922	0.6
320.295	0.6
320.669	0.61
321.042	0.56
321.415	0.62
321.788	0.57
322.162	0.55
322.535	0.56
322.908	0.59
323.281	0.56
323.654	0.57
324.027	0.56
324.4	0.57
324.773	0.57
325.145	0.58
325.518	0.56
325.891	0.56
326.264	0.58
326.636	0.56
327.009	0.58
327.382	0.57
327.754	0.59
328.127	0.59
328.499	0.59
328.872	0.59
329.244	0.6
329.616	0.56
329.989	0.59
330.361	0.61
330.733	0.58
331.106	0.61
331.478	0.6
331.85	0.61
332.222	0.61
332.594	0.64
332.966	0.62
333.338	0.64
333.71	0.66
334.082	0.68
334.454	0.68
334.826	0.69
335.197	0.73
335.569	0.73
335.941	0.74
336.312	0.73
336.684	0.74
337.056	0.77
337.427	0.76
337.799	0.76
338.17	0.79
338.542	0.75
338.913	0.8
339.284	0.81
339.656	0.78
340.027	0.83
340.398	0.84
340.769	0.82
341.141	0.86
341.512	0.89
341.883	0.89
342.254	0.84
342.625	0.88
342.996	0.88
343.367	0.91
343.738	0.93
344.108	0.93
344.479	0.96
344.85	0.93
345.221	0.98
345.591	0.98
345.962	1.05
346.333	0.99
346.703	0.97
347.074	0.98
347.444	1.01
347.815	1.13
348.185	1.07
348.556	1.09
348.926	1.09
349.296	1.12
349.666	1.16
350.037	1.09
350.407	1.06
350.777	1.1
351.147	1.18
351.517	1.19
351.887	1.18
352.257	1.29
352.627	1.14
352.997	1.34
353.367	1.26
353.737	1.38
354.106	1.46
354.476	1.29
354.846	1.3
355.216	1.32
355.585	1.42
355.955	1.41
356.324	1.47
356.694	1.3
357.063	1.37
357.433	1.38
357.802	1.45
358.171	1.51
358.541	1.41
358.91	1.55
359.279	1.59
359.648	1.57
360.017	1.58
360.387	1.45
360.756	1.45
361.125	1.67
361.494	1.65
361.863	1.46
362.231	1.4
362.6	1.57
362.969	1.49
363.338	1.55
363.707	1.64
364.075	1.58
364.444	1.43
364.813	1.51
365.181	1.56
365.55	1.46
365.918	1.57
366.287	1.61
366.655	1.56
367.024	1.54
367.392	1.67
367.76	1.57
368.128	1.69
368.497	1.54
368.865	1.52
369.233	1.42
369.601	1.63
369.969	1.68
370.337	1.64
370.705	1.66
371.073	1.74
371.441	1.44
371.809	1.46
372.177	1.44
372.544	1.6
372.912	1.47
373.28	1.65
373.647	1.54
374.015	1.67
374.383	2.08
374.75	1.68
375.118	1.58
375.485	1.54
375.853	1.61
376.22	1.54
376.587	1.58
376.955	1.51
377.322	1.63
377.689	1.45
378.056	1.58
378.423	1.44
378.79	1.59
379.157	1.57
379.524	1.56
379.891	1.45
380.258	1.49
380.625	1.54
380.992	1.54
381.359	1.58
381.726	1.71
382.092	1.47
382.459	1.47
382.826	1.53
383.192	1.57
383.559	1.52
383.925	1.5
384.292	1.6
384.658	1.64
385.025	1.59
385.391	1.61
385.757	1.47
386.123	1.52
386.49	1.49
386.856	1.49
387.222	1.73
387.588	1.58
387.954	1.84
388.32	1.73
388.686	1.63
389.052	1.55
389.418	1.52
389.784	1.55
390.15	1.69
390.515	1.42
390.881	1.61
391.247	1.45
391.613	1.66
391.978	1.48
392.344	1.58
392.709	1.44
393.075	1.52
393.44	1.7
393.806	1.6
394.171	1.46
394.536	1.46
394.902	1.47
395.267	1.5
395.632	1.59
395.997	1.46
396.362	1.43
396.727	1.59
397.092	1.57
397.457	1.56
397.822	1.46
398.187	1.57
398.552	1.45
398.917	1.48
399.282	1.46
399.646	1.49
400.011	1.73
400.376	1.48
400.74	1.61
401.105	1.45
401.47	1.51
401.834	1.53
402.199	1.5
402.563	1.48
402.927	1.4
403.292	1.55
403.656	1.59
404.02	1.54
404.384	1.75
404.749	1.54
405.113	1.63
405.477	1.71
405.841	1.64
406.205	1.55
406.569	1.55
406.933	1.55
407.296	1.47
407.66	1.53
408.024	1.41
408.388	1.65
408.752	1.66
409.115	1.73
409.479	1.54
409.842	1.46
410.206	1.49
410.569	1.39
410.933	1.61
411.296	1.37
411.66	1.58
412.023	1.47
412.386	1.56
412.749	1.4
413.113	1.57
413.476	1.45
413.839	1.44
414.202	1.45
414.565	1.43
414.928	1.56
415.291	1.39
415.654	1.38
416.017	1.65
416.38	1.46
416.742	1.39
417.105	1.42
417.468	1.53
417.83	1.56
418.193	1.67
418.556	1.52
418.918	1.42
419.281	1.55
419.643	1.58
420.005	1.46
420.368	1.51
420.73	1.4
421.092	1.62
421.455	1.52
421.817	1.48
422.179	1.49
422.541	1.49
422.903	1.65
423.265	1.5
423.627	1.47
423.989	1.5
424.351	1.53
424.713	1.59
425.075	1.47
425.436	1.56
425.798	1.46
426.16	1.47
426.521	1.44
426.883	1.6
427.245	1.56
427.606	1.55
427.967	1.43
428.329	1.41
428.69	1.55
429.052	1.45
429.413	1.53
429.774	1.48
430.135	1.49
430.497	1.65
430.858	1.51
431.219	1.52
431.58	1.47
431.941	1.44
432.302	1.39
432.663	1.45
433.024	1.66
433.384	1.62
433.745	1.41
434.106	1.58
434.467	1.51
434.827	1.51
435.188	1.64
435.548	1.68
435.909	1.52
436.269	1.65
436.63	1.49
436.99	1.51
437.351	1.4
437.711	1.49
438.071	1.38
438.431	1.61
438.792	1.5
439.152	1.47
439.512	1.4
439.872	1.42
440.232	1.53
440.592	1.51
440.952	1.5
441.312	1.41
441.671	1.57
442.031	1.59
442.391	1.45
442.751	1.44
443.11	1.53
443.47	1.39
443.83	1.44
444.189	1.39
444.549	1.48
444.908	1.35
445.267	1.45
445.627	1.45
445.986	1.43
446.345	1.35
446.705	1.45
447.064	1.42
447.423	1.4
447.782	1.43
448.141	1.32
448.5	1.32
448.859	1.33
449.218	1.39
449.577	1.41
449.936	1.44
450.295	1.35
450.653	1.33
451.012	1.34
451.371	1.33
451.729	1.32
452.088	1.4
452.447	1.35
452.805	1.34
453.163	1.35
453.522	1.29
453.88	1.29
454.239	1.26
454.597	1.23
454.955	1.26
455.313	1.24
455.671	1.25
456.029	1.29
456.388	1.23
456.746	1.2
457.104	1.17
457.461	1.16
457.819	1.18
458.177	1.16
458.535	1.12
458.893	1.12
459.25	1.1
459.608	1.1
459.966	1.07
460.323	1.08
460.681	1.05
461.038	1.02
461.396	1
461.753	1.01
462.111	1.01
462.468	0.97
462.825	0.96
463.182	0.95
463.54	0.93
463.897	0.94
464.254	0.94
464.611	0.92
464.968	0.88
465.325	0.88
465.682	0.85
466.039	0.85
466.395	0.84
466.752	0.82
467.109	0.82
467.466	0.8
467.822	0.8
468.179	0.76
468.535	0.76
468.892	0.75
469.248	0.73
469.605	0.73
469.961	0.71
470.318	0.72
470.674	0.68
471.03	0.69
471.386	0.67
471.743	0.66
472.099	0.64
472.455	0.63
472.811	0.62
473.167	0.61
473.523	0.6
473.879	0.58
474.235	0.59
474.59	0.56
474.946	0.56
475.302	0.55
475.657	0.54
476.013	0.53
476.369	0.52
476.724	0.51
477.08	0.51
477.435	0.49
477.791	0.49
478.146	0.48
478.501	0.47
478.857	0.47
479.212	0.45
479.567	0.43
479.922	0.42
480.277	0.41
480.632	0.4
480.987	0.4
481.342	0.39
481.697	0.37
482.052	0.37
482.407	0.37
482.762	0.36
483.116	0.35
483.471	0.34
483.826	0.33
484.18	0.33
484.535	0.31
484.89	0.31
485.244	0.31
485.598	0.3
485.953	0.3
486.307	0.28
486.661	0.28
487.016	0.27
487.37	0.27
487.724	0.26
488.078	0.26
488.432	0.25
488.786	0.24
489.14	0.24
489.494	0.23
489.848	0.22
490.202	0.22
490.556	0.21
490.91	0.22
491.263	0.2
491.617	0.21
491.971	0.2
492.324	0.19
492.678	0.19
493.031	0.19
493.385	0.19
493.738	0.18
494.091	0.18
494.445	0.17
494.798	0.17
495.151	0.17
495.504	0.16
495.857	0.16
496.21	0.16
496.564	0.15
496.916	0.16
497.269	0.14
497.622	0.15
497.975	0.14
498.328	0.14
498.681	0.13
499.033	0.13
499.386	0.12
499.739	0.12
500.091	0.12
500.444	0.12
500.796	0.11
501.149	0.11
501.501	0.11
501.854	0.1
502.206	0.11
502.558	0.1
502.91	0.1
503.263	0.1
503.615	0.1
503.967	0.09
504.319	0.1
504.671	0.09
505.023	0.08
505.375	0.09
505.726	0.09
506.078	0.09
506.43	0.08
506.782	0.08
507.133	0.08
507.485	0.08
507.837	0.09
508.188	0.08
508.54	0.08
508.891	0.09
509.243	0.07
509.594	0.07
509.945	0.07
510.296	0.07
510.648	0.07
510.999	0.06
511.35	0.07
511.701	0.07
512.052	0.07
512.403	0.07
512.754	0.07
513.105	0.06
513.456	0.06
513.807	0.05
514.157	0.07
514.508	0.06
514.859	0.05
515.209	0.06
515.56	0.05
515.91	0.05
516.261	0.06
516.611	0.05
516.962	0.05
517.312	0.06
517.662	0.06
518.013	0.05
518.363	0.06
518.713	0.05
519.063	0.06
519.413	0.05
519.763	0.05
520.113	0.06
520.463	0.05
520.813	0.06
521.163	0.06
521.512	0.05
521.862	0.05
522.212	0.05
522.562	0.05
522.911	0.05
523.261	0.05
523.61	0.05
523.96	0.04
524.309	0.06
524.658	0.05
525.008	0.05
525.357	0.05
525.706	0.06
526.056	0.04
526.405	0.04
526.754	0.05
527.103	0.04
527.452	0.04
527.801	0.05
528.15	0.05
528.499	0.05
528.847	0.05
529.196	0.05
529.545	0.06
529.893	0.05
530.242	0.05
530.591	0.05
530.939	0.05
531.288	0.05
531.636	0.05
531.985	0.05
532.333	0.05
532.681	0.05
533.029	0.05
533.378	0.05
533.726	0.04
534.074	0.05
534.422	0.04
534.77	0.05
535.118	0.04
535.466	0.05
535.814	0.05
536.162	0.04
536.509	0.05
536.857	0.05
537.205	0.05
537.552	0.05
537.9	0.04
538.248	0.05
538.595	0.05
538.943	0.05
539.29	0.05
539.637	0.05
539.985	0.05
540.332	0.04
540.679	0.05
541.026	0.04
541.373	0.05
541.721	0.04
542.068	0.04
542.415	0.05
542.762	0.04
543.108	0.03
543.455	0.04
543.802	0.04
544.149	0.04
544.496	0.04
544.842	0.04
545.189	0.03
545.535	0.04
545.882	0.03
546.228	0.03
546.575	0.02
546.921	0.02
547.267	0.03
547.614	0.03
547.96	0.03
548.306	0.03
548.652	0.03
548.998	0.03
549.344	0.03
549.69	0.03
550.036	0.03
550.382	0.03
550.728	0.03
551.074	0.04
551.42	0.04
551.765	0.04
552.111	0.04
552.457	0.04
552.802	0.04
553.148	0.03
553.493	0.03
553.839	0.04
554.184	0.04
554.529	0.04
554.875	0.04
555.22	0.04
555.565	0.03
555.91	0.04
556.255	0.05
556.6	0.04
556.945	0.03
557.29	0.03
557.635	0.04
557.98	0.04
558.325	0.04
558.67	0.04
559.014	0.04
559.359	0.04
559.704	0.04
560.048	0.03
560.393	0.03
560.737	0.03
561.082	0.03
561.426	0.02
561.77	0.04
562.115	0.03
562.459	0.03
562.803	0.03
563.147	0.03
563.491	0.04
563.835	0.04
564.179	0.03
564.523	0.04
564.867	0.03
565.211	0.03
565.555	0.03
565.899	0.04
566.242	0.03
566.586	0.03
566.93	0.03
567.273	0.04
567.617	0.04
567.96	0.04
568.304	0.04
568.647	0.03
568.99	0.04
569.334	0.04
569.677	0.03
570.02	0.04
570.363	0.04
570.706	0.04
571.049	0.04
571.392	0.04
571.735	0.03
572.078	0.04
572.421	0.04
572.764	0.04
573.106	0.04
573.449	0.04
573.792	0.04
574.134	0.04
574.477	0.04
574.819	0.03
575.162	0.03
575.504	0.03
575.847	0.03
576.189	0.03
576.531	0.04
576.873	0.03
577.215	0.03
577.558	0.04
577.9	0.03
578.242	0.03
578.584	0.03
578.926	0.04
579.267	0.03
579.609	0.04
579.951	0.03
580.293	0.03
580.634	0.03
580.976	0.04
581.318	0.03
581.659	0.03
582.001	0.04
582.342	0.03
582.683	0.04
583.025	0.03
583.366	0.03
583.707	0.04
584.049	0.03
584.39	0.03
584.731	0.03
585.072	0.03
585.413	0.04
585.754	0.03
586.095	0.04
586.435	0.03
586.776	0.04
587.117	0.03
587.458	0.03
587.798	0.03
588.139	0.03
588.48	0.03
588.82	0.03
589.161	0.03
589.501	0.03
589.841	0.04
590.182	0.03
590.522	0.03
590.862	0.03
591.202	0.03
591.542	0.03
591.882	0.03
592.222	0.03
592.562	0.03
592.902	0.03
593.242	0.03
593.582	0.04
593.922	0.03
594.261	0.02
594.601	0.03
594.941	0.03
595.28	0.03
595.62	0.03
595.959	0.03
596.299	0.02
596.638	0.03
596.977	0.03
597.317	0.04
597.656	0.03
597.995	0.03
598.334	0.04
598.673	0.03
599.012	0.03
599.351	0.04
599.69	0.03
600.029	0.05
600.368	0.04
600.707	0.04
601.046	0.04
601.384	0.04
601.723	0.04
602.061	0.03
602.4	0.04
602.738	0.04
603.077	0.04
603.415	0.04
603.754	0.04
604.092	0.04
604.43	0.03
604.768	0.03
605.107	0.04
605.445	0.03
605.783	0.03
606.121	0.04
606.459	0.03
606.796	0.04
607.134	0.03
607.472	0.03
607.81	0.04
608.148	0.03
608.485	0.04
608.823	0.03
609.16	0.03
609.498	0.03
609.835	0.04
610.173	0.03
610.51	0.04
610.847	0.04
611.185	0.04
611.522	0.04
611.859	0.04
612.196	0.04
612.533	0.04
612.87	0.04
613.207	0.04
613.544	0.04
613.881	0.05
614.217	0.04
614.554	0.04
614.891	0.04
615.228	0.04
615.564	0.05
615.901	0.04
616.237	0.04
616.574	0.04
616.91	0.05
617.246	0.04
617.583	0.05
617.919	0.05
618.255	0.05
618.591	0.04
618.927	0.05
619.263	0.04
619.599	0.05
619.935	0.05
620.271	0.05
620.607	0.04
620.943	0.05
621.279	0.05
621.614	0.05
621.95	0.05
622.286	0.04
622.621	0.04
622.957	0.04
623.292	0.04
623.627	0.04
623.963	0.04
624.298	0.04
624.633	0.04
624.968	0.04
625.304	0.04
625.639	0.03
625.974	0.04
626.309	0.04
626.644	0.04
626.979	0.04
627.313	0.04
627.648	0.04
627.983	0.05
628.318	0.04
628.652	0.04
628.987	0.04
629.321	0.04
629.656	0.03
629.99	0.04
630.325	0.04
630.659	0.03
630.993	0.03
631.327	0.03
631.662	0.03
631.996	0.03
632.33	0.03
632.664	0.03
632.998	0.03
633.332	0.03
633.666	0.03
633.999	0.03
634.333	0.03
634.667	0.03
635.001	0.03
635.334	0.03
635.668	0.02
636.001	0.03
636.335	0.03
636.668	0.03
637.001	0.02
637.335	0.03
637.668	0.03
638.001	0.02
638.334	0.02
638.668	0.03
639.001	0.03
639.334	0.03
639.667	0.03
639.999	0.03
640.332	0.03
640.665	0.03
640.998	0.03
641.331	0.03
641.663	0.02
641.996	0.03
642.328	0.04
642.661	0.03
642.993	0.03
643.326	0.04
643.658	0.03
643.99	0.03
644.323	0.03
644.655	0.04
644.987	0.04
645.319	0.05
645.651	0.04
645.983	0.04
646.315	0.03
646.647	0.04
646.979	0.05
647.31	0.04
647.642	0.04
647.974	0.04
648.305	0.05
648.637	0.04
648.968	0.04
649.3	0.04
649.631	0.04
649.963	0.03
650.294	0.04
650.625	0.04
650.957	0.05
651.288	0.05
651.619	0.04
651.95	0.04
652.281	0.04
652.612	0.04
652.943	0.04
653.274	0.04
653.604	0.04
653.935	0.04
654.266	0.04
654.596	0.04
654.927	0.04
655.258	0.04
655.588	0.05
655.918	0.05
656.249	0.02
656.579	0.03
656.909	0.04
657.24	0.04
657.57	0.04
657.9	0.03
658.23	0.04
658.56	0.04
658.89	0.04
659.22	0.04
659.55	0.04
659.88	0.04
660.209	0.04
660.539	0.05
660.869	0.04
661.198	0.04
661.528	0.04
661.857	0.04
662.187	0.04
662.516	0.05
662.846	0.04
663.175	0.04
663.504	0.04
663.833	0.04
664.163	0.04
664.492	0.03
664.821	0.04
665.15	0.04
665.479	0.04
665.807	0.04
666.136	0.04
666.465	0.04
666.794	0.04
667.122	0.04
667.451	0.04
667.78	0.05
668.108	0.05
668.437	0.04
668.765	0.05
669.093	0.05
669.422	0.05
669.75	0.05
670.078	0.04
670.406	0.05
670.734	0.05
671.062	0.05
671.39	0.04
671.718	0.05
672.046	0.04
672.374	0.04
672.702	0.04
673.029	0.04
673.357	0.05
673.685	0.05
674.012	0.05
674.34	0.05
674.667	0.05
674.995	0.04
675.322	0.05
675.649	0.05
675.977	0.05
676.304	0.05
676.631	0.05
676.958	0.04
677.285	0.04
677.612	0.04
677.939	0.04
678.266	0.05
678.593	0.04
678.92	0.05
679.246	0.04
679.573	0.05
679.9	0.04
680.226	0.05
680.553	0.04
680.879	0.04
681.206	0.05
681.532	0.04
681.858	0.04
682.184	0.05
682.511	0.05
682.837	0.04
683.163	0.05
683.489	0.05
683.815	0.04
684.141	0.04
684.467	0.04
684.793	0.04
685.118	0.05
685.444	0.05
685.77	0.04
686.095	0.05
686.421	0.05
686.746	0.04
687.072	0.05
687.397	0.04
687.723	0.05
688.048	0.05
688.373	0.04
688.698	0.04
689.023	0.04
689.349	0.04
689.674	0.04
689.999	0.04
690.323	0.03
690.648	0.03
690.973	0.03
691.298	0.03
691.623	0.03
691.947	0.04
692.272	0.03
692.596	0.03
692.921	0.05
693.245	0.04
693.57	0.04
693.894	0.05
694.218	0.05
694.543	0.04
694.867	0.05
695.191	0.04
695.515	0.04
695.839	0.04
696.163	0.05
696.487	0.05
696.811	0.04
697.135	0.05
697.458	0.05
697.782	0.04
698.106	0.05
698.429	0.05
698.753	0.04
699.076	0.05
699.4	0.04
699.723	0.05
700.046	0.04
700.37	0.05
700.693	0.04
701.016	0.05
701.339	0.04
701.662	0.05
701.985	0.05
702.308	0.04
702.631	0.05
702.954	0.05
703.277	0.04
703.599	0.04
703.922	0.04
704.245	0.03
704.567	0.04
704.89	0.04
705.212	0.04
705.535	0.03
705.857	0.04
706.179	0.03
706.502	0.04
706.824	0.03
707.146	0.04
707.468	0.04
707.79	0.03
708.112	0.04
708.434	0.04
708.756	0.04
709.078	0.04
709.399	0.04
709.721	0.04
710.043	0.05
710.364	0.04
710.686	0.04
711.007	0.04
711.329	0.05
711.65	0.04
711.972	0.05
712.293	0.05
712.614	0.05
712.935	0.04
713.256	0.04
713.577	0.05
713.898	0.04
714.219	0.05
714.54	0.04
714.861	0.04
715.182	0.05
715.503	0.04
715.823	0.05
716.144	0.04
716.464	0.03
716.785	0.04
717.105	0.04
717.426	0.04
717.746	0.03
718.066	0.03
718.387	0.03
718.707	0.03
719.027	0.04
719.347	0.04
719.667	0.03
719.987	0.03
720.307	0.03
720.627	0.03
720.947	0.03
721.266	0.03
721.586	0.03
721.906	0.03
722.225	0.03
722.545	0.03
722.864	0.03
723.184	0.05
723.503	0.04
723.823	0.04
724.142	0.03
724.461	0.04
724.78	0.04
725.099	0.04
725.418	0.04
725.737	0.03
726.056	0.05
726.375	0.04
726.694	0.04
727.013	0.04
727.331	0.03
727.65	0.04
727.969	0.04
728.287	0.05
728.606	0.04
728.924	0.03
729.242	0.04
729.561	0.04
729.879	0.03
730.197	0.04
730.515	0.03
730.834	0.03
731.152	0.03
731.47	0.04
731.788	0.04
732.105	0.03
732.423	0.04
732.741	0.04
733.059	0.04
733.376	0.04
733.694	0.04
734.012	0.04
734.329	0.04
734.647	0.04
734.964	0.05
735.281	0.05
735.599	0.05
735.916	0.05
736.233	0.04
736.55	0.04
736.867	0.05
737.184	0.05
737.501	0.05
737.818	0.05
738.135	0.05
738.452	0.05
738.768	0.05
739.085	0.04
739.402	0.04
739.718	0.04
740.035	0.05
740.351	0.05
740.668	0.05
740.984	0.05
741.3	0.04
741.617	0.04
741.933	0.05
742.249	0.05
742.565	0.04
742.881	0.04
743.197	0.05
743.513	0.03
743.829	0.03
744.144	0.03
744.46	0.04
744.776	0.04
745.091	0.04
745.407	0.04
745.722	0.04
746.038	0.04
746.353	0.04
746.669	0.05
746.984	0.04
747.299	0.04
747.614	0.04
747.93	0.04
748.245	0.04
748.56	0.04
748.875	0.04
749.189	0.04
749.504	0.04
749.819	0.04
750.134	0.03
750.448	0.03
750.763	0.03
751.078	0.02
751.392	0.03
751.707	0.04
752.021	0.04
752.335	0.04
752.65	0.05
752.964	0.04
753.278	0.04
753.592	0.04
753.906	0.04
754.22	0.04
754.534	0.04
754.848	0.04
755.162	0.04
755.476	0.05
755.789	0.04
756.103	0.03
756.417	0.04
756.73	0.04
757.044	0.04
757.357	0.04
757.671	0.04
757.984	0.05
758.297	0.05
758.61	0.04
758.924	0.04
759.237	0.03
759.55	0.04
759.863	0.04
760.176	0.04
760.488	0.04
760.801	0.04
761.114	0.04
761.427	0.04
761.739	0.04
762.052	0.03
762.365	0.04
762.677	0.04
762.99	0.03
763.302	0.04
763.614	0.04
763.926	0.04
764.239	0.04
764.551	0.04
764.863	0.04
765.175	0.05
765.487	0.04
765.799	0.03
766.111	0.03
766.423	0.04
766.734	0.04
767.046	0.03
767.358	0.04
767.669	0.04
767.981	0.04
768.292	0.04
768.604	0.04
768.915	0.04
769.226	0.04
769.537	0.03
769.849	0.05
770.16	0.03
770.471	0.03
770.782	0.03
771.093	0.03
771.404	0.02
771.715	0.03
772.025	0.04
772.336	0.04
772.647	0.03
772.957	0.03
773.268	0.04
773.578	0.03
773.889	0.04
774.199	0.04
774.51	0.03
774.82	0.04
775.13	0.04
775.44	0.04
775.75	0.04
776.06	0.04
776.37	0.04
776.68	0.05
776.99	0.05
777.3	0.04
777.61	0.05
777.92	0.04
778.229	0.04
778.539	0.04
778.848	0.05
779.158	0.05
779.467	0.05
779.777	0.05
780.086	0.05
780.395	0.05
780.704	0.04
781.013	0.03
781.323	0.03
781.632	0.05
781.941	0.04
782.249	0.04
782.558	0.04
782.867	0.04
783.176	0.04
783.485	0.03
783.793	0.04
784.102	0.04
784.41	0.04
784.719	0.04
785.027	0.04
785.335	0.04
785.644	0.05
785.952	0.05
786.26	0.04
786.568	0.03
786.876	0.03
787.184	0.04
787.492	0.04
787.8	0.04
788.108	0.04
788.416	0.04
788.723	0.04
789.031	0.04
789.338	0.04
789.646	0.04
789.953	0.04
790.261	0.05
790.568	0.05
790.876	0.04
791.183	0.05
791.49	0.04
791.797	0.05
792.104	0.03
792.411	0.04
792.718	0.04
793.025	0.05
793.332	0.04
793.639	0.04
793.945	0.05
794.252	0.05
794.559	0.04
794.865	0.05
795.172	0.05
795.478	0.04
795.784	0.04
796.091	0.04
796.397	0.05
796.703	0.05
797.009	0.05
797.315	0.05
797.622	0.05
797.927	0.05
798.233	0.04
798.539	0.05
798.845	0.05
799.151	0.05
799.456	0.05
799.762	0.05
800.068	0.05
800.373	0.05
800.679	0.04
800.984	0.05
801.289	0.05
801.595	0.04
801.9	0.05
802.205	0.05
802.51	0.05
802.815	0.05
803.12	0.05
803.425	0.05
803.73	0.04
804.035	0.04
804.339	0.04
804.644	0.05
804.949	0.05
805.253	0.05
805.558	0.05
805.862	0.04
806.167	0.04
806.471	0.04
806.775	0.05
807.08	0.05
807.384	0.04
807.688	0.04
807.992	0.05
808.296	0.05
808.6	0.05
808.904	0.05
809.207	0.04
809.511	0.06
809.815	0.06
810.119	0.05
810.422	0.06
810.726	0.06
811.029	0.06
811.332	0.06
811.636	0.06
811.939	0.04
812.242	0.05
812.546	0.06
812.849	0.06
813.152	0.05
813.455	0.06
813.758	0.05
814.06	0.05
814.363	0.06
814.666	0.06
814.969	0.06
815.271	0.05
815.574	0.05
815.877	0.05
816.179	0.05
816.481	0.04
816.784	0.05
817.086	0.05
817.388	0.03
817.69	0.03
817.993	0.04
818.295	0.04
818.597	0.04
818.899	0.03
819.2	0.03
819.502	0.03
819.804	0.04
820.106	0.04
820.407	0.02
820.709	0.03
821.01	0.05
821.312	0.04
821.613	0.03
821.915	0.04
822.216	0.03
822.517	0.03
822.818	0.03
823.119	0.03
823.42	0.04
823.721	0.03
824.022	0.03
824.323	0.03
824.624	0.04
824.925	0.04
825.226	0.04
825.526	0.03
825.827	0.04
826.127	0.03
826.428	0.04
826.728	0.03
827.028	0.02
827.329	0.03
827.629	0.02
827.929	0.03
828.229	0.03
828.529	0.03
828.829	0.03
829.129	0.03
829.429	0.02
829.729	0.03
830.029	0.03
830.328	0.03
830.628	0.02
830.927	0.02
831.227	0.03
831.526	0.03
831.826	0.02
832.125	0.03
832.424	0.02
832.724	0.02
833.023	0.02
833.322	0.03
833.621	0.03
833.92	0.01
834.219	0.02
834.518	0.03
834.816	0.01
835.115	0.02
835.414	0.02
835.712	0.01
836.011	0.01
836.309	0.02
836.608	0.01
836.906	0.01
837.205	-0.01
837.503	0
837.801	-0
838.099	-0.01
838.397	-0.01
838.695	-0
838.993	-0.01
839.291	-0.01
839.589	-0.01
839.887	-0.01
840.184	-0.01
840.482	-0.01
840.78	-0.01
841.077	-0.01
841.375	-0.01
841.672	-0.01
841.969	-0.02
842.267	-0.01
842.564	-0.02
842.861	-0.01
843.158	-0.02
843.455	-0.03
843.752	-0.02
844.049	-0.02
844.346	-0.01
844.643	-0.03
844.94	-0.03
845.236	-0.01
845.533	-0.02
845.83	-0.02
846.126	-0.02
846.423	-0.03
846.719	-0.03
847.015	-0.03
847.312	-0.04
847.608	-0.03
847.904	-0.04
848.2	-0.04
848.496	-0.04
848.792	-0.04
849.088	-0.03
849.384	-0.05
849.68	-0.06
849.975	-0.04
850.271	-0.05
850.567	-0.05
850.862	-0.05
851.158	-0.05
851.453	-0.06
851.748	-0.07
852.044	-0.05
852.339	-0.05
852.634	-0.06
852.929	-0.05
853.224	-0.06
853.519	-0.06
853.814	-0.05
854.109	-0.06
854.404	-0.06
854.699	-0.07
854.994	-0.05
855.288	-0.05
855.583	-0.05
855.877	-0.07
856.172	-0.06
856.466	-0.07
856.76	-0.06
857.055	-0.06
857.349	-0.07
857.643	-0.07
857.937	-0.08
858.231	-0.08
858.525	-0.08
858.819	-0.08
859.113	-0.1
859.407	-0.1
859.701	-0.1
859.994	-0.09
860.288	-0.09
860.581	-0.09
860.875	-0.09
861.168	-0.1
861.462	-0.1
861.755	-0.1
862.048	-0.11
862.341	-0.1
862.634	-0.11
862.928	-0.1
863.221	-0.11
863.513	-0.12
863.806	-0.11
864.099	-0.12
864.392	-0.11
864.685	-0.11
864.977	-0.11
865.27	-0.12
865.562	-0.12
865.855	-0.11
866.147	-0.12
866.44	-0.11
866.732	-0.12
867.024	-0.13
867.316	-0.12
867.608	-0.13
867.9	-0.12
868.192	-0.13
868.484	-0.12
868.776	-0.13
869.068	-0.13
869.359	-0.13
869.651	-0.13
869.943	-0.16
870.234	-0.14
870.526	-0.15
870.817	-0.16
871.108	-0.13
871.4	-0.14
871.691	-0.13
871.982	-0.15
872.273	-0.15
872.564	-0.15
872.855	-0.16
873.146	-0.15
873.437	-0.16
873.728	-0.16
874.019	-0.16
874.309	-0.16
874.6	-0.16
874.89	-0.17
875.181	-0.16
875.471	-0.16
875.762	-0.16
876.052	-0.15
876.342	-0.15
876.632	-0.17
876.922	-0.17
877.213	-0.17
877.503	-0.18
877.792	-0.18
878.082	-0.19
878.372	-0.16
878.662	-0.19
878.952	-0.18
879.241	-0.16
879.531	-0.16
879.82	-0.16
880.11	-0.16
880.399	-0.17
880.688	-0.16
880.978	-0.16
881.267	-0.16
