Data from 12-12-AQDScycling_Absorbance__174__00174.txt Node

Date: Tue Dec 12 11:40:14 EST 2023
User: kyuminlee
Spectrometer: FLMS00943
Trigger mode: 0
Integration Time (sec): 1.000000E-1
Scans to average: 1
Electric dark correction enabled: true
Nonlinearity correction enabled: false
Boxcar width: 0
XAxis mode: Wavelengths
Number of Pixels in Spectrum: 2048
>>>>>Begin Spectral Data<<<<<
179.651	-0
180.037	-0
180.424	-0
180.81	0.13
181.197	0.38
181.583	-0
181.97	-0.51
182.356	-0.67
182.743	-1.07
183.129	-0.11
183.515	0.18
183.901	-0
184.288	0.4
184.674	-0
185.06	-0
185.446	-0
185.832	-0.03
186.218	0.35
186.604	-0
186.99	-0
187.376	-0.32
187.762	-0
188.148	0.7
188.534	-0
188.92	0.12
189.305	0.33
189.691	0.21
190.077	0.15
190.463	0.17
190.848	0.09
191.234	0.13
191.619	0.14
192.005	0.11
192.391	0.26
192.776	0.21
193.161	0.25
193.547	0.19
193.932	0.19
194.318	0.04
194.703	0.35
195.088	0.26
195.473	0.24
195.859	0.16
196.244	0.33
196.629	0.19
197.014	0.25
197.399	0.16
197.784	0.22
198.169	0.13
198.554	0.2
198.939	0.22
199.324	0.23
199.709	0.13
200.094	0.08
200.478	0.14
200.863	0.21
201.248	0.3
201.633	0.16
202.017	0.18
202.402	0.27
202.787	0.18
203.171	0.12
203.556	0.26
203.94	0.22
204.325	0.24
204.709	0.25
205.093	0.15
205.478	0.06
205.862	0.26
206.246	0.25
206.631	0.12
207.015	0.16
207.399	0.18
207.783	0.24
208.167	0.24
208.551	0.19
208.935	0.13
209.319	0.14
209.703	0.14
210.087	0.34
210.471	0.29
210.855	0.09
211.239	0.21
211.623	0.57
212.007	0.4
212.39	0.27
212.774	0.29
213.158	0.14
213.541	0.33
213.925	0.2
214.309	0.29
214.692	0.35
215.076	0.12
215.459	0.31
215.842	0.16
216.226	0.19
216.609	0.26
216.993	0.15
217.376	0.38
217.759	0.17
218.142	0.31
218.525	0.71
218.909	0.4
219.292	0.34
219.675	0.41
220.058	0.57
220.441	0.71
220.824	0.49
221.207	0.66
221.59	0.46
221.973	0.51
222.355	0.72
222.738	0.84
223.121	0.68
223.504	0.61
223.886	0.71
224.269	0.66
224.652	0.64
225.034	0.87
225.417	0.72
225.799	0.74
226.182	0.85
226.564	1.17
226.947	0.73
227.329	0.76
227.711	1
228.094	1.03
228.476	0.91
228.858	0.89
229.24	0.76
229.623	0.99
230.005	1.01
230.387	1
230.769	0.9
231.151	1.08
231.533	0.87
231.915	0.97
232.297	1.07
232.679	1
233.061	1.16
233.442	0.95
233.824	0.95
234.206	1.14
234.588	1.19
234.969	1.11
235.351	1.04
235.733	1.08
236.114	1.22
236.496	1
236.877	1.25
237.259	1.11
237.64	1.04
238.022	1.06
238.403	0.99
238.784	1.08
239.165	0.98
239.547	1.13
239.928	1.13
240.309	1.08
240.69	1.13
241.071	1.2
241.452	1.21
241.834	1.03
242.215	1.15
242.595	1.05
242.976	1.09
243.357	1.19
243.738	1.1
244.119	1.48
244.5	1.33
244.881	1.18
245.261	1.24
245.642	1.3
246.023	1.13
246.403	1.15
246.784	1.36
247.164	1.41
247.545	1.3
247.925	1.37
248.306	1.19
248.686	1.47
249.067	1.25
249.447	1.53
249.827	1.38
250.207	1.55
250.588	1.28
250.968	1.48
251.348	1.39
251.728	1.56
252.108	1.3
252.488	1.5
252.868	1.37
253.248	1.32
253.628	1.45
254.008	1.45
254.388	1.29
254.768	1.47
255.147	1.51
255.527	1.52
255.907	1.44
256.287	1.29
256.666	1.44
257.046	1.41
257.425	1.65
257.805	1.42
258.184	1.32
258.564	1.42
258.943	1.42
259.323	1.47
259.702	1.68
260.081	1.46
260.461	1.55
260.84	1.42
261.219	1.67
261.598	1.6
261.977	1.69
262.356	1.5
262.736	1.53
263.115	1.75
263.494	1.46
263.873	1.42
264.251	1.48
264.63	1.42
265.009	1.35
265.388	1.52
265.767	1.47
266.145	1.47
266.524	1.62
266.903	1.56
267.281	1.47
267.66	1.56
268.039	1.42
268.417	1.53
268.796	1.35
269.174	1.46
269.552	1.35
269.931	1.41
270.309	1.3
270.687	1.8
271.066	1.67
271.444	1.39
271.822	1.48
272.2	1.59
272.578	1.37
272.956	1.44
273.334	1.47
273.712	1.44
274.09	1.54
274.468	1.41
274.846	1.32
275.224	1.35
275.602	1.44
275.98	1.95
276.357	1.38
276.735	1.67
277.113	1.44
277.49	1.32
277.868	1.26
278.246	1.62
278.623	1.3
279.001	1.4
279.378	1.42
279.756	1.73
280.133	1.61
280.51	1.45
280.888	1.43
281.265	1.42
281.642	1.43
282.019	1.61
282.396	1.59
282.773	1.46
283.151	1.57
283.528	1.6
283.905	1.43
284.282	1.5
284.659	1.6
285.035	1.44
285.412	1.31
285.789	1.45
286.166	1.36
286.543	1.51
286.919	1.54
287.296	1.43
287.673	1.57
288.049	1.67
288.426	1.7
288.802	1.58
289.179	1.51
289.555	1.73
289.932	1.53
290.308	1.42
290.684	1.41
291.061	1.43
291.437	1.78
291.813	1.39
292.189	1.29
292.565	1.3
292.942	1.39
293.318	1.38
293.694	1.71
294.07	1.32
294.446	1.45
294.822	1.65
295.197	1.38
295.573	1.47
295.949	1.49
296.325	1.49
296.701	1.55
297.076	1.54
297.452	1.55
297.828	1.41
298.203	1.57
298.579	1.37
298.954	1.42
299.33	1.48
299.705	1.44
300.081	1.56
300.456	1.59
300.831	1.41
301.206	1.42
301.582	1.56
301.957	1.37
302.332	1.51
302.707	1.34
303.082	1.31
303.457	1.47
303.832	1.44
304.207	1.41
304.582	1.49
304.957	1.37
305.332	1.46
305.707	1.35
306.082	1.36
306.456	1.43
306.831	1.29
307.206	1.37
307.58	1.37
307.955	1.35
308.33	1.25
308.704	1.35
309.079	1.31
309.453	1.4
309.828	1.36
310.202	1.29
310.576	1.26
310.951	1.37
311.325	1.32
311.699	1.29
312.073	1.29
312.447	1.29
312.821	1.27
313.196	1.36
313.57	1.22
313.944	1.29
314.317	1.23
314.691	1.35
315.065	1.39
315.439	1.39
315.813	1.38
316.187	1.28
316.56	1.47
316.934	1.37
317.308	1.32
317.681	1.41
318.055	1.34
318.428	1.33
318.802	1.38
319.175	1.42
319.549	1.37
319.922	1.34
320.295	1.31
320.669	1.41
321.042	1.32
321.415	1.45
321.788	1.36
322.162	1.27
322.535	1.35
322.908	1.37
323.281	1.38
323.654	1.37
324.027	1.22
324.4	1.38
324.773	1.3
325.145	1.36
325.518	1.34
325.891	1.36
326.264	1.44
326.636	1.27
327.009	1.25
327.382	1.31
327.754	1.41
328.127	1.35
328.499	1.38
328.872	1.38
329.244	1.49
329.616	1.38
329.989	1.42
330.361	1.43
330.733	1.4
331.106	1.28
331.478	1.48
331.85	1.32
332.222	1.37
332.594	1.45
332.966	1.43
333.338	1.51
333.71	1.47
334.082	1.54
334.454	1.33
334.826	1.41
335.197	1.49
335.569	1.39
335.941	1.26
336.312	1.44
336.684	1.35
337.056	1.34
337.427	1.5
337.799	1.44
338.17	1.38
338.542	1.37
338.913	1.48
339.284	1.41
339.656	1.39
340.027	1.49
340.398	1.4
340.769	1.34
341.141	1.55
341.512	1.42
341.883	1.54
342.254	1.4
342.625	1.34
342.996	1.31
343.367	1.41
343.738	1.33
344.108	1.33
344.479	1.51
344.85	1.31
345.221	1.44
345.591	1.33
345.962	1.32
346.333	1.33
346.703	1.25
347.074	1.31
347.444	1.2
347.815	1.28
348.185	1.26
348.556	1.31
348.926	1.29
349.296	1.34
349.666	1.36
350.037	1.22
350.407	1.22
350.777	1.46
351.147	1.37
351.517	1.39
351.887	1.31
352.257	1.43
352.627	1.25
352.997	1.28
353.367	1.36
353.737	1.45
354.106	1.42
354.476	1.32
354.846	1.42
355.216	1.45
355.585	1.47
355.955	1.38
356.324	1.46
356.694	1.37
357.063	1.35
357.433	1.36
357.802	1.4
358.171	1.47
358.541	1.35
358.91	1.41
359.279	1.5
359.648	1.43
360.017	1.51
360.387	1.45
360.756	1.34
361.125	1.42
361.494	1.67
361.863	1.49
362.231	1.4
362.6	1.34
362.969	1.5
363.338	1.37
363.707	1.62
364.075	1.45
364.444	1.38
364.813	1.49
365.181	1.35
365.55	1.4
365.918	1.42
366.287	1.44
366.655	1.49
367.024	1.44
367.392	1.5
367.76	1.46
368.128	1.43
368.497	1.45
368.865	1.48
369.233	1.46
369.601	1.44
369.969	1.44
370.337	1.52
370.705	1.47
371.073	1.46
371.441	1.41
371.809	1.27
372.177	1.43
372.544	1.49
372.912	1.54
373.28	1.47
373.647	1.57
374.015	1.61
374.383	1.6
374.75	1.65
375.118	1.58
375.485	1.56
375.853	1.55
376.22	1.62
376.587	1.56
376.955	1.71
377.322	1.58
377.689	1.52
378.056	1.58
378.423	1.5
378.79	1.56
379.157	1.52
379.524	1.52
379.891	1.5
380.258	1.61
380.625	1.55
380.992	1.5
381.359	1.53
381.726	2.1
382.092	1.54
382.459	1.67
382.826	1.62
383.192	1.59
383.559	1.53
383.925	1.5
384.292	1.51
384.658	1.64
385.025	1.56
385.391	1.57
385.757	1.49
386.123	1.71
386.49	1.53
386.856	1.69
387.222	1.63
387.588	1.57
387.954	1.94
388.32	1.77
388.686	1.55
389.052	1.66
389.418	1.55
389.784	1.55
390.15	1.69
390.515	1.39
390.881	1.83
391.247	1.5
391.613	1.71
391.978	1.52
392.344	1.71
392.709	1.52
393.075	1.63
393.44	1.65
393.806	1.58
394.171	1.73
394.536	1.56
394.902	1.54
395.267	1.63
395.632	1.48
395.997	1.39
396.362	1.39
396.727	1.55
397.092	1.61
397.457	1.6
397.822	1.54
398.187	1.55
398.552	1.65
398.917	1.62
399.282	1.56
399.646	1.54
400.011	1.67
400.376	1.51
400.74	1.5
401.105	1.58
401.47	1.63
401.834	1.56
402.199	1.49
402.563	1.6
402.927	1.51
403.292	1.64
403.656	1.64
404.02	1.62
404.384	1.65
404.749	1.73
405.113	1.53
405.477	1.55
405.841	1.56
406.205	1.65
406.569	1.55
406.933	1.38
407.296	1.47
407.66	1.47
408.024	1.57
408.388	1.66
408.752	1.52
409.115	1.58
409.479	1.45
409.842	1.4
410.206	1.42
410.569	1.51
410.933	1.47
411.296	1.4
411.66	1.49
412.023	1.35
412.386	1.52
412.749	1.35
413.113	1.55
413.476	1.44
413.839	1.35
414.202	1.54
414.565	1.36
414.928	1.43
415.291	1.36
415.654	1.48
416.017	1.46
416.38	1.4
416.742	1.34
417.105	1.3
417.468	1.29
417.83	1.37
418.193	1.63
418.556	1.39
418.918	1.37
419.281	1.36
419.643	1.34
420.005	1.41
420.368	1.4
420.73	1.34
421.092	1.42
421.455	1.39
421.817	1.29
422.179	1.31
422.541	1.32
422.903	1.37
423.265	1.37
423.627	1.35
423.989	1.38
424.351	1.32
424.713	1.31
425.075	1.34
425.436	1.38
425.798	1.38
426.16	1.37
426.521	1.37
426.883	1.41
427.245	1.3
427.606	1.29
427.967	1.27
428.329	1.29
428.69	1.36
429.052	1.22
429.413	1.4
429.774	1.35
430.135	1.36
430.497	1.34
430.858	1.27
431.219	1.23
431.58	1.28
431.941	1.32
432.302	1.2
432.663	1.27
433.024	1.34
433.384	1.29
433.745	1.24
434.106	1.33
434.467	1.31
434.827	1.27
435.188	1.26
435.548	1.25
435.909	1.23
436.269	1.28
436.63	1.17
436.99	1.19
437.351	1.16
437.711	1.24
438.071	1.16
438.431	1.22
438.792	1.2
439.152	1.19
439.512	1.22
439.872	1.17
440.232	1.25
440.592	1.16
440.952	1.15
441.312	1.12
441.671	1.13
442.031	1.16
442.391	1.14
442.751	1.18
443.11	1.16
443.47	1.11
443.83	1.1
444.189	1.09
444.549	1.08
444.908	1.11
445.267	1.06
445.627	1.08
445.986	1.09
446.345	1.04
446.705	1.05
447.064	1.07
447.423	1.04
447.782	1.05
448.141	1.06
448.5	1.01
448.859	1.01
449.218	1.01
449.577	1
449.936	1
450.295	1
450.653	1
451.012	1
451.371	1
451.729	0.99
452.088	0.98
452.447	0.98
452.805	0.98
453.163	0.96
453.522	0.95
453.88	0.92
454.239	0.92
454.597	0.94
454.955	0.89
455.313	0.89
455.671	0.88
456.029	0.88
456.388	0.86
456.746	0.87
457.104	0.84
457.461	0.83
457.819	0.83
458.177	0.81
458.535	0.8
458.893	0.81
459.25	0.8
459.608	0.79
459.966	0.78
460.323	0.76
460.681	0.75
461.038	0.75
461.396	0.73
461.753	0.73
462.111	0.74
462.468	0.7
462.825	0.71
463.182	0.69
463.54	0.68
463.897	0.68
464.254	0.67
464.611	0.67
464.968	0.65
465.325	0.65
465.682	0.63
466.039	0.63
466.395	0.62
466.752	0.62
467.109	0.61
467.466	0.6
467.822	0.6
468.179	0.57
468.535	0.59
468.892	0.57
469.248	0.55
469.605	0.55
469.961	0.55
470.318	0.54
470.674	0.54
471.03	0.53
471.386	0.53
471.743	0.51
472.099	0.5
472.455	0.5
472.811	0.49
473.167	0.48
473.523	0.47
473.879	0.47
474.235	0.45
474.59	0.45
474.946	0.44
475.302	0.44
475.657	0.43
476.013	0.42
476.369	0.41
476.724	0.41
477.08	0.42
477.435	0.4
477.791	0.39
478.146	0.39
478.501	0.38
478.857	0.38
479.212	0.38
479.567	0.38
479.922	0.36
480.277	0.36
480.632	0.35
480.987	0.35
481.342	0.35
481.697	0.34
482.052	0.33
482.407	0.33
482.762	0.32
483.116	0.31
483.471	0.31
483.826	0.3
484.18	0.31
484.535	0.3
484.89	0.29
485.244	0.29
485.598	0.29
485.953	0.29
486.307	0.28
486.661	0.28
487.016	0.27
487.37	0.28
487.724	0.27
488.078	0.27
488.432	0.27
488.786	0.26
489.14	0.26
489.494	0.25
489.848	0.25
490.202	0.25
490.556	0.25
490.91	0.24
491.263	0.23
491.617	0.24
491.971	0.24
492.324	0.23
492.678	0.23
493.031	0.23
493.385	0.22
493.738	0.23
494.091	0.23
494.445	0.23
494.798	0.22
495.151	0.22
495.504	0.21
495.857	0.21
496.21	0.21
496.564	0.2
496.916	0.21
497.269	0.2
497.622	0.22
497.975	0.21
498.328	0.21
498.681	0.21
499.033	0.2
499.386	0.2
499.739	0.19
500.091	0.19
500.444	0.19
500.796	0.19
501.149	0.18
501.501	0.19
501.854	0.18
502.206	0.18
502.558	0.19
502.91	0.2
503.263	0.18
503.615	0.18
503.967	0.18
504.319	0.19
504.671	0.18
505.023	0.17
505.375	0.18
505.726	0.18
506.078	0.18
506.43	0.18
506.782	0.16
507.133	0.16
507.485	0.18
507.837	0.18
508.188	0.17
508.54	0.18
508.891	0.18
509.243	0.17
509.594	0.17
509.945	0.17
510.296	0.17
510.648	0.17
510.999	0.16
511.35	0.17
511.701	0.16
512.052	0.17
512.403	0.17
512.754	0.16
513.105	0.16
513.456	0.16
513.807	0.16
514.157	0.17
514.508	0.16
514.859	0.15
515.209	0.16
515.56	0.16
515.91	0.16
516.261	0.16
516.611	0.16
516.962	0.16
517.312	0.16
517.662	0.16
518.013	0.16
518.363	0.15
518.713	0.16
519.063	0.16
519.413	0.16
519.763	0.15
520.113	0.16
520.463	0.16
520.813	0.17
521.163	0.17
521.512	0.16
521.862	0.16
522.212	0.16
522.562	0.16
522.911	0.16
523.261	0.16
523.61	0.16
523.96	0.16
524.309	0.17
524.658	0.16
525.008	0.16
525.357	0.15
525.706	0.16
526.056	0.16
526.405	0.16
526.754	0.15
527.103	0.16
527.452	0.16
527.801	0.17
528.15	0.17
528.499	0.16
528.847	0.16
529.196	0.17
529.545	0.16
529.893	0.17
530.242	0.17
530.591	0.17
530.939	0.17
531.288	0.17
531.636	0.17
531.985	0.18
532.333	0.18
532.681	0.17
533.029	0.17
533.378	0.17
533.726	0.17
534.074	0.17
534.422	0.17
534.77	0.16
535.118	0.17
535.466	0.16
535.814	0.16
536.162	0.17
536.509	0.17
536.857	0.17
537.205	0.18
537.552	0.17
537.9	0.17
538.248	0.16
538.595	0.18
538.943	0.17
539.29	0.17
539.637	0.17
539.985	0.17
540.332	0.16
540.679	0.17
541.026	0.16
541.373	0.17
541.721	0.15
542.068	0.16
542.415	0.16
542.762	0.16
543.108	0.16
543.455	0.15
543.802	0.16
544.149	0.16
544.496	0.16
544.842	0.16
545.189	0.15
545.535	0.16
545.882	0.16
546.228	0.15
546.575	0.16
546.921	0.16
547.267	0.16
547.614	0.16
547.96	0.16
548.306	0.16
548.652	0.16
548.998	0.17
549.344	0.16
549.69	0.17
550.036	0.17
550.382	0.16
550.728	0.17
551.074	0.17
551.42	0.17
551.765	0.17
552.111	0.17
552.457	0.18
552.802	0.16
553.148	0.17
553.493	0.17
553.839	0.17
554.184	0.17
554.529	0.16
554.875	0.16
555.22	0.17
555.565	0.17
555.91	0.16
556.255	0.17
556.6	0.18
556.945	0.17
557.29	0.17
557.635	0.18
557.98	0.16
558.325	0.17
558.67	0.17
559.014	0.17
559.359	0.17
559.704	0.17
560.048	0.16
560.393	0.17
560.737	0.16
561.082	0.16
561.426	0.16
561.77	0.17
562.115	0.16
562.459	0.16
562.803	0.16
563.147	0.16
563.491	0.17
563.835	0.17
564.179	0.16
564.523	0.16
564.867	0.16
565.211	0.16
565.555	0.16
565.899	0.17
566.242	0.16
566.586	0.17
566.93	0.16
567.273	0.17
567.617	0.17
567.96	0.17
568.304	0.17
568.647	0.17
568.99	0.17
569.334	0.17
569.677	0.17
570.02	0.17
570.363	0.17
570.706	0.17
571.049	0.16
571.392	0.17
571.735	0.17
572.078	0.17
572.421	0.17
572.764	0.17
573.106	0.17
573.449	0.16
573.792	0.17
574.134	0.17
574.477	0.18
574.819	0.17
575.162	0.17
575.504	0.17
575.847	0.17
576.189	0.18
576.531	0.17
576.873	0.17
577.215	0.18
577.558	0.17
577.9	0.16
578.242	0.17
578.584	0.17
578.926	0.17
579.267	0.17
579.609	0.16
579.951	0.17
580.293	0.16
580.634	0.17
580.976	0.17
581.318	0.16
581.659	0.15
582.001	0.16
582.342	0.16
582.683	0.16
583.025	0.16
583.366	0.16
583.707	0.17
584.049	0.16
584.39	0.16
584.731	0.16
585.072	0.16
585.413	0.16
585.754	0.17
586.095	0.17
586.435	0.17
586.776	0.17
587.117	0.16
587.458	0.16
587.798	0.17
588.139	0.17
588.48	0.16
588.82	0.16
589.161	0.16
589.501	0.16
589.841	0.17
590.182	0.16
590.522	0.16
590.862	0.17
591.202	0.16
591.542	0.16
591.882	0.16
592.222	0.16
592.562	0.16
592.902	0.17
593.242	0.15
593.582	0.16
593.922	0.16
594.261	0.16
594.601	0.17
594.941	0.16
595.28	0.17
595.62	0.16
595.959	0.16
596.299	0.16
596.638	0.16
596.977	0.17
597.317	0.17
597.656	0.16
597.995	0.16
598.334	0.16
598.673	0.16
599.012	0.16
599.351	0.16
599.69	0.15
600.029	0.17
600.368	0.16
600.707	0.16
601.046	0.16
601.384	0.17
601.723	0.16
602.061	0.15
602.4	0.16
602.738	0.16
603.077	0.15
603.415	0.16
603.754	0.16
604.092	0.16
604.43	0.16
604.768	0.16
605.107	0.16
605.445	0.16
605.783	0.15
606.121	0.15
606.459	0.16
606.796	0.15
607.134	0.16
607.472	0.15
607.81	0.16
608.148	0.16
608.485	0.15
608.823	0.16
609.16	0.16
609.498	0.16
609.835	0.15
610.173	0.15
610.51	0.16
610.847	0.16
611.185	0.16
611.522	0.16
611.859	0.16
612.196	0.16
612.533	0.17
612.87	0.17
613.207	0.16
613.544	0.16
613.881	0.18
614.217	0.17
614.554	0.16
614.891	0.17
615.228	0.16
615.564	0.17
615.901	0.16
616.237	0.17
616.574	0.16
616.91	0.18
617.246	0.17
617.583	0.17
617.919	0.17
618.255	0.17
618.591	0.17
618.927	0.17
619.263	0.17
619.599	0.17
619.935	0.17
620.271	0.16
620.607	0.17
620.943	0.16
621.279	0.17
621.614	0.17
621.95	0.17
622.286	0.15
622.621	0.16
622.957	0.16
623.292	0.15
623.627	0.15
623.963	0.16
624.298	0.15
624.633	0.16
624.968	0.15
625.304	0.16
625.639	0.15
625.974	0.15
626.309	0.15
626.644	0.15
626.979	0.16
627.313	0.15
627.648	0.15
627.983	0.15
628.318	0.14
628.652	0.15
628.987	0.15
629.321	0.15
629.656	0.14
629.99	0.14
630.325	0.15
630.659	0.16
630.993	0.15
631.327	0.14
631.662	0.14
631.996	0.14
632.33	0.14
632.664	0.15
632.998	0.14
633.332	0.14
633.666	0.15
633.999	0.15
634.333	0.14
634.667	0.14
635.001	0.14
635.334	0.14
635.668	0.14
636.001	0.14
636.335	0.14
636.668	0.14
637.001	0.13
637.335	0.14
637.668	0.13
638.001	0.13
638.334	0.14
638.668	0.13
639.001	0.13
639.334	0.13
639.667	0.14
639.999	0.14
640.332	0.14
640.665	0.13
640.998	0.13
641.331	0.13
641.663	0.13
641.996	0.13
642.328	0.14
642.661	0.13
642.993	0.13
643.326	0.14
643.658	0.13
643.99	0.13
644.323	0.13
644.655	0.13
644.987	0.14
645.319	0.13
645.651	0.14
645.983	0.14
646.315	0.14
646.647	0.14
646.979	0.14
647.31	0.14
647.642	0.14
647.974	0.14
648.305	0.15
648.637	0.14
648.968	0.14
649.3	0.14
649.631	0.14
649.963	0.15
650.294	0.14
650.625	0.14
650.957	0.15
651.288	0.15
651.619	0.14
651.95	0.14
652.281	0.14
652.612	0.13
652.943	0.14
653.274	0.14
653.604	0.13
653.935	0.13
654.266	0.14
654.596	0.13
654.927	0.13
655.258	0.13
655.588	0.14
655.918	0.14
656.249	0.12
656.579	0.13
656.909	0.13
657.24	0.13
657.57	0.14
657.9	0.13
658.23	0.13
658.56	0.14
658.89	0.15
659.22	0.13
659.55	0.14
659.88	0.14
660.209	0.14
660.539	0.15
660.869	0.14
661.198	0.14
661.528	0.13
661.857	0.14
662.187	0.14
662.516	0.14
662.846	0.13
663.175	0.13
663.504	0.14
663.833	0.13
664.163	0.14
664.492	0.13
664.821	0.13
665.15	0.13
665.479	0.13
665.807	0.13
666.136	0.13
666.465	0.12
666.794	0.13
667.122	0.12
667.451	0.13
667.78	0.13
668.108	0.13
668.437	0.12
668.765	0.13
669.093	0.13
669.422	0.13
669.75	0.12
670.078	0.12
670.406	0.12
670.734	0.12
671.062	0.13
671.39	0.12
671.718	0.12
672.046	0.12
672.374	0.12
672.702	0.13
673.029	0.12
673.357	0.13
673.685	0.13
674.012	0.12
674.34	0.12
674.667	0.13
674.995	0.12
675.322	0.13
675.649	0.12
675.977	0.12
676.304	0.11
676.631	0.12
676.958	0.12
677.285	0.11
677.612	0.11
677.939	0.12
678.266	0.12
678.593	0.12
678.92	0.12
679.246	0.1
679.573	0.11
679.9	0.1
680.226	0.11
680.553	0.1
680.879	0.11
681.206	0.11
681.532	0.1
681.858	0.11
682.184	0.11
682.511	0.11
682.837	0.1
683.163	0.11
683.489	0.11
683.815	0.11
684.141	0.11
684.467	0.11
684.793	0.11
685.118	0.1
685.444	0.11
685.77	0.11
686.095	0.11
686.421	0.11
686.746	0.11
687.072	0.11
687.397	0.11
687.723	0.12
688.048	0.12
688.373	0.11
688.698	0.11
689.023	0.11
689.349	0.11
689.674	0.11
689.999	0.11
690.323	0.09
690.648	0.1
690.973	0.09
691.298	0.09
691.623	0.1
691.947	0.09
692.272	0.09
692.596	0.09
692.921	0.1
693.245	0.09
693.57	0.1
693.894	0.1
694.218	0.1
694.543	0.1
694.867	0.09
695.191	0.09
695.515	0.1
695.839	0.09
696.163	0.09
696.487	0.09
696.811	0.09
697.135	0.1
697.458	0.1
697.782	0.09
698.106	0.09
698.429	0.1
698.753	0.09
699.076	0.09
699.4	0.09
699.723	0.09
700.046	0.09
700.37	0.1
700.693	0.1
701.016	0.08
701.339	0.1
701.662	0.1
701.985	0.1
702.308	0.1
702.631	0.1
702.954	0.1
703.277	0.09
703.599	0.09
703.922	0.09
704.245	0.09
704.567	0.09
704.89	0.09
705.212	0.09
705.535	0.09
705.857	0.09
706.179	0.09
706.502	0.09
706.824	0.08
707.146	0.09
707.468	0.09
707.79	0.09
708.112	0.09
708.434	0.08
708.756	0.09
709.078	0.09
709.399	0.09
709.721	0.09
710.043	0.1
710.364	0.09
710.686	0.09
711.007	0.08
711.329	0.09
711.65	0.09
711.972	0.09
712.293	0.09
712.614	0.09
712.935	0.09
713.256	0.09
713.577	0.09
713.898	0.09
714.219	0.08
714.54	0.08
714.861	0.07
715.182	0.08
715.503	0.08
715.823	0.08
716.144	0.08
716.464	0.08
716.785	0.07
717.105	0.08
717.426	0.08
717.746	0.08
718.066	0.07
718.387	0.08
718.707	0.06
719.027	0.08
719.347	0.07
719.667	0.08
719.987	0.06
720.307	0.07
720.627	0.07
720.947	0.07
721.266	0.07
721.586	0.06
721.906	0.06
722.225	0.06
722.545	0.06
722.864	0.05
723.184	0.07
723.503	0.07
723.823	0.07
724.142	0.06
724.461	0.06
724.78	0.06
725.099	0.06
725.418	0.06
725.737	0.06
726.056	0.07
726.375	0.06
726.694	0.07
727.013	0.06
727.331	0.06
727.65	0.06
727.969	0.06
728.287	0.07
728.606	0.07
728.924	0.07
729.242	0.07
729.561	0.07
729.879	0.07
730.197	0.08
730.515	0.06
730.834	0.06
731.152	0.06
731.47	0.06
731.788	0.07
732.105	0.06
732.423	0.06
732.741	0.05
733.059	0.06
733.376	0.06
733.694	0.05
734.012	0.06
734.329	0.06
734.647	0.06
734.964	0.07
735.281	0.05
735.599	0.06
735.916	0.07
736.233	0.06
736.55	0.06
736.867	0.06
737.184	0.07
737.501	0.06
737.818	0.07
738.135	0.07
738.452	0.06
738.768	0.06
739.085	0.07
739.402	0.04
739.718	0.07
740.035	0.07
740.351	0.07
740.668	0.07
740.984	0.07
741.3	0.06
741.617	0.07
741.933	0.06
742.249	0.07
742.565	0.07
742.881	0.07
743.197	0.07
743.513	0.06
743.829	0.06
744.144	0.06
744.46	0.06
744.776	0.07
745.091	0.07
745.407	0.07
745.722	0.06
746.038	0.06
746.353	0.06
746.669	0.07
746.984	0.06
747.299	0.06
747.614	0.07
747.93	0.06
748.245	0.06
748.56	0.06
748.875	0.06
749.189	0.06
749.504	0.06
749.819	0.06
750.134	0.07
750.448	0.06
750.763	0.07
751.078	0.05
751.392	0.06
751.707	0.07
752.021	0.07
752.335	0.07
752.65	0.07
752.964	0.07
753.278	0.06
753.592	0.06
753.906	0.06
754.22	0.07
754.534	0.07
754.848	0.06
755.162	0.06
755.476	0.06
755.789	0.06
756.103	0.06
756.417	0.07
756.73	0.06
757.044	0.07
757.357	0.06
757.671	0.07
757.984	0.06
758.297	0.07
758.61	0.07
758.924	0.06
759.237	0.06
759.55	0.06
759.863	0.06
760.176	0.07
760.488	0.06
760.801	0.05
761.114	0.06
761.427	0.05
761.739	0.06
762.052	0.06
762.365	0.05
762.677	0.06
762.99	0.05
763.302	0.06
763.614	0.05
763.926	0.06
764.239	0.06
764.551	0.06
764.863	0.05
765.175	0.06
765.487	0.06
765.799	0.05
766.111	0.05
766.423	0.05
766.734	0.05
767.046	0.05
767.358	0.06
767.669	0.05
767.981	0.05
768.292	0.05
768.604	0.05
768.915	0.05
769.226	0.05
769.537	0.04
769.849	0.05
770.16	0.04
770.471	0.04
770.782	0.05
771.093	0.05
771.404	0.03
771.715	0.05
772.025	0.04
772.336	0.04
772.647	0.05
772.957	0.04
773.268	0.05
773.578	0.04
773.889	0.05
774.199	0.04
774.51	0.04
774.82	0.04
775.13	0.04
775.44	0.05
775.75	0.05
776.06	0.05
776.37	0.04
776.68	0.06
776.99	0.04
777.3	0.04
777.61	0.05
777.92	0.04
778.229	0.04
778.539	0.05
778.848	0.05
779.158	0.05
779.467	0.05
779.777	0.04
780.086	0.05
780.395	0.04
780.704	0.05
781.013	0.04
781.323	0.04
781.632	0.05
781.941	0.05
782.249	0.05
782.558	0.04
782.867	0.06
783.176	0.04
783.485	0.04
783.793	0.05
784.102	0.04
784.41	0.04
784.719	0.05
785.027	0.04
785.335	0.05
785.644	0.05
785.952	0.04
786.26	0.04
786.568	0.04
786.876	0.04
787.184	0.04
787.492	0.04
787.8	0.05
788.108	0.04
788.416	0.04
788.723	0.04
789.031	0.04
789.338	0.04
789.646	0.03
789.953	0.04
790.261	0.04
790.568	0.05
790.876	0.04
791.183	0.04
791.49	0.04
791.797	0.04
792.104	0.04
792.411	0.04
792.718	0.04
793.025	0.05
793.332	0.05
793.639	0.04
793.945	0.06
794.252	0.05
794.559	0.04
794.865	0.05
795.172	0.05
795.478	0.04
795.784	0.05
796.091	0.05
796.397	0.06
796.703	0.05
797.009	0.06
797.315	0.05
797.622	0.05
797.927	0.05
798.233	0.05
798.539	0.05
798.845	0.05
799.151	0.05
799.456	0.05
799.762	0.04
800.068	0.06
800.373	0.06
800.679	0.04
800.984	0.04
801.289	0.05
801.595	0.05
801.9	0.04
802.205	0.03
802.51	0.04
802.815	0.04
803.12	0.04
803.425	0.04
803.73	0.03
804.035	0.03
804.339	0.04
804.644	0.04
804.949	0.04
805.253	0.04
805.558	0.05
805.862	0.04
806.167	0.05
806.471	0.04
806.775	0.04
807.08	0.04
807.384	0.05
807.688	0.04
807.992	0.05
808.296	0.04
808.6	0.04
808.904	0.05
809.207	0.04
809.511	0.05
809.815	0.05
810.119	0.05
810.422	0.04
810.726	0.05
811.029	0.05
811.332	0.05
811.636	0.05
811.939	0.05
812.242	0.05
812.546	0.05
812.849	0.05
813.152	0.05
813.455	0.05
813.758	0.05
814.06	0.05
814.363	0.05
814.666	0.05
814.969	0.05
815.271	0.05
815.574	0.05
815.877	0.04
816.179	0.04
816.481	0.04
816.784	0.05
817.086	0.04
817.388	0.03
817.69	0.03
817.993	0.03
818.295	0.03
818.597	0.03
818.899	0.02
819.2	0.03
819.502	0.03
819.804	0.03
820.106	0.03
820.407	0.02
820.709	0.03
821.01	0.02
821.312	0.04
821.613	0.03
821.915	0.03
822.216	0.03
822.517	0.02
822.818	0.03
823.119	0.04
823.42	0.03
823.721	0.03
824.022	0.02
824.323	0.03
824.624	0.03
824.925	0.04
825.226	0.04
825.526	0.03
825.827	0.03
826.127	0.03
826.428	0.04
826.728	0.03
827.028	0.03
827.329	0.03
827.629	0.02
827.929	0.04
828.229	0.04
828.529	0.04
828.829	0.03
829.129	0.03
829.429	0.04
829.729	0.03
830.029	0.03
830.328	0.03
830.628	0.02
830.927	0.02
831.227	0.02
831.526	0.03
831.826	0.03
832.125	0.02
832.424	0.02
832.724	0.03
833.023	0.03
833.322	0.03
833.621	0.02
833.92	0.02
834.219	0.02
834.518	0.02
834.816	0.02
835.115	0.02
835.414	0.02
835.712	0.02
836.011	0.02
836.309	0.02
836.608	0.01
836.906	0.01
837.205	0.01
837.503	0.01
837.801	0.01
838.099	-0
838.397	-0.01
838.695	-0.01
838.993	0
839.291	-0.01
839.589	-0.01
839.887	-0.02
840.184	-0.01
840.482	-0.02
840.78	-0.01
841.077	-0.03
841.375	-0.02
841.672	-0.02
841.969	-0.02
842.267	-0.03
842.564	-0.02
842.861	-0.02
843.158	-0.03
843.455	-0.04
843.752	-0.04
844.049	-0.03
844.346	-0.04
844.643	-0.05
844.94	-0.04
845.236	-0.03
845.533	-0.04
845.83	-0.04
846.126	-0.05
846.423	-0.04
846.719	-0.06
847.015	-0.04
847.312	-0.05
847.608	-0.05
847.904	-0.06
848.2	-0.06
848.496	-0.06
848.792	-0.05
849.088	-0.05
849.384	-0.06
849.68	-0.06
849.975	-0.06
850.271	-0.06
850.567	-0.06
850.862	-0.06
851.158	-0.06
851.453	-0.06
851.748	-0.07
852.044	-0.06
852.339	-0.07
852.634	-0.08
852.929	-0.07
853.224	-0.07
853.519	-0.07
853.814	-0.07
854.109	-0.08
854.404	-0.08
854.699	-0.08
854.994	-0.08
855.288	-0.07
855.583	-0.07
855.877	-0.08
856.172	-0.08
856.466	-0.08
856.76	-0.08
857.055	-0.08
857.349	-0.1
857.643	-0.1
857.937	-0.11
858.231	-0.1
858.525	-0.1
858.819	-0.1
859.113	-0.11
859.407	-0.12
859.701	-0.11
859.994	-0.11
860.288	-0.11
860.581	-0.12
860.875	-0.12
861.168	-0.12
861.462	-0.12
861.755	-0.12
862.048	-0.12
862.341	-0.12
862.634	-0.12
862.928	-0.12
863.221	-0.12
863.513	-0.13
863.806	-0.12
864.099	-0.13
864.392	-0.12
864.685	-0.12
864.977	-0.12
865.27	-0.13
865.562	-0.12
865.855	-0.13
866.147	-0.13
866.44	-0.12
866.732	-0.13
867.024	-0.14
867.316	-0.13
867.608	-0.14
867.9	-0.14
868.192	-0.14
868.484	-0.14
868.776	-0.15
869.068	-0.14
869.359	-0.14
869.651	-0.15
869.943	-0.15
870.234	-0.15
870.526	-0.15
870.817	-0.15
871.108	-0.15
871.4	-0.15
871.691	-0.15
871.982	-0.17
872.273	-0.17
872.564	-0.16
872.855	-0.17
873.146	-0.15
873.437	-0.16
873.728	-0.18
874.019	-0.17
874.309	-0.17
874.6	-0.17
874.89	-0.17
875.181	-0.17
875.471	-0.16
875.762	-0.16
876.052	-0.17
876.342	-0.15
876.632	-0.18
876.922	-0.17
877.213	-0.17
877.503	-0.19
877.792	-0.17
878.082	-0.17
878.372	-0.16
878.662	-0.18
878.952	-0.17
879.241	-0.18
879.531	-0.18
879.82	-0.19
880.11	-0.19
880.399	-0.18
880.688	-0.17
880.978	-0.17
881.267	-0.17
