Data from 12-12-AQDScycling_Absorbance__464__00464.txt Node

Date: Tue Dec 12 12:52:44 EST 2023
User: kyuminlee
Spectrometer: FLMS00943
Trigger mode: 0
Integration Time (sec): 1.000000E-1
Scans to average: 1
Electric dark correction enabled: true
Nonlinearity correction enabled: false
Boxcar width: 0
XAxis mode: Wavelengths
Number of Pixels in Spectrum: 2048
>>>>>Begin Spectral Data<<<<<
179.651	-0
180.037	-0
180.424	-0
180.81	0.24
181.197	0.27
181.583	-0
181.97	-0.38
182.356	-0
182.743	-1.15
183.129	0.56
183.515	0.09
183.901	-0
184.288	-0
184.674	0.18
185.06	-0.52
185.446	-0
185.832	-0
186.218	0.06
186.604	-0.48
186.99	-0.08
187.376	1.34
187.762	-0.06
188.148	0.33
188.534	-0.35
188.92	0.13
189.305	0.01
189.691	0.07
190.077	0.14
190.463	0.03
190.848	0.08
191.234	-0.02
191.619	0.15
192.005	0.09
192.391	0.14
192.776	0.08
193.161	0.02
193.547	0.03
193.932	0.17
194.318	0.05
194.703	0.07
195.088	0.17
195.473	0.09
195.859	0.13
196.244	0.17
196.629	0.09
197.014	-0.01
197.399	0.1
197.784	0.05
198.169	0.05
198.554	0.15
198.939	0.11
199.324	0
199.709	0.02
200.094	0.01
200.478	0.07
200.863	0.14
201.248	0.08
201.633	0.14
202.017	-0
202.402	0.09
202.787	0.03
203.171	0.17
203.556	0.19
203.94	0.04
204.325	0.14
204.709	0.14
205.093	-0.01
205.478	0.1
205.862	0.04
206.246	-0.01
206.631	0.07
207.015	0.06
207.399	0.16
207.783	0.06
208.167	0.13
208.551	0.14
208.935	0.19
209.319	0.05
209.703	-0.03
210.087	0.17
210.471	0.02
210.855	-0.03
211.239	0.14
211.623	0.11
212.007	0.33
212.39	0.18
212.774	0.12
213.158	0.13
213.541	0.26
213.925	0.18
214.309	0.18
214.692	0.26
215.076	0.14
215.459	0.13
215.842	0.05
216.226	0.24
216.609	0.38
216.993	0.2
217.376	0.37
217.759	0.07
218.142	0.2
218.525	0.58
218.909	0.19
219.292	0.29
219.675	0.57
220.058	0.34
220.441	0.42
220.824	0.43
221.207	0.48
221.59	0.38
221.973	0.44
222.355	0.51
222.738	0.77
223.121	0.47
223.504	0.48
223.886	0.6
224.269	0.6
224.652	0.63
225.034	0.65
225.417	0.74
225.799	0.66
226.182	0.76
226.564	0.73
226.947	0.8
227.329	0.77
227.711	0.8
228.094	0.73
228.476	0.92
228.858	0.75
229.24	0.78
229.623	0.8
230.005	0.72
230.387	0.75
230.769	0.83
231.151	0.92
231.533	0.93
231.915	0.89
232.297	0.91
232.679	0.89
233.061	0.85
233.442	0.9
233.824	0.94
234.206	1.15
234.588	0.99
234.969	1.09
235.351	0.88
235.733	0.93
236.114	1.04
236.496	1.16
236.877	1.06
237.259	1.03
237.64	0.98
238.022	0.95
238.403	0.86
238.784	1.02
239.165	0.92
239.547	1.04
239.928	0.99
240.309	1.1
240.69	1.02
241.071	1.05
241.452	1.02
241.834	1.01
242.215	1.11
242.595	1.09
242.976	1.13
243.357	1.14
243.738	1.07
244.119	1.3
244.5	1.04
244.881	1.11
245.261	1.07
245.642	1.1
246.023	1.09
246.403	1.14
246.784	1.19
247.164	1.24
247.545	1.19
247.925	1.2
248.306	1.17
248.686	1.37
249.067	1.16
249.447	1.35
249.827	1.49
250.207	1.34
250.588	1.25
250.968	1.55
251.348	1.33
251.728	1.35
252.108	1.26
252.488	1.36
252.868	1.3
253.248	1.26
253.628	1.3
254.008	1.47
254.388	1.29
254.768	1.33
255.147	1.31
255.527	1.33
255.907	1.35
256.287	1.32
256.666	1.41
257.046	1.41
257.425	1.37
257.805	1.29
258.184	1.24
258.564	1.3
258.943	1.36
259.323	1.4
259.702	1.39
260.081	1.33
260.461	1.4
260.84	1.35
261.219	1.55
261.598	1.51
261.977	1.39
262.356	1.4
262.736	1.48
263.115	1.51
263.494	1.43
263.873	1.43
264.251	1.4
264.63	1.45
265.009	1.37
265.388	1.41
265.767	1.36
266.145	1.41
266.524	1.31
266.903	1.37
267.281	1.35
267.66	1.42
268.039	1.39
268.417	1.33
268.796	1.38
269.174	1.34
269.552	1.26
269.931	1.45
270.309	1.25
270.687	1.34
271.066	1.54
271.444	1.33
271.822	1.33
272.2	1.41
272.578	1.29
272.956	1.39
273.334	1.34
273.712	1.35
274.09	1.41
274.468	1.26
274.846	1.24
275.224	1.31
275.602	1.31
275.98	1.44
276.357	1.28
276.735	1.36
277.113	1.35
277.49	1.35
277.868	1.25
278.246	1.38
278.623	1.31
279.001	1.3
279.378	1.25
279.756	1.49
280.133	1.43
280.51	1.32
280.888	1.46
281.265	1.38
281.642	1.38
282.019	1.42
282.396	1.45
282.773	1.31
283.151	1.32
283.528	1.5
283.905	1.38
284.282	1.46
284.659	1.5
285.035	1.27
285.412	1.43
285.789	1.48
286.166	1.41
286.543	1.47
286.919	1.32
287.296	1.35
287.673	1.59
288.049	1.42
288.426	1.45
288.802	1.51
289.179	1.38
289.555	1.63
289.932	1.33
290.308	1.3
290.684	1.28
291.061	1.32
291.437	1.5
291.813	1.43
292.189	1.23
292.565	1.33
292.942	1.26
293.318	1.29
293.694	1.35
294.07	1.31
294.446	1.33
294.822	1.43
295.197	1.37
295.573	1.43
295.949	1.35
296.325	1.38
296.701	1.52
297.076	1.59
297.452	1.5
297.828	1.46
298.203	1.51
298.579	1.4
298.954	1.35
299.33	1.38
299.705	1.43
300.081	1.45
300.456	1.52
300.831	1.35
301.206	1.44
301.582	1.7
301.957	1.43
302.332	1.54
302.707	1.4
303.082	1.51
303.457	1.44
303.832	1.41
304.207	1.4
304.582	1.39
304.957	1.5
305.332	1.47
305.707	1.46
306.082	1.54
306.456	1.51
306.831	1.51
307.206	1.46
307.58	1.45
307.955	1.4
308.33	1.45
308.704	1.5
309.079	1.42
309.453	1.64
309.828	1.47
310.202	1.5
310.576	1.45
310.951	1.6
311.325	1.6
311.699	1.44
312.073	1.3
312.447	1.42
312.821	1.46
313.196	1.54
313.57	1.44
313.944	1.42
314.317	1.38
314.691	1.49
315.065	1.58
315.439	1.45
315.813	1.46
316.187	1.45
316.56	1.6
316.934	1.56
317.308	1.43
317.681	1.35
318.055	1.49
318.428	1.41
318.802	1.47
319.175	1.41
319.549	1.47
319.922	1.33
320.295	1.46
320.669	1.65
321.042	1.5
321.415	1.68
321.788	1.38
322.162	1.44
322.535	1.48
322.908	1.5
323.281	1.47
323.654	1.57
324.027	1.42
324.4	1.53
324.773	1.56
325.145	1.49
325.518	1.44
325.891	1.39
326.264	1.66
326.636	1.41
327.009	1.44
327.382	1.37
327.754	1.57
328.127	1.47
328.499	1.44
328.872	1.47
329.244	1.48
329.616	1.49
329.989	1.35
330.361	1.46
330.733	1.39
331.106	1.41
331.478	1.58
331.85	1.43
332.222	1.51
332.594	1.44
332.966	1.43
333.338	1.56
333.71	1.42
334.082	1.58
334.454	1.38
334.826	1.4
335.197	1.46
335.569	1.41
335.941	1.36
336.312	1.41
336.684	1.43
337.056	1.46
337.427	1.53
337.799	1.58
338.17	1.51
338.542	1.45
338.913	1.57
339.284	1.55
339.656	1.51
340.027	1.5
340.398	1.59
340.769	1.44
341.141	1.65
341.512	1.53
341.883	1.52
342.254	1.51
342.625	1.55
342.996	1.43
343.367	1.39
343.738	1.51
344.108	1.34
344.479	1.55
344.85	1.46
345.221	1.41
345.591	1.35
345.962	1.4
346.333	1.45
346.703	1.27
347.074	1.34
347.444	1.29
347.815	1.35
348.185	1.29
348.556	1.31
348.926	1.33
349.296	1.33
349.666	1.28
350.037	1.31
350.407	1.2
350.777	1.26
351.147	1.3
351.517	1.34
351.887	1.38
352.257	1.35
352.627	1.19
352.997	1.28
353.367	1.29
353.737	1.3
354.106	1.3
354.476	1.28
354.846	1.33
355.216	1.28
355.585	1.31
355.955	1.32
356.324	1.29
356.694	1.24
357.063	1.19
357.433	1.28
357.802	1.17
358.171	1.14
358.541	1.14
358.91	1.18
359.279	1.16
359.648	1.09
360.017	1.1
360.387	1.09
360.756	1
361.125	1
361.494	1
361.863	0.96
362.231	0.94
362.6	0.92
362.969	0.91
363.338	0.9
363.707	0.92
364.075	0.86
364.444	0.8
364.813	0.78
365.181	0.78
365.55	0.8
365.918	0.77
366.287	0.75
366.655	0.76
367.024	0.72
367.392	0.68
367.76	0.66
368.128	0.67
368.497	0.65
368.865	0.62
369.233	0.61
369.601	0.61
369.969	0.59
370.337	0.58
370.705	0.57
371.073	0.55
371.441	0.55
371.809	0.53
372.177	0.53
372.544	0.51
372.912	0.49
373.28	0.49
373.647	0.5
374.015	0.48
374.383	0.47
374.75	0.47
375.118	0.43
375.485	0.45
375.853	0.44
376.22	0.42
376.587	0.39
376.955	0.43
377.322	0.39
377.689	0.38
378.056	0.38
378.423	0.37
378.79	0.39
379.157	0.37
379.524	0.36
379.891	0.36
380.258	0.36
380.625	0.34
380.992	0.35
381.359	0.34
381.726	0.34
382.092	0.34
382.459	0.32
382.826	0.34
383.192	0.32
383.559	0.34
383.925	0.33
384.292	0.3
384.658	0.31
385.025	0.3
385.391	0.31
385.757	0.31
386.123	0.3
386.49	0.31
386.856	0.31
387.222	0.29
387.588	0.29
387.954	0.3
388.32	0.29
388.686	0.29
389.052	0.28
389.418	0.28
389.784	0.28
390.15	0.27
390.515	0.27
390.881	0.29
391.247	0.28
391.613	0.28
391.978	0.27
392.344	0.27
392.709	0.26
393.075	0.27
393.44	0.25
393.806	0.25
394.171	0.26
394.536	0.27
394.902	0.24
395.267	0.25
395.632	0.25
395.997	0.26
396.362	0.25
396.727	0.26
397.092	0.26
397.457	0.25
397.822	0.26
398.187	0.25
398.552	0.23
398.917	0.24
399.282	0.25
399.646	0.24
400.011	0.25
400.376	0.24
400.74	0.25
401.105	0.24
401.47	0.24
401.834	0.22
402.199	0.25
402.563	0.22
402.927	0.23
403.292	0.23
403.656	0.24
404.02	0.24
404.384	0.24
404.749	0.23
405.113	0.23
405.477	0.21
405.841	0.22
406.205	0.21
406.569	0.22
406.933	0.21
407.296	0.21
407.66	0.21
408.024	0.22
408.388	0.22
408.752	0.2
409.115	0.21
409.479	0.2
409.842	0.2
410.206	0.19
410.569	0.21
410.933	0.2
411.296	0.22
411.66	0.19
412.023	0.19
412.386	0.2
412.749	0.19
413.113	0.19
413.476	0.17
413.839	0.18
414.202	0.17
414.565	0.17
414.928	0.19
415.291	0.18
415.654	0.18
416.017	0.19
416.38	0.17
416.742	0.17
417.105	0.16
417.468	0.19
417.83	0.17
418.193	0.18
418.556	0.16
418.918	0.18
419.281	0.17
419.643	0.17
420.005	0.16
420.368	0.18
420.73	0.16
421.092	0.16
421.455	0.15
421.817	0.15
422.179	0.14
422.541	0.14
422.903	0.15
423.265	0.14
423.627	0.14
423.989	0.13
424.351	0.14
424.713	0.14
425.075	0.13
425.436	0.14
425.798	0.14
426.16	0.13
426.521	0.15
426.883	0.15
427.245	0.13
427.606	0.12
427.967	0.15
428.329	0.14
428.69	0.16
429.052	0.14
429.413	0.14
429.774	0.13
430.135	0.13
430.497	0.13
430.858	0.12
431.219	0.12
431.58	0.13
431.941	0.13
432.302	0.14
432.663	0.14
433.024	0.15
433.384	0.14
433.745	0.12
434.106	0.13
434.467	0.14
434.827	0.13
435.188	0.13
435.548	0.13
435.909	0.13
436.269	0.14
436.63	0.1
436.99	0.14
437.351	0.13
437.711	0.14
438.071	0.13
438.431	0.13
438.792	0.13
439.152	0.11
439.512	0.13
439.872	0.13
440.232	0.14
440.592	0.12
440.952	0.12
441.312	0.12
441.671	0.12
442.031	0.12
442.391	0.11
442.751	0.13
443.11	0.11
443.47	0.12
443.83	0.11
444.189	0.11
444.549	0.11
444.908	0.11
445.267	0.11
445.627	0.11
445.986	0.1
446.345	0.1
446.705	0.1
447.064	0.11
447.423	0.11
447.782	0.1
448.141	0.11
448.5	0.1
448.859	0.11
449.218	0.11
449.577	0.12
449.936	0.11
450.295	0.1
450.653	0.11
451.012	0.12
451.371	0.11
451.729	0.11
452.088	0.11
452.447	0.11
452.805	0.11
453.163	0.11
453.522	0.11
453.88	0.11
454.239	0.1
454.597	0.11
454.955	0.1
455.313	0.1
455.671	0.11
456.029	0.1
456.388	0.1
456.746	0.1
457.104	0.1
457.461	0.09
457.819	0.1
458.177	0.09
458.535	0.09
458.893	0.08
459.25	0.09
459.608	0.09
459.966	0.09
460.323	0.08
460.681	0.07
461.038	0.08
461.396	0.08
461.753	0.09
462.111	0.08
462.468	0.08
462.825	0.08
463.182	0.08
463.54	0.08
463.897	0.08
464.254	0.08
464.611	0.08
464.968	0.08
465.325	0.08
465.682	0.08
466.039	0.08
466.395	0.08
466.752	0.08
467.109	0.07
467.466	0.08
467.822	0.08
468.179	0.07
468.535	0.07
468.892	0.07
469.248	0.07
469.605	0.07
469.961	0.07
470.318	0.08
470.674	0.07
471.03	0.07
471.386	0.08
471.743	0.07
472.099	0.08
472.455	0.08
472.811	0.07
473.167	0.08
473.523	0.06
473.879	0.06
474.235	0.07
474.59	0.06
474.946	0.06
475.302	0.06
475.657	0.06
476.013	0.06
476.369	0.06
476.724	0.06
477.08	0.06
477.435	0.06
477.791	0.06
478.146	0.06
478.501	0.07
478.857	0.07
479.212	0.06
479.567	0.06
479.922	0.06
480.277	0.07
480.632	0.06
480.987	0.06
481.342	0.06
481.697	0.05
482.052	0.06
482.407	0.06
482.762	0.06
483.116	0.05
483.471	0.05
483.826	0.05
484.18	0.05
484.535	0.05
484.89	0.05
485.244	0.06
485.598	0.05
485.953	0.06
486.307	0.06
486.661	0.06
487.016	0.05
487.37	0.06
487.724	0.05
488.078	0.05
488.432	0.05
488.786	0.05
489.14	0.05
489.494	0.05
489.848	0.05
490.202	0.05
490.556	0.05
490.91	0.05
491.263	0.05
491.617	0.05
491.971	0.05
492.324	0.05
492.678	0.05
493.031	0.06
493.385	0.05
493.738	0.05
494.091	0.05
494.445	0.05
494.798	0.05
495.151	0.05
495.504	0.05
495.857	0.05
496.21	0.05
496.564	0.04
496.916	0.05
497.269	0.04
497.622	0.05
497.975	0.04
498.328	0.05
498.681	0.05
499.033	0.05
499.386	0.04
499.739	0.04
500.091	0.04
500.444	0.04
500.796	0.04
501.149	0.04
501.501	0.04
501.854	0.05
502.206	0.04
502.558	0.05
502.91	0.04
503.263	0.04
503.615	0.05
503.967	0.04
504.319	0.04
504.671	0.04
505.023	0.04
505.375	0.04
505.726	0.04
506.078	0.04
506.43	0.04
506.782	0.04
507.133	0.04
507.485	0.05
507.837	0.05
508.188	0.05
508.54	0.04
508.891	0.04
509.243	0.04
509.594	0.04
509.945	0.04
510.296	0.04
510.648	0.04
510.999	0.03
511.35	0.04
511.701	0.04
512.052	0.04
512.403	0.04
512.754	0.04
513.105	0.04
513.456	0.04
513.807	0.04
514.157	0.04
514.508	0.04
514.859	0.04
515.209	0.04
515.56	0.05
515.91	0.04
516.261	0.04
516.611	0.04
516.962	0.05
517.312	0.04
517.662	0.04
518.013	0.04
518.363	0.05
518.713	0.04
519.063	0.04
519.413	0.04
519.763	0.04
520.113	0.04
520.463	0.04
520.813	0.05
521.163	0.05
521.512	0.05
521.862	0.04
522.212	0.04
522.562	0.04
522.911	0.04
523.261	0.04
523.61	0.05
523.96	0.04
524.309	0.05
524.658	0.04
525.008	0.04
525.357	0.04
525.706	0.05
526.056	0.04
526.405	0.04
526.754	0.04
527.103	0.04
527.452	0.05
527.801	0.05
528.15	0.05
528.499	0.04
528.847	0.04
529.196	0.05
529.545	0.05
529.893	0.05
530.242	0.04
530.591	0.05
530.939	0.05
531.288	0.04
531.636	0.05
531.985	0.05
532.333	0.04
532.681	0.04
533.029	0.05
533.378	0.04
533.726	0.05
534.074	0.05
534.422	0.04
534.77	0.05
535.118	0.05
535.466	0.05
535.814	0.04
536.162	0.05
536.509	0.05
536.857	0.05
537.205	0.04
537.552	0.05
537.9	0.04
538.248	0.04
538.595	0.05
538.943	0.05
539.29	0.05
539.637	0.04
539.985	0.04
540.332	0.04
540.679	0.04
541.026	0.04
541.373	0.05
541.721	0.04
542.068	0.04
542.415	0.04
542.762	0.03
543.108	0.03
543.455	0.03
543.802	0.03
544.149	0.03
544.496	0.04
544.842	0.02
545.189	0.02
545.535	0.03
545.882	0.03
546.228	0.03
546.575	0.02
546.921	0.03
547.267	0.03
547.614	0.03
547.96	0.03
548.306	0.03
548.652	0.02
548.998	0.03
549.344	0.03
549.69	0.03
550.036	0.03
550.382	0.03
550.728	0.03
551.074	0.03
551.42	0.03
551.765	0.03
552.111	0.04
552.457	0.04
552.802	0.03
553.148	0.03
553.493	0.03
553.839	0.04
554.184	0.04
554.529	0.03
554.875	0.04
555.22	0.03
555.565	0.03
555.91	0.03
556.255	0.04
556.6	0.04
556.945	0.03
557.29	0.03
557.635	0.04
557.98	0.03
558.325	0.03
558.67	0.03
559.014	0.04
559.359	0.04
559.704	0.03
560.048	0.02
560.393	0.03
560.737	0.03
561.082	0.04
561.426	0.03
561.77	0.03
562.115	0.03
562.459	0.03
562.803	0.03
563.147	0.03
563.491	0.03
563.835	0.03
564.179	0.03
564.523	0.03
564.867	0.03
565.211	0.03
565.555	0.03
565.899	0.04
566.242	0.03
566.586	0.02
566.93	0.03
567.273	0.04
567.617	0.04
567.96	0.04
568.304	0.04
568.647	0.03
568.99	0.04
569.334	0.04
569.677	0.04
570.02	0.04
570.363	0.04
570.706	0.03
571.049	0.04
571.392	0.03
571.735	0.02
572.078	0.04
572.421	0.04
572.764	0.03
573.106	0.04
573.449	0.03
573.792	0.03
574.134	0.03
574.477	0.03
574.819	0.04
575.162	0.04
575.504	0.03
575.847	0.03
576.189	0.03
576.531	0.03
576.873	0.03
577.215	0.04
577.558	0.03
577.9	0.03
578.242	0.03
578.584	0.03
578.926	0.04
579.267	0.04
579.609	0.03
579.951	0.03
580.293	0.03
580.634	0.04
580.976	0.03
581.318	0.03
581.659	0.03
582.001	0.03
582.342	0.03
582.683	0.03
583.025	0.02
583.366	0.02
583.707	0.03
584.049	0.03
584.39	0.02
584.731	0.02
585.072	0.03
585.413	0.03
585.754	0.03
586.095	0.03
586.435	0.03
586.776	0.03
587.117	0.03
587.458	0.03
587.798	0.03
588.139	0.03
588.48	0.03
588.82	0.03
589.161	0.03
589.501	0.03
589.841	0.03
590.182	0.03
590.522	0.03
590.862	0.03
591.202	0.03
591.542	0.03
591.882	0.03
592.222	0.03
592.562	0.03
592.902	0.03
593.242	0.03
593.582	0.04
593.922	0.03
594.261	0.03
594.601	0.03
594.941	0.02
595.28	0.03
595.62	0.03
595.959	0.03
596.299	0.04
596.638	0.03
596.977	0.03
597.317	0.04
597.656	0.03
597.995	0.03
598.334	0.05
598.673	0.03
599.012	0.03
599.351	0.04
599.69	0.03
600.029	0.04
600.368	0.03
600.707	0.03
601.046	0.04
601.384	0.04
601.723	0.04
602.061	0.03
602.4	0.04
602.738	0.03
603.077	0.04
603.415	0.03
603.754	0.03
604.092	0.03
604.43	0.04
604.768	0.03
605.107	0.03
605.445	0.03
605.783	0.02
606.121	0.03
606.459	0.03
606.796	0.04
607.134	0.02
607.472	0.03
607.81	0.04
608.148	0.03
608.485	0.04
608.823	0.03
609.16	0.03
609.498	0.03
609.835	0.02
610.173	0.03
610.51	0.03
610.847	0.03
611.185	0.03
611.522	0.04
611.859	0.03
612.196	0.04
612.533	0.04
612.87	0.04
613.207	0.05
613.544	0.04
613.881	0.05
614.217	0.05
614.554	0.04
614.891	0.04
615.228	0.04
615.564	0.04
615.901	0.05
616.237	0.04
616.574	0.04
616.91	0.05
617.246	0.04
617.583	0.05
617.919	0.05
618.255	0.05
618.591	0.05
618.927	0.04
619.263	0.05
619.599	0.05
619.935	0.05
620.271	0.05
620.607	0.05
620.943	0.04
621.279	0.05
621.614	0.04
621.95	0.05
622.286	0.05
622.621	0.04
622.957	0.04
623.292	0.03
623.627	0.04
623.963	0.04
624.298	0.04
624.633	0.04
624.968	0.03
625.304	0.04
625.639	0.03
625.974	0.04
626.309	0.03
626.644	0.04
626.979	0.04
627.313	0.04
627.648	0.03
627.983	0.04
628.318	0.03
628.652	0.03
628.987	0.03
629.321	0.03
629.656	0.02
629.99	0.02
630.325	0.03
630.659	0.03
630.993	0.03
631.327	0.03
631.662	0.02
631.996	0.03
632.33	0.04
632.664	0.03
632.998	0.03
633.332	0.03
633.666	0.03
633.999	0.03
634.333	0.03
634.667	0.03
635.001	0.03
635.334	0.03
635.668	0.03
636.001	0.03
636.335	0.04
636.668	0.03
637.001	0.02
637.335	0.03
637.668	0.03
638.001	0.02
638.334	0.03
638.668	0.03
639.001	0.03
639.334	0.03
639.667	0.03
639.999	0.03
640.332	0.03
640.665	0.02
640.998	0.03
641.331	0.03
641.663	0.02
641.996	0.02
642.328	0.03
642.661	0.03
642.993	0.03
643.326	0.03
643.658	0.02
643.99	0.02
644.323	0.02
644.655	0.03
644.987	0.03
645.319	0.03
645.651	0.03
645.983	0.03
646.315	0.02
646.647	0.03
646.979	0.03
647.31	0.03
647.642	0.03
647.974	0.03
648.305	0.04
648.637	0.03
648.968	0.04
649.3	0.04
649.631	0.04
649.963	0.03
650.294	0.04
650.625	0.03
650.957	0.04
651.288	0.04
651.619	0.04
651.95	0.04
652.281	0.04
652.612	0.04
652.943	0.04
653.274	0.04
653.604	0.04
653.935	0.04
654.266	0.03
654.596	0.03
654.927	0.04
655.258	0.04
655.588	0.04
655.918	0.04
656.249	0.02
656.579	0.03
656.909	0.04
657.24	0.03
657.57	0.04
657.9	0.04
658.23	0.04
658.56	0.04
658.89	0.04
659.22	0.04
659.55	0.04
659.88	0.04
660.209	0.04
660.539	0.05
660.869	0.04
661.198	0.04
661.528	0.04
661.857	0.04
662.187	0.04
662.516	0.04
662.846	0.04
663.175	0.04
663.504	0.04
663.833	0.04
664.163	0.05
664.492	0.04
664.821	0.04
665.15	0.04
665.479	0.04
665.807	0.04
666.136	0.05
666.465	0.04
666.794	0.04
667.122	0.04
667.451	0.04
667.78	0.04
668.108	0.04
668.437	0.04
668.765	0.04
669.093	0.04
669.422	0.03
669.75	0.04
670.078	0.04
670.406	0.04
670.734	0.04
671.062	0.04
671.39	0.04
671.718	0.04
672.046	0.04
672.374	0.04
672.702	0.04
673.029	0.03
673.357	0.04
673.685	0.04
674.012	0.04
674.34	0.03
674.667	0.04
674.995	0.04
675.322	0.04
675.649	0.04
675.977	0.04
676.304	0.03
676.631	0.04
676.958	0.04
677.285	0.04
677.612	0.04
677.939	0.04
678.266	0.05
678.593	0.04
678.92	0.04
679.246	0.04
679.573	0.04
679.9	0.04
680.226	0.04
680.553	0.04
680.879	0.04
681.206	0.05
681.532	0.04
681.858	0.05
682.184	0.04
682.511	0.04
682.837	0.04
683.163	0.04
683.489	0.04
683.815	0.04
684.141	0.04
684.467	0.03
684.793	0.03
685.118	0.04
685.444	0.03
685.77	0.04
686.095	0.04
686.421	0.04
686.746	0.04
687.072	0.04
687.397	0.04
687.723	0.04
688.048	0.05
688.373	0.04
688.698	0.05
689.023	0.04
689.349	0.04
689.674	0.04
689.999	0.04
690.323	0.03
690.648	0.04
690.973	0.04
691.298	0.04
691.623	0.04
691.947	0.04
692.272	0.04
692.596	0.05
692.921	0.04
693.245	0.04
693.57	0.04
693.894	0.04
694.218	0.04
694.543	0.04
694.867	0.05
695.191	0.04
695.515	0.04
695.839	0.03
696.163	0.04
696.487	0.03
696.811	0.04
697.135	0.05
697.458	0.04
697.782	0.04
698.106	0.04
698.429	0.04
698.753	0.04
699.076	0.04
699.4	0.04
699.723	0.04
700.046	0.03
700.37	0.04
700.693	0.04
701.016	0.04
701.339	0.05
701.662	0.05
701.985	0.05
702.308	0.03
702.631	0.05
702.954	0.04
703.277	0.04
703.599	0.04
703.922	0.03
704.245	0.04
704.567	0.04
704.89	0.04
705.212	0.04
705.535	0.03
705.857	0.04
706.179	0.03
706.502	0.03
706.824	0.03
707.146	0.03
707.468	0.04
707.79	0.03
708.112	0.04
708.434	0.03
708.756	0.04
709.078	0.04
709.399	0.04
709.721	0.03
710.043	0.05
710.364	0.03
710.686	0.04
711.007	0.04
711.329	0.04
711.65	0.05
711.972	0.04
712.293	0.04
712.614	0.04
712.935	0.04
713.256	0.04
713.577	0.05
713.898	0.03
714.219	0.04
714.54	0.03
714.861	0.03
715.182	0.03
715.503	0.04
715.823	0.03
716.144	0.03
716.464	0.03
716.785	0.03
717.105	0.03
717.426	0.04
717.746	0.03
718.066	0.03
718.387	0.03
718.707	0.03
719.027	0.04
719.347	0.01
719.667	0.03
719.987	0.02
720.307	0.03
720.627	0.02
720.947	0.03
721.266	0.03
721.586	0.02
721.906	0.03
722.225	0.02
722.545	0.03
722.864	0.03
723.184	0.04
723.503	0.03
723.823	0.03
724.142	0.03
724.461	0.03
724.78	0.03
725.099	0.03
725.418	0.03
725.737	0.03
726.056	0.03
726.375	0.03
726.694	0.03
727.013	0.03
727.331	0.02
727.65	0.03
727.969	0.03
728.287	0.03
728.606	0.03
728.924	0.03
729.242	0.03
729.561	0.04
729.879	0.04
730.197	0.04
730.515	0.03
730.834	0.03
731.152	0.03
731.47	0.03
731.788	0.03
732.105	0.03
732.423	0.03
732.741	0.03
733.059	0.04
733.376	0.04
733.694	0.03
734.012	0.03
734.329	0.03
734.647	0.04
734.964	0.04
735.281	0.04
735.599	0.03
735.916	0.04
736.233	0.03
736.55	0.04
736.867	0.04
737.184	0.04
737.501	0.04
737.818	0.04
738.135	0.05
738.452	0.04
738.768	0.04
739.085	0.04
739.402	0.02
739.718	0.04
740.035	0.03
740.351	0.04
740.668	0.03
740.984	0.03
741.3	0.03
741.617	0.03
741.933	0.03
742.249	0.05
742.565	0.03
742.881	0.04
743.197	0.03
743.513	0.03
743.829	0.03
744.144	0.03
744.46	0.03
744.776	0.04
745.091	0.03
745.407	0.03
745.722	0.02
746.038	0.03
746.353	0.03
746.669	0.03
746.984	0.02
747.299	0.02
747.614	0.03
747.93	0.03
748.245	0.03
748.56	0.04
748.875	0.02
749.189	0.03
749.504	0.03
749.819	0.03
750.134	0.03
750.448	0.03
750.763	0.03
751.078	0.03
751.392	0.03
751.707	0.04
752.021	0.04
752.335	0.05
752.65	0.04
752.964	0.04
753.278	0.04
753.592	0.04
753.906	0.03
754.22	0.04
754.534	0.04
754.848	0.04
755.162	0.04
755.476	0.04
755.789	0.04
756.103	0.03
756.417	0.04
756.73	0.04
757.044	0.05
757.357	0.04
757.671	0.04
757.984	0.04
758.297	0.04
758.61	0.05
758.924	0.04
759.237	0.04
759.55	0.04
759.863	0.04
760.176	0.04
760.488	0.04
760.801	0.04
761.114	0.03
761.427	0.03
761.739	0.04
762.052	0.04
762.365	0.04
762.677	0.04
762.99	0.03
763.302	0.03
763.614	0.03
763.926	0.04
764.239	0.04
764.551	0.03
764.863	0.03
765.175	0.04
765.487	0.03
765.799	0.03
766.111	0.02
766.423	0.04
766.734	0.03
767.046	0.03
767.358	0.04
767.669	0.03
767.981	0.04
768.292	0.04
768.604	0.04
768.915	0.03
769.226	0.03
769.537	0.03
769.849	0.03
770.16	0.04
770.471	0.02
770.782	0.03
771.093	0.04
771.404	0.02
771.715	0.03
772.025	0.03
772.336	0.03
772.647	0.02
772.957	0.03
773.268	0.03
773.578	0.03
773.889	0.03
774.199	0.04
774.51	0.04
774.82	0.03
775.13	0.03
775.44	0.03
775.75	0.04
776.06	0.03
776.37	0.03
776.68	0.04
776.99	0.03
777.3	0.03
777.61	0.04
777.92	0.04
778.229	0.03
778.539	0.03
778.848	0.04
779.158	0.03
779.467	0.04
779.777	0.04
780.086	0.04
780.395	0.03
780.704	0.03
781.013	0.03
781.323	0.02
781.632	0.03
781.941	0.04
782.249	0.04
782.558	0.03
782.867	0.04
783.176	0.02
783.485	0.03
783.793	0.03
784.102	0.03
784.41	0.03
784.719	0.03
785.027	0.04
785.335	0.03
785.644	0.03
785.952	0.02
786.26	0.03
786.568	0.02
786.876	0.02
787.184	0.03
787.492	0.03
787.8	0.02
788.108	0.03
788.416	0.03
788.723	0.03
789.031	0.03
789.338	0.03
789.646	0.03
789.953	0.03
790.261	0.04
790.568	0.03
790.876	0.03
791.183	0.04
791.49	0.03
791.797	0.03
792.104	0.02
792.411	0.04
792.718	0.04
793.025	0.04
793.332	0.04
793.639	0.04
793.945	0.04
794.252	0.04
794.559	0.04
794.865	0.04
795.172	0.04
795.478	0.04
795.784	0.04
796.091	0.04
796.397	0.05
796.703	0.05
797.009	0.05
797.315	0.04
797.622	0.05
797.927	0.05
798.233	0.04
798.539	0.06
798.845	0.04
799.151	0.05
799.456	0.05
799.762	0.04
800.068	0.05
800.373	0.06
800.679	0.04
800.984	0.05
801.289	0.04
801.595	0.05
801.9	0.04
802.205	0.04
802.51	0.05
802.815	0.04
803.12	0.04
803.425	0.04
803.73	0.04
804.035	0.05
804.339	0.03
804.644	0.04
804.949	0.04
805.253	0.04
805.558	0.04
805.862	0.03
806.167	0.04
806.471	0.04
806.775	0.03
807.08	0.04
807.384	0.04
807.688	0.04
807.992	0.04
808.296	0.04
808.6	0.04
808.904	0.05
809.207	0.04
809.511	0.05
809.815	0.05
810.119	0.05
810.422	0.05
810.726	0.05
811.029	0.06
811.332	0.06
811.636	0.06
811.939	0.05
812.242	0.06
812.546	0.05
812.849	0.05
813.152	0.06
813.455	0.06
813.758	0.06
814.06	0.06
814.363	0.06
814.666	0.06
814.969	0.06
815.271	0.06
815.574	0.05
815.877	0.05
816.179	0.06
816.481	0.04
816.784	0.05
817.086	0.04
817.388	0.04
817.69	0.03
817.993	0.03
818.295	0.04
818.597	0.04
818.899	0.03
819.2	0.03
819.502	0.03
819.804	0.04
820.106	0.04
820.407	0.03
820.709	0.04
821.01	0.04
821.312	0.04
821.613	0.03
821.915	0.03
822.216	0.03
822.517	0.03
822.818	0.03
823.119	0.03
823.42	0.03
823.721	0.02
824.022	0.03
824.323	0.03
824.624	0.02
824.925	0.04
825.226	0.04
825.526	0.03
825.827	0.02
826.127	0.03
826.428	0.03
826.728	0.03
827.028	0.03
827.329	0.03
827.629	0.02
827.929	0.03
828.229	0.03
828.529	0.03
828.829	0.02
829.129	0.03
829.429	0.02
829.729	0.03
830.029	0.02
830.328	0.03
830.628	0.02
830.927	0.01
831.227	0.01
831.526	0.02
831.826	0.03
832.125	0.02
832.424	0.02
832.724	0.02
833.023	0.02
833.322	0.02
833.621	0.02
833.92	0.01
834.219	0.01
834.518	0.02
834.816	0.01
835.115	0.01
835.414	0.01
835.712	0.01
836.011	0
836.309	0
836.608	0
836.906	0.01
837.205	-0
837.503	-0
837.801	-0
838.099	-0.01
838.397	-0.02
838.695	-0.02
838.993	-0.01
839.291	-0.02
839.589	-0.01
839.887	-0.01
840.184	-0.02
840.482	-0.01
840.78	-0.01
841.077	-0.01
841.375	-0.02
841.672	-0.02
841.969	-0.02
842.267	-0.01
842.564	-0.02
842.861	-0.01
843.158	-0.02
843.455	-0.03
843.752	-0.03
844.049	-0.02
844.346	-0.02
844.643	-0.04
844.94	-0.03
845.236	-0.02
845.533	-0.03
845.83	-0.03
846.126	-0.04
846.423	-0.04
846.719	-0.05
847.015	-0.05
847.312	-0.04
847.608	-0.04
847.904	-0.05
848.2	-0.05
848.496	-0.05
848.792	-0.04
849.088	-0.03
849.384	-0.04
849.68	-0.05
849.975	-0.05
850.271	-0.05
850.567	-0.05
850.862	-0.06
851.158	-0.06
851.453	-0.05
851.748	-0.06
852.044	-0.06
852.339	-0.06
852.634	-0.07
852.929	-0.06
853.224	-0.07
853.519	-0.07
853.814	-0.07
854.109	-0.07
854.404	-0.07
854.699	-0.07
854.994	-0.07
855.288	-0.06
855.583	-0.06
855.877	-0.07
856.172	-0.07
856.466	-0.09
856.76	-0.08
857.055	-0.08
857.349	-0.09
857.643	-0.09
857.937	-0.1
858.231	-0.11
858.525	-0.1
858.819	-0.11
859.113	-0.12
859.407	-0.12
859.701	-0.12
859.994	-0.11
860.288	-0.1
860.581	-0.1
860.875	-0.11
861.168	-0.11
861.462	-0.11
861.755	-0.11
862.048	-0.11
862.341	-0.11
862.634	-0.11
862.928	-0.11
863.221	-0.11
863.513	-0.12
863.806	-0.12
864.099	-0.12
864.392	-0.12
864.685	-0.11
864.977	-0.12
865.27	-0.12
865.562	-0.12
865.855	-0.11
866.147	-0.12
866.44	-0.12
866.732	-0.13
867.024	-0.12
867.316	-0.12
867.608	-0.13
867.9	-0.12
868.192	-0.13
868.484	-0.13
868.776	-0.14
869.068	-0.15
869.359	-0.13
869.651	-0.14
869.943	-0.15
870.234	-0.14
870.526	-0.15
870.817	-0.16
871.108	-0.13
871.4	-0.14
871.691	-0.16
871.982	-0.15
872.273	-0.15
872.564	-0.16
872.855	-0.16
873.146	-0.17
873.437	-0.17
873.728	-0.18
874.019	-0.16
874.309	-0.16
874.6	-0.17
874.89	-0.17
875.181	-0.18
875.471	-0.17
875.762	-0.16
876.052	-0.17
876.342	-0.16
876.632	-0.18
876.922	-0.18
877.213	-0.17
877.503	-0.19
877.792	-0.17
878.082	-0.17
878.372	-0.17
878.662	-0.19
878.952	-0.17
879.241	-0.17
879.531	-0.16
879.82	-0.17
880.11	-0.17
880.399	-0.18
880.688	-0.15
880.978	-0.15
881.267	-0.15
