Data from 12-12-AQDScycling_Absorbance__372__00372.txt Node

Date: Tue Dec 12 12:29:44 EST 2023
User: kyuminlee
Spectrometer: FLMS00943
Trigger mode: 0
Integration Time (sec): 1.000000E-1
Scans to average: 1
Electric dark correction enabled: true
Nonlinearity correction enabled: false
Boxcar width: 0
XAxis mode: Wavelengths
Number of Pixels in Spectrum: 2048
>>>>>Begin Spectral Data<<<<<
179.651	-0.23
180.037	-0.23
180.424	-0.23
180.81	-0
181.197	0.42
181.583	-0.57
181.97	-0.49
182.356	-0
182.743	-0.41
183.129	1.88
183.515	0.1
183.901	-0
184.288	0.61
184.674	1.63
185.06	-0.34
185.446	-0
185.832	-0.76
186.218	0.16
186.604	-0.24
186.99	-0
187.376	1.09
187.762	-0
188.148	0.54
188.534	-0.16
188.92	0.09
189.305	0.05
189.691	0.14
190.077	0.15
190.463	0.16
190.848	0.09
191.234	0.19
191.619	0.01
192.005	0.11
192.391	0.21
192.776	0.06
193.161	0.16
193.547	0.1
193.932	0.09
194.318	0.14
194.703	0.35
195.088	0.22
195.473	0.18
195.859	0.21
196.244	0.26
196.629	0.19
197.014	0.04
197.399	0.23
197.784	0.09
198.169	0.17
198.554	0.23
198.939	0.06
199.324	0.07
199.709	0.05
200.094	0.21
200.478	0.15
200.863	0.13
201.248	0.12
201.633	0.12
202.017	0.12
202.402	0.31
202.787	0.11
203.171	0.13
203.556	0.31
203.94	0.12
204.325	0.23
204.709	0.25
205.093	0.06
205.478	0.19
205.862	0.23
206.246	0.27
206.631	0.27
207.015	0.11
207.399	0.26
207.783	0.19
208.167	0.12
208.551	0.38
208.935	0.06
209.319	0.11
209.703	0.14
210.087	0.21
210.471	0.07
210.855	0.13
211.239	0.08
211.623	0.19
212.007	0.18
212.39	0.57
212.774	0.15
213.158	0.18
213.541	0.22
213.925	0.25
214.309	0.35
214.692	0.24
215.076	0.19
215.459	0.18
215.842	0.12
216.226	0.21
216.609	0.44
216.993	0.23
217.376	0.43
217.759	0.04
218.142	0.26
218.525	0.53
218.909	0.38
219.292	0.3
219.675	0.37
220.058	0.37
220.441	0.37
220.824	0.38
221.207	0.55
221.59	0.55
221.973	0.54
222.355	0.62
222.738	0.67
223.121	0.57
223.504	0.58
223.886	0.65
224.269	0.7
224.652	0.69
225.034	0.81
225.417	0.8
225.799	0.78
226.182	0.88
226.564	0.95
226.947	0.7
227.329	0.77
227.711	0.92
228.094	0.96
228.476	0.89
228.858	0.76
229.24	0.86
229.623	0.94
230.005	0.84
230.387	0.95
230.769	0.85
231.151	0.88
231.533	0.95
231.915	0.99
232.297	0.9
232.679	0.92
233.061	1.09
233.442	1.06
233.824	0.97
234.206	1.1
234.588	1.16
234.969	0.98
235.351	0.99
235.733	1.03
236.114	1.22
236.496	1.02
236.877	1.15
237.259	1.06
237.64	1.09
238.022	1.02
238.403	0.99
238.784	1.01
239.165	1
239.547	1.17
239.928	1.15
240.309	0.97
240.69	1.18
241.071	1.14
241.452	1.21
241.834	0.95
242.215	1.03
242.595	0.98
242.976	1.15
243.357	1.06
243.738	1.06
244.119	1.48
244.5	1.16
244.881	1.29
245.261	1.2
245.642	1.11
246.023	1.23
246.403	1.11
246.784	1.19
247.164	1.34
247.545	1.35
247.925	1.21
248.306	1.15
248.686	1.43
249.067	1.33
249.447	1.39
249.827	1.5
250.207	1.49
250.588	1.25
250.968	1.38
251.348	1.36
251.728	1.49
252.108	1.29
252.488	1.34
252.868	1.35
253.248	1.25
253.628	1.37
254.008	1.43
254.388	1.33
254.768	1.31
255.147	1.47
255.527	1.43
255.907	1.3
256.287	1.26
256.666	1.34
257.046	1.44
257.425	1.52
257.805	1.33
258.184	1.37
258.564	1.49
258.943	1.52
259.323	1.5
259.702	1.44
260.081	1.45
260.461	1.46
260.84	1.64
261.219	1.63
261.598	1.49
261.977	1.45
262.356	1.68
262.736	1.47
263.115	1.81
263.494	1.5
263.873	1.41
264.251	1.47
264.63	1.54
265.009	1.48
265.388	1.41
265.767	1.34
266.145	1.39
266.524	1.37
266.903	1.33
267.281	1.28
267.66	1.73
268.039	1.38
268.417	1.29
268.796	1.33
269.174	1.35
269.552	1.23
269.931	1.48
270.309	1.38
270.687	1.48
271.066	1.38
271.444	1.54
271.822	1.42
272.2	1.59
272.578	1.42
272.956	1.46
273.334	1.29
273.712	1.46
274.09	1.54
274.468	1.37
274.846	1.33
275.224	1.28
275.602	1.45
275.98	1.87
276.357	1.36
276.735	1.65
277.113	1.39
277.49	1.29
277.868	1.33
278.246	1.34
278.623	1.33
279.001	1.31
279.378	1.36
279.756	1.53
280.133	1.51
280.51	1.45
280.888	1.4
281.265	1.34
281.642	1.32
282.019	1.54
282.396	1.74
282.773	1.73
283.151	1.6
283.528	1.43
283.905	1.42
284.282	1.48
284.659	1.61
285.035	1.42
285.412	1.3
285.789	1.42
286.166	1.42
286.543	1.53
286.919	1.49
287.296	1.5
287.673	1.65
288.049	1.53
288.426	1.58
288.802	1.55
289.179	1.65
289.555	1.71
289.932	1.55
290.308	1.46
290.684	1.51
291.061	1.32
291.437	1.48
291.813	1.43
292.189	1.39
292.565	1.41
292.942	1.35
293.318	1.34
293.694	1.51
294.07	1.3
294.446	1.52
294.822	1.56
295.197	1.34
295.573	1.44
295.949	1.48
296.325	1.57
296.701	1.4
297.076	1.39
297.452	1.38
297.828	1.34
298.203	1.43
298.579	1.31
298.954	1.36
299.33	1.3
299.705	1.26
300.081	1.35
300.456	1.29
300.831	1.21
301.206	1.24
301.582	1.31
301.957	1.2
302.332	1.19
302.707	1.17
303.082	1.17
303.457	1.15
303.832	1.1
304.207	1.06
304.582	1.09
304.957	1.12
305.332	1.05
305.707	1.06
306.082	1.04
306.456	1.03
306.831	0.98
307.206	0.96
307.58	0.98
307.955	0.95
308.33	0.94
308.704	0.89
309.079	0.89
309.453	0.89
309.828	0.85
310.202	0.85
310.576	0.81
310.951	0.83
311.325	0.78
311.699	0.79
312.073	0.76
312.447	0.76
312.821	0.74
313.196	0.77
313.57	0.7
313.944	0.7
314.317	0.69
314.691	0.72
315.065	0.69
315.439	0.68
315.813	0.71
316.187	0.67
316.56	0.69
316.934	0.65
317.308	0.66
317.681	0.65
318.055	0.64
318.428	0.65
318.802	0.64
319.175	0.65
319.549	0.62
319.922	0.63
320.295	0.62
320.669	0.63
321.042	0.63
321.415	0.63
321.788	0.6
322.162	0.62
322.535	0.61
322.908	0.6
323.281	0.59
323.654	0.62
324.027	0.56
324.4	0.6
324.773	0.61
325.145	0.62
325.518	0.6
325.891	0.59
326.264	0.6
326.636	0.59
327.009	0.58
327.382	0.6
327.754	0.62
328.127	0.62
328.499	0.63
328.872	0.61
329.244	0.64
329.616	0.62
329.989	0.63
330.361	0.66
330.733	0.61
331.106	0.64
331.478	0.64
331.85	0.64
332.222	0.66
332.594	0.7
332.966	0.7
333.338	0.72
333.71	0.71
334.082	0.75
334.454	0.71
334.826	0.72
335.197	0.75
335.569	0.75
335.941	0.71
336.312	0.78
336.684	0.73
337.056	0.78
337.427	0.81
337.799	0.82
338.17	0.81
338.542	0.8
338.913	0.84
339.284	0.86
339.656	0.8
340.027	0.85
340.398	0.86
340.769	0.88
341.141	0.87
341.512	0.87
341.883	0.91
342.254	0.93
342.625	0.91
342.996	0.9
343.367	0.94
343.738	0.96
344.108	0.92
344.479	0.96
344.85	0.98
345.221	1.01
345.591	1.02
345.962	1.04
346.333	1.06
346.703	0.98
347.074	1.04
347.444	1.01
347.815	1.08
348.185	1.08
348.556	1.14
348.926	1.07
349.296	1.2
349.666	1.07
350.037	1.05
350.407	1.08
350.777	1.17
351.147	1.15
351.517	1.21
351.887	1.18
352.257	1.2
352.627	1.15
352.997	1.23
353.367	1.25
353.737	1.27
354.106	1.28
354.476	1.2
354.846	1.36
355.216	1.33
355.585	1.4
355.955	1.31
356.324	1.47
356.694	1.35
357.063	1.43
357.433	1.46
357.802	1.44
358.171	1.52
358.541	1.49
358.91	1.51
359.279	1.5
359.648	1.49
360.017	1.67
360.387	1.55
360.756	1.53
361.125	1.54
361.494	1.66
361.863	1.44
362.231	1.49
362.6	1.62
362.969	1.51
363.338	1.47
363.707	1.63
364.075	1.79
364.444	1.45
364.813	1.59
365.181	1.5
365.55	1.6
365.918	1.65
366.287	1.6
366.655	1.75
367.024	1.64
367.392	1.56
367.76	1.62
368.128	1.63
368.497	1.5
368.865	1.57
369.233	1.55
369.601	1.47
369.969	1.51
370.337	1.45
370.705	1.58
371.073	1.47
371.441	1.68
371.809	1.4
372.177	1.41
372.544	1.44
372.912	1.57
373.28	1.52
373.647	1.6
374.015	1.66
374.383	1.81
374.75	1.71
375.118	1.51
375.485	1.57
375.853	1.55
376.22	1.58
376.587	1.46
376.955	1.85
377.322	1.73
377.689	1.74
378.056	1.74
378.423	1.47
378.79	1.53
379.157	1.66
379.524	1.55
379.891	1.49
380.258	1.55
380.625	1.58
380.992	1.52
381.359	1.55
381.726	1.59
382.092	1.68
382.459	1.61
382.826	1.57
383.192	1.63
383.559	1.64
383.925	1.53
384.292	1.61
384.658	1.8
385.025	1.54
385.391	1.86
385.757	1.74
386.123	1.69
386.49	1.54
386.856	1.62
387.222	1.67
387.588	1.55
387.954	1.85
388.32	1.74
388.686	1.59
389.052	1.5
389.418	1.56
389.784	1.53
390.15	1.73
390.515	1.42
390.881	1.75
391.247	1.5
391.613	1.73
391.978	1.44
392.344	1.55
392.709	1.56
393.075	1.75
393.44	1.55
393.806	1.58
394.171	1.47
394.536	1.56
394.902	1.65
395.267	1.44
395.632	1.48
395.997	1.73
396.362	1.54
396.727	1.61
397.092	1.65
397.457	1.63
397.822	1.58
398.187	1.73
398.552	1.48
398.917	1.78
399.282	1.54
399.646	1.6
400.011	1.66
400.376	1.41
400.74	1.43
401.105	1.54
401.47	1.53
401.834	1.45
402.199	1.72
402.563	1.47
402.927	1.51
403.292	1.72
403.656	1.54
404.02	1.45
404.384	1.74
404.749	1.69
405.113	1.63
405.477	1.67
405.841	1.58
406.205	1.74
406.569	1.47
406.933	1.55
407.296	1.71
407.66	1.59
408.024	1.62
408.388	1.64
408.752	1.56
409.115	1.88
409.479	1.57
409.842	1.51
410.206	1.57
410.569	1.67
410.933	1.6
411.296	1.39
411.66	1.61
412.023	1.43
412.386	1.43
412.749	1.47
413.113	1.73
413.476	1.45
413.839	1.5
414.202	1.58
414.565	1.46
414.928	1.38
415.291	1.49
415.654	1.47
416.017	1.48
416.38	1.61
416.742	1.42
417.105	1.61
417.468	1.49
417.83	1.6
418.193	1.63
418.556	1.37
418.918	1.47
419.281	1.58
419.643	1.69
420.005	1.5
420.368	1.52
420.73	1.46
421.092	1.63
421.455	1.71
421.817	1.43
422.179	1.44
422.541	1.56
422.903	1.52
423.265	1.57
423.627	1.73
423.989	1.48
424.351	1.51
424.713	1.52
425.075	1.56
425.436	1.5
425.798	1.47
426.16	1.61
426.521	1.47
426.883	1.64
427.245	1.63
427.606	1.47
427.967	1.38
428.329	1.75
428.69	1.57
429.052	1.52
429.413	1.61
429.774	1.71
430.135	1.64
430.497	1.6
430.858	1.51
431.219	1.64
431.58	1.5
431.941	1.44
432.302	1.41
432.663	1.46
433.024	1.7
433.384	1.59
433.745	1.49
434.106	1.69
434.467	1.53
434.827	1.5
435.188	1.47
435.548	1.59
435.909	1.51
436.269	1.56
436.63	1.53
436.99	1.52
437.351	1.44
437.711	1.58
438.071	1.47
438.431	1.51
438.792	1.53
439.152	1.46
439.512	1.48
439.872	1.48
440.232	1.54
440.592	1.59
440.952	1.52
441.312	1.48
441.671	1.47
442.031	1.54
442.391	1.5
442.751	1.48
443.11	1.49
443.47	1.4
443.83	1.47
444.189	1.36
444.549	1.47
444.908	1.42
445.267	1.41
445.627	1.49
445.986	1.42
446.345	1.35
446.705	1.45
447.064	1.4
447.423	1.41
447.782	1.4
448.141	1.36
448.5	1.33
448.859	1.3
449.218	1.33
449.577	1.38
449.936	1.34
450.295	1.39
450.653	1.31
451.012	1.33
451.371	1.31
451.729	1.32
452.088	1.36
452.447	1.34
452.805	1.3
453.163	1.31
453.522	1.28
453.88	1.28
454.239	1.27
454.597	1.23
454.955	1.22
455.313	1.25
455.671	1.21
456.029	1.23
456.388	1.18
456.746	1.19
457.104	1.18
457.461	1.13
457.819	1.15
458.177	1.11
458.535	1.11
458.893	1.1
459.25	1.08
459.608	1.07
459.966	1.05
460.323	1.02
460.681	1.03
461.038	1.04
461.396	1
461.753	1
462.111	0.96
462.468	0.94
462.825	0.93
463.182	0.92
463.54	0.92
463.897	0.91
464.254	0.88
464.611	0.89
464.968	0.88
465.325	0.85
465.682	0.84
466.039	0.83
466.395	0.81
466.752	0.8
467.109	0.79
467.466	0.78
467.822	0.77
468.179	0.76
468.535	0.72
468.892	0.72
469.248	0.7
469.605	0.7
469.961	0.69
470.318	0.69
470.674	0.67
471.03	0.67
471.386	0.66
471.743	0.64
472.099	0.63
472.455	0.61
472.811	0.6
473.167	0.58
473.523	0.57
473.879	0.56
474.235	0.56
474.59	0.54
474.946	0.53
475.302	0.52
475.657	0.52
476.013	0.51
476.369	0.49
476.724	0.49
477.08	0.48
477.435	0.47
477.791	0.46
478.146	0.46
478.501	0.45
478.857	0.45
479.212	0.43
479.567	0.41
479.922	0.4
480.277	0.4
480.632	0.38
480.987	0.38
481.342	0.38
481.697	0.37
482.052	0.35
482.407	0.35
482.762	0.34
483.116	0.33
483.471	0.32
483.826	0.31
484.18	0.32
484.535	0.3
484.89	0.3
485.244	0.29
485.598	0.29
485.953	0.28
486.307	0.27
486.661	0.27
487.016	0.26
487.37	0.26
487.724	0.25
488.078	0.25
488.432	0.25
488.786	0.24
489.14	0.23
489.494	0.22
489.848	0.21
490.202	0.22
490.556	0.21
490.91	0.21
491.263	0.2
491.617	0.19
491.971	0.19
492.324	0.19
492.678	0.19
493.031	0.19
493.385	0.17
493.738	0.18
494.091	0.17
494.445	0.17
494.798	0.17
495.151	0.16
495.504	0.16
495.857	0.15
496.21	0.15
496.564	0.14
496.916	0.15
497.269	0.14
497.622	0.14
497.975	0.13
498.328	0.14
498.681	0.13
499.033	0.13
499.386	0.13
499.739	0.12
500.091	0.12
500.444	0.12
500.796	0.12
501.149	0.11
501.501	0.1
501.854	0.11
502.206	0.11
502.558	0.11
502.91	0.1
503.263	0.1
503.615	0.1
503.967	0.09
504.319	0.1
504.671	0.1
505.023	0.08
505.375	0.09
505.726	0.09
506.078	0.08
506.43	0.08
506.782	0.08
507.133	0.08
507.485	0.08
507.837	0.09
508.188	0.08
508.54	0.08
508.891	0.08
509.243	0.07
509.594	0.08
509.945	0.07
510.296	0.07
510.648	0.07
510.999	0.06
511.35	0.07
511.701	0.07
512.052	0.07
512.403	0.06
512.754	0.06
513.105	0.07
513.456	0.06
513.807	0.06
514.157	0.06
514.508	0.06
514.859	0.06
515.209	0.06
515.56	0.06
515.91	0.06
516.261	0.06
516.611	0.05
516.962	0.05
517.312	0.05
517.662	0.06
518.013	0.06
518.363	0.06
518.713	0.06
519.063	0.05
519.413	0.05
519.763	0.05
520.113	0.05
520.463	0.05
520.813	0.06
521.163	0.06
521.512	0.05
521.862	0.05
522.212	0.05
522.562	0.05
522.911	0.05
523.261	0.05
523.61	0.05
523.96	0.05
524.309	0.05
524.658	0.05
525.008	0.05
525.357	0.05
525.706	0.05
526.056	0.04
526.405	0.05
526.754	0.04
527.103	0.04
527.452	0.05
527.801	0.05
528.15	0.05
528.499	0.04
528.847	0.04
529.196	0.05
529.545	0.05
529.893	0.05
530.242	0.05
530.591	0.06
530.939	0.05
531.288	0.05
531.636	0.05
531.985	0.05
532.333	0.05
532.681	0.05
533.029	0.05
533.378	0.05
533.726	0.05
534.074	0.06
534.422	0.04
534.77	0.05
535.118	0.05
535.466	0.05
535.814	0.04
536.162	0.05
536.509	0.05
536.857	0.05
537.205	0.05
537.552	0.05
537.9	0.05
538.248	0.04
538.595	0.05
538.943	0.05
539.29	0.05
539.637	0.05
539.985	0.05
540.332	0.05
540.679	0.04
541.026	0.04
541.373	0.05
541.721	0.04
542.068	0.04
542.415	0.04
542.762	0.04
543.108	0.03
543.455	0.03
543.802	0.03
544.149	0.03
544.496	0.03
544.842	0.03
545.189	0.02
545.535	0.03
545.882	0.03
546.228	0.03
546.575	0.03
546.921	0.03
547.267	0.03
547.614	0.03
547.96	0.04
548.306	0.03
548.652	0.03
548.998	0.04
549.344	0.03
549.69	0.03
550.036	0.03
550.382	0.03
550.728	0.03
551.074	0.04
551.42	0.04
551.765	0.04
552.111	0.04
552.457	0.04
552.802	0.04
553.148	0.03
553.493	0.04
553.839	0.03
554.184	0.04
554.529	0.03
554.875	0.04
555.22	0.04
555.565	0.04
555.91	0.04
556.255	0.05
556.6	0.04
556.945	0.03
557.29	0.04
557.635	0.05
557.98	0.04
558.325	0.04
558.67	0.04
559.014	0.04
559.359	0.04
559.704	0.04
560.048	0.03
560.393	0.04
560.737	0.03
561.082	0.04
561.426	0.03
561.77	0.03
562.115	0.03
562.459	0.03
562.803	0.03
563.147	0.03
563.491	0.04
563.835	0.04
564.179	0.04
564.523	0.03
564.867	0.03
565.211	0.03
565.555	0.03
565.899	0.04
566.242	0.04
566.586	0.03
566.93	0.03
567.273	0.04
567.617	0.04
567.96	0.04
568.304	0.04
568.647	0.04
568.99	0.04
569.334	0.05
569.677	0.04
570.02	0.04
570.363	0.04
570.706	0.04
571.049	0.04
571.392	0.04
571.735	0.03
572.078	0.04
572.421	0.04
572.764	0.04
573.106	0.04
573.449	0.03
573.792	0.03
574.134	0.03
574.477	0.04
574.819	0.03
575.162	0.03
575.504	0.03
575.847	0.03
576.189	0.04
576.531	0.03
576.873	0.03
577.215	0.03
577.558	0.04
577.9	0.03
578.242	0.03
578.584	0.03
578.926	0.03
579.267	0.03
579.609	0.04
579.951	0.04
580.293	0.04
580.634	0.04
580.976	0.04
581.318	0.04
581.659	0.03
582.001	0.03
582.342	0.03
582.683	0.04
583.025	0.03
583.366	0.03
583.707	0.04
584.049	0.03
584.39	0.03
584.731	0.03
585.072	0.03
585.413	0.04
585.754	0.04
586.095	0.03
586.435	0.04
586.776	0.04
587.117	0.03
587.458	0.03
587.798	0.03
588.139	0.03
588.48	0.02
588.82	0.03
589.161	0.03
589.501	0.03
589.841	0.03
590.182	0.03
590.522	0.03
590.862	0.04
591.202	0.03
591.542	0.03
591.882	0.03
592.222	0.03
592.562	0.03
592.902	0.03
593.242	0.03
593.582	0.04
593.922	0.03
594.261	0.03
594.601	0.03
594.941	0.03
595.28	0.03
595.62	0.03
595.959	0.03
596.299	0.03
596.638	0.03
596.977	0.03
597.317	0.04
597.656	0.03
597.995	0.03
598.334	0.05
598.673	0.04
599.012	0.03
599.351	0.04
599.69	0.03
600.029	0.04
600.368	0.03
600.707	0.04
601.046	0.03
601.384	0.04
601.723	0.04
602.061	0.03
602.4	0.04
602.738	0.04
603.077	0.03
603.415	0.03
603.754	0.03
604.092	0.03
604.43	0.03
604.768	0.04
605.107	0.04
605.445	0.03
605.783	0.03
606.121	0.03
606.459	0.03
606.796	0.03
607.134	0.03
607.472	0.03
607.81	0.04
608.148	0.03
608.485	0.04
608.823	0.03
609.16	0.03
609.498	0.03
609.835	0.04
610.173	0.03
610.51	0.03
610.847	0.04
611.185	0.04
611.522	0.04
611.859	0.04
612.196	0.04
612.533	0.04
612.87	0.05
613.207	0.04
613.544	0.04
613.881	0.05
614.217	0.05
614.554	0.04
614.891	0.05
615.228	0.05
615.564	0.04
615.901	0.04
616.237	0.04
616.574	0.04
616.91	0.05
617.246	0.04
617.583	0.04
617.919	0.05
618.255	0.05
618.591	0.05
618.927	0.05
619.263	0.05
619.599	0.06
619.935	0.05
620.271	0.05
620.607	0.05
620.943	0.05
621.279	0.05
621.614	0.04
621.95	0.05
622.286	0.05
622.621	0.03
622.957	0.04
623.292	0.04
623.627	0.03
623.963	0.03
624.298	0.04
624.633	0.04
624.968	0.03
625.304	0.03
625.639	0.03
625.974	0.03
626.309	0.03
626.644	0.03
626.979	0.04
627.313	0.03
627.648	0.03
627.983	0.04
628.318	0.03
628.652	0.03
628.987	0.03
629.321	0.03
629.656	0.03
629.99	0.03
630.325	0.03
630.659	0.03
630.993	0.03
631.327	0.04
631.662	0.02
631.996	0.03
632.33	0.03
632.664	0.03
632.998	0.03
633.332	0.03
633.666	0.03
633.999	0.03
634.333	0.03
634.667	0.03
635.001	0.03
635.334	0.03
635.668	0.03
636.001	0.03
636.335	0.03
636.668	0.03
637.001	0.02
637.335	0.03
637.668	0.03
638.001	0.02
638.334	0.03
638.668	0.03
639.001	0.03
639.334	0.02
639.667	0.02
639.999	0.02
640.332	0.03
640.665	0.02
640.998	0.03
641.331	0.02
641.663	0.02
641.996	0.02
642.328	0.03
642.661	0.03
642.993	0.02
643.326	0.03
643.658	0.03
643.99	0.02
644.323	0.03
644.655	0.02
644.987	0.02
645.319	0.02
645.651	0.02
645.983	0.02
646.315	0.02
646.647	0.03
646.979	0.04
647.31	0.04
647.642	0.03
647.974	0.03
648.305	0.03
648.637	0.03
648.968	0.03
649.3	0.03
649.631	0.03
649.963	0.03
650.294	0.04
650.625	0.03
650.957	0.04
651.288	0.04
651.619	0.04
651.95	0.04
652.281	0.03
652.612	0.04
652.943	0.04
653.274	0.04
653.604	0.04
653.935	0.03
654.266	0.04
654.596	0.04
654.927	0.03
655.258	0.04
655.588	0.04
655.918	0.04
656.249	0.02
656.579	0.03
656.909	0.04
657.24	0.04
657.57	0.04
657.9	0.04
658.23	0.04
658.56	0.04
658.89	0.04
659.22	0.04
659.55	0.04
659.88	0.04
660.209	0.05
660.539	0.05
660.869	0.05
661.198	0.05
661.528	0.05
661.857	0.05
662.187	0.05
662.516	0.05
662.846	0.04
663.175	0.04
663.504	0.04
663.833	0.04
664.163	0.04
664.492	0.04
664.821	0.04
665.15	0.04
665.479	0.04
665.807	0.04
666.136	0.04
666.465	0.04
666.794	0.04
667.122	0.04
667.451	0.04
667.78	0.04
668.108	0.04
668.437	0.03
668.765	0.04
669.093	0.04
669.422	0.04
669.75	0.04
670.078	0.04
670.406	0.04
670.734	0.05
671.062	0.04
671.39	0.04
671.718	0.04
672.046	0.04
672.374	0.03
672.702	0.03
673.029	0.04
673.357	0.04
673.685	0.04
674.012	0.05
674.34	0.04
674.667	0.04
674.995	0.04
675.322	0.04
675.649	0.04
675.977	0.04
676.304	0.04
676.631	0.04
676.958	0.04
677.285	0.04
677.612	0.04
677.939	0.04
678.266	0.05
678.593	0.04
678.92	0.05
679.246	0.04
679.573	0.04
679.9	0.04
680.226	0.04
680.553	0.04
680.879	0.04
681.206	0.04
681.532	0.05
681.858	0.04
682.184	0.03
682.511	0.04
682.837	0.03
683.163	0.04
683.489	0.04
683.815	0.03
684.141	0.04
684.467	0.03
684.793	0.03
685.118	0.04
685.444	0.04
685.77	0.03
686.095	0.04
686.421	0.04
686.746	0.04
687.072	0.04
687.397	0.03
687.723	0.05
688.048	0.05
688.373	0.04
688.698	0.04
689.023	0.04
689.349	0.05
689.674	0.05
689.999	0.04
690.323	0.04
690.648	0.04
690.973	0.04
691.298	0.04
691.623	0.04
691.947	0.05
692.272	0.04
692.596	0.04
692.921	0.04
693.245	0.03
693.57	0.05
693.894	0.04
694.218	0.04
694.543	0.04
694.867	0.04
695.191	0.04
695.515	0.04
695.839	0.03
696.163	0.04
696.487	0.04
696.811	0.03
697.135	0.04
697.458	0.04
697.782	0.03
698.106	0.04
698.429	0.04
698.753	0.04
699.076	0.04
699.4	0.04
699.723	0.04
700.046	0.03
700.37	0.04
700.693	0.04
701.016	0.04
701.339	0.04
701.662	0.04
701.985	0.04
702.308	0.03
702.631	0.04
702.954	0.04
703.277	0.04
703.599	0.04
703.922	0.03
704.245	0.03
704.567	0.03
704.89	0.04
705.212	0.03
705.535	0.03
705.857	0.03
706.179	0.03
706.502	0.03
706.824	0.03
707.146	0.02
707.468	0.03
707.79	0.03
708.112	0.04
708.434	0.03
708.756	0.03
709.078	0.04
709.399	0.03
709.721	0.03
710.043	0.04
710.364	0.04
710.686	0.04
711.007	0.04
711.329	0.04
711.65	0.04
711.972	0.04
712.293	0.04
712.614	0.04
712.935	0.04
713.256	0.04
713.577	0.05
713.898	0.03
714.219	0.03
714.54	0.03
714.861	0.03
715.182	0.03
715.503	0.04
715.823	0.03
716.144	0.03
716.464	0.03
716.785	0.02
717.105	0.02
717.426	0.03
717.746	0.02
718.066	0.02
718.387	0.02
718.707	0.03
719.027	0.03
719.347	0.02
719.667	0.03
719.987	0.02
720.307	0.03
720.627	0.02
720.947	0.02
721.266	0.02
721.586	0.03
721.906	0.03
722.225	0.02
722.545	0.03
722.864	0.02
723.184	0.03
723.503	0.02
723.823	0.03
724.142	0.02
724.461	0.02
724.78	0.02
725.099	0.03
725.418	0.03
725.737	0.03
726.056	0.03
726.375	0.03
726.694	0.02
727.013	0.03
727.331	0.02
727.65	0.02
727.969	0.03
728.287	0.03
728.606	0.04
728.924	0.02
729.242	0.03
729.561	0.03
729.879	0.03
730.197	0.03
730.515	0.03
730.834	0.02
731.152	0.03
731.47	0.03
731.788	0.03
732.105	0.02
732.423	0.03
732.741	0.02
733.059	0.03
733.376	0.03
733.694	0.02
734.012	0.02
734.329	0.03
734.647	0.02
734.964	0.03
735.281	0.03
735.599	0.03
735.916	0.04
736.233	0.03
736.55	0.03
736.867	0.03
737.184	0.04
737.501	0.03
737.818	0.03
738.135	0.04
738.452	0.03
738.768	0.03
739.085	0.04
739.402	0.03
739.718	0.04
740.035	0.03
740.351	0.04
740.668	0.04
740.984	0.03
741.3	0.03
741.617	0.03
741.933	0.03
742.249	0.04
742.565	0.04
742.881	0.04
743.197	0.04
743.513	0.03
743.829	0.03
744.144	0.02
744.46	0.03
744.776	0.04
745.091	0.03
745.407	0.03
745.722	0.03
746.038	0.02
746.353	0.02
746.669	0.03
746.984	0.03
747.299	0.03
747.614	0.03
747.93	0.03
748.245	0.03
748.56	0.03
748.875	0.03
749.189	0.02
749.504	0.03
749.819	0.04
750.134	0.04
750.448	0.03
750.763	0.04
751.078	0.02
751.392	0.03
751.707	0.04
752.021	0.04
752.335	0.05
752.65	0.04
752.964	0.03
753.278	0.04
753.592	0.03
753.906	0.03
754.22	0.04
754.534	0.04
754.848	0.03
755.162	0.03
755.476	0.04
755.789	0.04
756.103	0.03
756.417	0.04
756.73	0.03
757.044	0.04
757.357	0.04
757.671	0.04
757.984	0.05
758.297	0.04
758.61	0.04
758.924	0.04
759.237	0.04
759.55	0.03
759.863	0.03
760.176	0.05
760.488	0.04
760.801	0.03
761.114	0.03
761.427	0.03
761.739	0.04
762.052	0.03
762.365	0.04
762.677	0.03
762.99	0.02
763.302	0.03
763.614	0.03
763.926	0.03
764.239	0.03
764.551	0.03
764.863	0.03
765.175	0.04
765.487	0.03
765.799	0.03
766.111	0.02
766.423	0.03
766.734	0.03
767.046	0.03
767.358	0.03
767.669	0.04
767.981	0.04
768.292	0.03
768.604	0.03
768.915	0.03
769.226	0.03
769.537	0.02
769.849	0.03
770.16	0.03
770.471	0.03
770.782	0.03
771.093	0.03
771.404	0.02
771.715	0.03
772.025	0.03
772.336	0.03
772.647	0.02
772.957	0.03
773.268	0.03
773.578	0.03
773.889	0.03
774.199	0.03
774.51	0.03
774.82	0.03
775.13	0.03
775.44	0.04
775.75	0.03
776.06	0.03
776.37	0.03
776.68	0.03
776.99	0.03
777.3	0.03
777.61	0.03
777.92	0.03
778.229	0.03
778.539	0.03
778.848	0.03
779.158	0.04
779.467	0.03
779.777	0.03
780.086	0.04
780.395	0.03
780.704	0.03
781.013	0.02
781.323	0.03
781.632	0.03
781.941	0.03
782.249	0.03
782.558	0.02
782.867	0.04
783.176	0.02
783.485	0.02
783.793	0.03
784.102	0.03
784.41	0.03
784.719	0.03
785.027	0.03
785.335	0.03
785.644	0.03
785.952	0.02
786.26	0.03
786.568	0.02
786.876	0.02
787.184	0.03
787.492	0.03
787.8	0.02
788.108	0.03
788.416	0.02
788.723	0.02
789.031	0.02
789.338	0.03
789.646	0.02
789.953	0.03
790.261	0.03
790.568	0.03
790.876	0.03
791.183	0.03
791.49	0.03
791.797	0.03
792.104	0.03
792.411	0.03
792.718	0.02
793.025	0.04
793.332	0.04
793.639	0.04
793.945	0.04
794.252	0.04
794.559	0.03
794.865	0.04
795.172	0.04
795.478	0.03
795.784	0.04
796.091	0.04
796.397	0.04
796.703	0.05
797.009	0.04
797.315	0.04
797.622	0.05
797.927	0.05
798.233	0.04
798.539	0.05
798.845	0.04
799.151	0.04
799.456	0.05
799.762	0.04
800.068	0.04
800.373	0.05
800.679	0.03
800.984	0.04
801.289	0.03
801.595	0.04
801.9	0.04
802.205	0.03
802.51	0.04
802.815	0.04
803.12	0.04
803.425	0.04
803.73	0.04
804.035	0.03
804.339	0.03
804.644	0.04
804.949	0.04
805.253	0.03
805.558	0.04
805.862	0.04
806.167	0.04
806.471	0.03
806.775	0.04
807.08	0.04
807.384	0.03
807.688	0.03
807.992	0.04
808.296	0.04
808.6	0.04
808.904	0.05
809.207	0.04
809.511	0.05
809.815	0.05
810.119	0.05
810.422	0.05
810.726	0.06
811.029	0.06
811.332	0.05
811.636	0.05
811.939	0.05
812.242	0.05
812.546	0.06
812.849	0.05
813.152	0.05
813.455	0.05
813.758	0.06
814.06	0.05
814.363	0.06
814.666	0.05
814.969	0.05
815.271	0.05
815.574	0.04
815.877	0.04
816.179	0.05
816.481	0.04
816.784	0.04
817.086	0.03
817.388	0.03
817.69	0.03
817.993	0.02
818.295	0.03
818.597	0.03
818.899	0.04
819.2	0.03
819.502	0.03
819.804	0.03
820.106	0.03
820.407	0.02
820.709	0.04
821.01	0.04
821.312	0.04
821.613	0.03
821.915	0.03
822.216	0.03
822.517	0.02
822.818	0.03
823.119	0.03
823.42	0.03
823.721	0.02
824.022	0.03
824.323	0.03
824.624	0.03
824.925	0.03
825.226	0.03
825.526	0.03
825.827	0.02
826.127	0.04
826.428	0.03
826.728	0.03
827.028	0.03
827.329	0.03
827.629	0.03
827.929	0.03
828.229	0.03
828.529	0.03
828.829	0.03
829.129	0.03
829.429	0.03
829.729	0.03
830.029	0.02
830.328	0.02
830.628	0.01
830.927	0.01
831.227	0.02
831.526	0.02
831.826	0.02
832.125	0.01
832.424	0.02
832.724	0.02
833.023	0.02
833.322	0.02
833.621	0.02
833.92	0.01
834.219	0.01
834.518	0.01
834.816	0
835.115	0.01
835.414	0.01
835.712	0.01
836.011	0.01
836.309	0.01
836.608	0
836.906	0
837.205	-0
837.503	0
837.801	-0
838.099	-0
838.397	-0.01
838.695	-0.01
838.993	0
839.291	-0.01
839.589	-0
839.887	-0.01
840.184	-0.01
840.482	-0.01
840.78	-0.02
841.077	-0.01
841.375	-0.02
841.672	-0.01
841.969	-0.01
842.267	-0.02
842.564	-0.02
842.861	-0.01
843.158	-0.03
843.455	-0.04
843.752	-0.02
844.049	-0.03
844.346	-0.03
844.643	-0.04
844.94	-0.04
845.236	-0.03
845.533	-0.04
845.83	-0.04
846.126	-0.03
846.423	-0.04
846.719	-0.05
847.015	-0.05
847.312	-0.05
847.608	-0.06
847.904	-0.05
848.2	-0.06
848.496	-0.05
848.792	-0.04
849.088	-0.04
849.384	-0.06
849.68	-0.06
849.975	-0.05
850.271	-0.06
850.567	-0.06
850.862	-0.07
851.158	-0.06
851.453	-0.06
851.748	-0.07
852.044	-0.07
852.339	-0.07
852.634	-0.08
852.929	-0.07
853.224	-0.08
853.519	-0.08
853.814	-0.07
854.109	-0.08
854.404	-0.08
854.699	-0.08
854.994	-0.08
855.288	-0.07
855.583	-0.07
855.877	-0.09
856.172	-0.07
856.466	-0.08
856.76	-0.08
857.055	-0.09
857.349	-0.1
857.643	-0.09
857.937	-0.1
858.231	-0.1
858.525	-0.09
858.819	-0.09
859.113	-0.12
859.407	-0.1
859.701	-0.11
859.994	-0.11
860.288	-0.1
860.581	-0.11
860.875	-0.1
861.168	-0.11
861.462	-0.11
861.755	-0.11
862.048	-0.12
862.341	-0.11
862.634	-0.11
862.928	-0.11
863.221	-0.11
863.513	-0.12
863.806	-0.11
864.099	-0.12
864.392	-0.12
864.685	-0.11
864.977	-0.12
865.27	-0.12
865.562	-0.12
865.855	-0.12
866.147	-0.12
866.44	-0.11
866.732	-0.13
867.024	-0.13
867.316	-0.13
867.608	-0.14
867.9	-0.14
868.192	-0.14
868.484	-0.13
868.776	-0.14
869.068	-0.13
869.359	-0.14
869.651	-0.15
869.943	-0.16
870.234	-0.15
870.526	-0.16
870.817	-0.16
871.108	-0.15
871.4	-0.15
871.691	-0.16
871.982	-0.16
872.273	-0.17
872.564	-0.17
872.855	-0.17
873.146	-0.17
873.437	-0.17
873.728	-0.18
874.019	-0.17
874.309	-0.17
874.6	-0.17
874.89	-0.17
875.181	-0.17
875.471	-0.16
875.762	-0.17
876.052	-0.16
876.342	-0.16
876.632	-0.16
876.922	-0.18
877.213	-0.17
877.503	-0.18
877.792	-0.16
878.082	-0.18
878.372	-0.17
878.662	-0.18
878.952	-0.18
879.241	-0.17
879.531	-0.17
879.82	-0.18
880.11	-0.17
880.399	-0.17
880.688	-0.16
880.978	-0.16
881.267	-0.16
