Data from 12-12-AQDScycling_Absorbance__670__00670.txt Node

Date: Tue Dec 12 13:44:14 EST 2023
User: kyuminlee
Spectrometer: FLMS00943
Trigger mode: 0
Integration Time (sec): 1.000000E-1
Scans to average: 1
Electric dark correction enabled: true
Nonlinearity correction enabled: false
Boxcar width: 0
XAxis mode: Wavelengths
Number of Pixels in Spectrum: 2048
>>>>>Begin Spectral Data<<<<<
179.651	-0
180.037	-0
180.424	-0
180.81	-0.37
181.197	0.16
181.583	1.08
181.97	-0
182.356	-1.03
182.743	-0
183.129	0.33
183.515	0.22
183.901	-2.33
184.288	0.03
184.674	1.68
185.06	-0.9
185.446	-0.38
185.832	-1.48
186.218	-0.02
186.604	0.75
186.99	-0
187.376	-0
187.762	-0.43
188.148	-0
188.534	-0.05
188.92	-0
189.305	0.03
189.691	0.13
190.077	0.1
190.463	0.16
190.848	0.1
191.234	0.16
191.619	0.11
192.005	-0.02
192.391	0.11
192.776	0.11
193.161	0.2
193.547	0.16
193.932	0.04
194.318	0.13
194.703	0.13
195.088	0.24
195.473	0.09
195.859	0.15
196.244	0.26
196.629	0.24
197.014	0.08
197.399	0.25
197.784	0.13
198.169	0.02
198.554	0.29
198.939	0.17
199.324	0.2
199.709	0.01
200.094	0.13
200.478	0.06
200.863	0.35
201.248	0.2
201.633	0.12
202.017	0.1
202.402	0.37
202.787	0.06
203.171	0.01
203.556	0.2
203.94	0.21
204.325	0.25
204.709	0.22
205.093	0.14
205.478	0.11
205.862	0.19
206.246	0.15
206.631	0.19
207.015	0.02
207.399	0.2
207.783	0.19
208.167	0.36
208.551	0.23
208.935	0.2
209.319	0.21
209.703	0.05
210.087	0.3
210.471	0.1
210.855	0.18
211.239	0.15
211.623	0.29
212.007	0.3
212.39	0.24
212.774	0.12
213.158	0.1
213.541	0.23
213.925	0.31
214.309	0.31
214.692	0.23
215.076	0.28
215.459	0.14
215.842	0.19
216.226	0.31
216.609	0.33
216.993	0.22
217.376	0.5
217.759	0.19
218.142	0.32
218.525	0.84
218.909	0.47
219.292	0.27
219.675	0.32
220.058	0.33
220.441	0.55
220.824	0.53
221.207	0.62
221.59	0.51
221.973	0.57
222.355	0.58
222.738	0.67
223.121	0.55
223.504	0.5
223.886	0.62
224.269	0.72
224.652	0.69
225.034	0.76
225.417	0.87
225.799	0.77
226.182	0.99
226.564	0.96
226.947	0.74
227.329	0.79
227.711	0.95
228.094	1.01
228.476	1.02
228.858	0.79
229.24	0.91
229.623	1.06
230.005	0.85
230.387	0.8
230.769	0.77
231.151	0.97
231.533	0.92
231.915	0.9
232.297	1.22
232.679	0.95
233.061	1.1
233.442	1.02
233.824	1.03
234.206	1.15
234.588	1.15
234.969	1.07
235.351	0.96
235.733	1.08
236.114	1.12
236.496	1.03
236.877	1.05
237.259	1.07
237.64	0.95
238.022	1.01
238.403	1.13
238.784	1.18
239.165	1.03
239.547	1.08
239.928	1.16
240.309	0.89
240.69	1.02
241.071	1.12
241.452	0.97
241.834	1.09
242.215	1.06
242.595	1.05
242.976	1.2
243.357	1.2
243.738	1.14
244.119	1.34
244.5	1.1
244.881	1.34
245.261	1.19
245.642	1.17
246.023	1.19
246.403	1.14
246.784	1.2
247.164	1.22
247.545	1.3
247.925	1.38
248.306	1.29
248.686	1.31
249.067	1.24
249.447	1.28
249.827	1.33
250.207	1.42
250.588	1.24
250.968	1.29
251.348	1.34
251.728	1.42
252.108	1.27
252.488	1.42
252.868	1.37
253.248	1.28
253.628	1.5
254.008	1.41
254.388	1.29
254.768	1.31
255.147	1.48
255.527	1.45
255.907	1.34
256.287	1.39
256.666	1.37
257.046	1.4
257.425	1.41
257.805	1.26
258.184	1.31
258.564	1.49
258.943	1.45
259.323	1.46
259.702	1.46
260.081	1.62
260.461	1.48
260.84	1.45
261.219	1.75
261.598	1.42
261.977	1.41
262.356	1.61
262.736	1.47
263.115	1.6
263.494	1.49
263.873	1.4
264.251	1.49
264.63	1.48
265.009	1.38
265.388	1.41
265.767	1.4
266.145	1.43
266.524	1.39
266.903	1.46
267.281	1.39
267.66	1.64
268.039	1.47
268.417	1.55
268.796	1.47
269.174	1.4
269.552	1.31
269.931	1.33
270.309	1.39
270.687	1.62
271.066	1.47
271.444	1.37
271.822	1.7
272.2	1.43
272.578	1.43
272.956	1.5
273.334	1.36
273.712	1.58
274.09	1.44
274.468	1.52
274.846	1.27
275.224	1.27
275.602	1.53
275.98	1.62
276.357	1.46
276.735	1.39
277.113	1.32
277.49	1.41
277.868	1.39
278.246	1.45
278.623	1.3
279.001	1.39
279.378	1.37
279.756	1.53
280.133	1.65
280.51	1.38
280.888	1.34
281.265	1.39
281.642	1.49
282.019	1.49
282.396	1.64
282.773	1.49
283.151	1.64
283.528	1.49
283.905	1.4
284.282	1.46
284.659	1.56
285.035	1.38
285.412	1.42
285.789	1.49
286.166	1.39
286.543	1.44
286.919	1.52
287.296	1.35
287.673	1.92
288.049	1.57
288.426	1.47
288.802	1.53
289.179	1.38
289.555	1.52
289.932	1.44
290.308	1.39
290.684	1.34
291.061	1.25
291.437	1.54
291.813	1.46
292.189	1.35
292.565	1.28
292.942	1.47
293.318	1.47
293.694	1.46
294.07	1.32
294.446	1.45
294.822	1.59
295.197	1.41
295.573	1.55
295.949	1.38
296.325	1.5
296.701	1.51
297.076	1.54
297.452	1.63
297.828	1.47
298.203	1.7
298.579	1.51
298.954	1.43
299.33	1.36
299.705	1.41
300.081	1.52
300.456	1.49
300.831	1.53
301.206	1.49
301.582	1.69
301.957	1.5
302.332	1.6
302.707	1.44
303.082	1.45
303.457	1.5
303.832	1.52
304.207	1.38
304.582	1.47
304.957	1.52
305.332	1.5
305.707	1.47
306.082	1.43
306.456	1.73
306.831	1.36
307.206	1.55
307.58	1.48
307.955	1.4
308.33	1.45
308.704	1.44
309.079	1.36
309.453	1.54
309.828	1.6
310.202	1.46
310.576	1.46
310.951	1.57
311.325	1.55
311.699	1.44
312.073	1.39
312.447	1.48
312.821	1.38
313.196	1.43
313.57	1.38
313.944	1.46
314.317	1.42
314.691	1.54
315.065	1.44
315.439	1.52
315.813	1.4
316.187	1.43
316.56	1.51
316.934	1.42
317.308	1.46
317.681	1.47
318.055	1.49
318.428	1.48
318.802	1.43
319.175	1.45
319.549	1.41
319.922	1.44
320.295	1.5
320.669	1.57
321.042	1.48
321.415	1.67
321.788	1.51
322.162	1.53
322.535	1.53
322.908	1.55
323.281	1.49
323.654	1.63
324.027	1.43
324.4	1.51
324.773	1.57
325.145	1.49
325.518	1.52
325.891	1.41
326.264	1.63
326.636	1.51
327.009	1.41
327.382	1.49
327.754	1.81
328.127	1.51
328.499	1.6
328.872	1.55
329.244	1.69
329.616	1.39
329.989	1.42
330.361	1.43
330.733	1.42
331.106	1.38
331.478	1.69
331.85	1.52
332.222	1.38
332.594	1.45
332.966	1.56
333.338	1.67
333.71	1.53
334.082	1.65
334.454	1.55
334.826	1.56
335.197	1.67
335.569	1.53
335.941	1.46
336.312	1.35
336.684	1.44
337.056	1.45
337.427	1.72
337.799	1.54
338.17	1.49
338.542	1.41
338.913	1.58
339.284	1.63
339.656	1.48
340.027	1.61
340.398	1.74
340.769	1.64
341.141	1.65
341.512	1.56
341.883	1.45
342.254	1.59
342.625	1.69
342.996	1.52
343.367	1.46
343.738	1.52
344.108	1.43
344.479	1.52
344.85	1.44
345.221	1.44
345.591	1.43
345.962	1.42
346.333	1.56
346.703	1.37
347.074	1.3
347.444	1.32
347.815	1.42
348.185	1.38
348.556	1.37
348.926	1.22
349.296	1.47
349.666	1.51
350.037	1.33
350.407	1.3
350.777	1.37
351.147	1.38
351.517	1.31
351.887	1.34
352.257	1.44
352.627	1.3
352.997	1.36
353.367	1.42
353.737	1.45
354.106	1.47
354.476	1.37
354.846	1.37
355.216	1.35
355.585	1.35
355.955	1.36
356.324	1.35
356.694	1.33
357.063	1.4
357.433	1.32
357.802	1.35
358.171	1.43
358.541	1.36
358.91	1.41
359.279	1.33
359.648	1.27
360.017	1.37
360.387	1.24
360.756	1.26
361.125	1.25
361.494	1.31
361.863	1.27
362.231	1.25
362.6	1.25
362.969	1.23
363.338	1.17
363.707	1.29
364.075	1.33
364.444	1.14
364.813	1.26
365.181	1.21
365.55	1.28
365.918	1.31
366.287	1.22
366.655	1.3
367.024	1.24
367.392	1.24
367.76	1.2
368.128	1.21
368.497	1.27
368.865	1.22
369.233	1.23
369.601	1.18
369.969	1.19
370.337	1.35
370.705	1.25
371.073	1.18
371.441	1.2
371.809	1.21
372.177	1.17
372.544	1.22
372.912	1.24
373.28	1.19
373.647	1.27
374.015	1.23
374.383	1.27
374.75	1.3
375.118	1.23
375.485	1.23
375.853	1.23
376.22	1.26
376.587	1.22
376.955	1.34
377.322	1.24
377.689	1.23
378.056	1.21
378.423	1.24
378.79	1.24
379.157	1.18
379.524	1.36
379.891	1.19
380.258	1.28
380.625	1.29
380.992	1.28
381.359	1.28
381.726	1.35
382.092	1.32
382.459	1.25
382.826	1.31
383.192	1.3
383.559	1.28
383.925	1.39
384.292	1.22
384.658	1.39
385.025	1.33
385.391	1.4
385.757	1.4
386.123	1.3
386.49	1.35
386.856	1.43
387.222	1.44
387.588	1.33
387.954	1.55
388.32	1.42
388.686	1.44
389.052	1.33
389.418	1.42
389.784	1.37
390.15	1.34
390.515	1.29
390.881	1.38
391.247	1.42
391.613	1.45
391.978	1.35
392.344	1.4
392.709	1.45
393.075	1.33
393.44	1.47
393.806	1.35
394.171	1.38
394.536	1.32
394.902	1.4
395.267	1.33
395.632	1.29
395.997	1.35
396.362	1.42
396.727	1.42
397.092	1.35
397.457	1.4
397.822	1.3
398.187	1.41
398.552	1.3
398.917	1.39
399.282	1.4
399.646	1.32
400.011	1.41
400.376	1.25
400.74	1.27
401.105	1.25
401.47	1.29
401.834	1.27
402.199	1.27
402.563	1.27
402.927	1.27
403.292	1.24
403.656	1.25
404.02	1.22
404.384	1.32
404.749	1.27
405.113	1.21
405.477	1.23
405.841	1.21
406.205	1.23
406.569	1.23
406.933	1.22
407.296	1.16
407.66	1.2
408.024	1.14
408.388	1.21
408.752	1.18
409.115	1.18
409.479	1.17
409.842	1.1
410.206	1.1
410.569	1.1
410.933	1.1
411.296	1.06
411.66	1.1
412.023	1.09
412.386	1.14
412.749	1.07
413.113	1.12
413.476	1.03
413.839	1.04
414.202	1.05
414.565	1.07
414.928	1.05
415.291	1.04
415.654	1.04
416.017	1.01
416.38	1
416.742	1.02
417.105	0.98
417.468	1.02
417.83	1.02
418.193	1.03
418.556	1.02
418.918	1
419.281	1.02
419.643	1.09
420.005	1.03
420.368	1.04
420.73	1
421.092	1.03
421.455	1.03
421.817	0.96
422.179	0.96
422.541	0.99
422.903	1.03
423.265	1.02
423.627	0.98
423.989	0.98
424.351	0.96
424.713	1
425.075	0.97
425.436	0.95
425.798	0.95
426.16	0.99
426.521	0.96
426.883	1
427.245	0.96
427.606	0.93
427.967	0.91
428.329	0.95
428.69	0.98
429.052	0.93
429.413	0.95
429.774	0.94
430.135	0.94
430.497	0.95
430.858	0.92
431.219	0.91
431.58	0.9
431.941	0.92
432.302	0.91
432.663	0.91
433.024	0.95
433.384	0.92
433.745	0.87
434.106	0.88
434.467	0.9
434.827	0.87
435.188	0.91
435.548	0.92
435.909	0.88
436.269	0.93
436.63	0.88
436.99	0.89
437.351	0.84
437.711	0.89
438.071	0.86
438.431	0.83
438.792	0.83
439.152	0.83
439.512	0.81
439.872	0.82
440.232	0.84
440.592	0.83
440.952	0.83
441.312	0.82
441.671	0.82
442.031	0.8
442.391	0.8
442.751	0.82
443.11	0.82
443.47	0.78
443.83	0.78
444.189	0.79
444.549	0.79
444.908	0.77
445.267	0.78
445.627	0.75
445.986	0.75
446.345	0.75
446.705	0.76
447.064	0.76
447.423	0.74
447.782	0.76
448.141	0.74
448.5	0.7
448.859	0.72
449.218	0.72
449.577	0.73
449.936	0.73
450.295	0.7
450.653	0.7
451.012	0.71
451.371	0.71
451.729	0.7
452.088	0.72
452.447	0.7
452.805	0.69
453.163	0.68
453.522	0.69
453.88	0.68
454.239	0.68
454.597	0.64
454.955	0.65
455.313	0.64
455.671	0.65
456.029	0.65
456.388	0.63
456.746	0.64
457.104	0.61
457.461	0.62
457.819	0.61
458.177	0.6
458.535	0.59
458.893	0.59
459.25	0.59
459.608	0.58
459.966	0.56
460.323	0.56
460.681	0.55
461.038	0.55
461.396	0.54
461.753	0.54
462.111	0.53
462.468	0.53
462.825	0.52
463.182	0.52
463.54	0.51
463.897	0.52
464.254	0.51
464.611	0.5
464.968	0.49
465.325	0.5
465.682	0.47
466.039	0.48
466.395	0.47
466.752	0.48
467.109	0.46
467.466	0.46
467.822	0.46
468.179	0.44
468.535	0.44
468.892	0.43
469.248	0.42
469.605	0.43
469.961	0.42
470.318	0.43
470.674	0.42
471.03	0.41
471.386	0.41
471.743	0.39
472.099	0.39
472.455	0.38
472.811	0.37
473.167	0.38
473.523	0.37
473.879	0.37
474.235	0.37
474.59	0.35
474.946	0.35
475.302	0.35
475.657	0.34
476.013	0.34
476.369	0.33
476.724	0.34
477.08	0.34
477.435	0.32
477.791	0.32
478.146	0.32
478.501	0.32
478.857	0.32
479.212	0.3
479.567	0.3
479.922	0.29
480.277	0.3
480.632	0.29
480.987	0.29
481.342	0.28
481.697	0.28
482.052	0.28
482.407	0.28
482.762	0.27
483.116	0.27
483.471	0.26
483.826	0.25
484.18	0.25
484.535	0.26
484.89	0.25
485.244	0.24
485.598	0.25
485.953	0.24
486.307	0.24
486.661	0.24
487.016	0.24
487.37	0.24
487.724	0.23
488.078	0.23
488.432	0.23
488.786	0.23
489.14	0.22
489.494	0.22
489.848	0.22
490.202	0.21
490.556	0.22
490.91	0.22
491.263	0.21
491.617	0.21
491.971	0.2
492.324	0.2
492.678	0.21
493.031	0.21
493.385	0.2
493.738	0.2
494.091	0.2
494.445	0.2
494.798	0.2
495.151	0.19
495.504	0.2
495.857	0.19
496.21	0.19
496.564	0.18
496.916	0.19
497.269	0.18
497.622	0.19
497.975	0.18
498.328	0.18
498.681	0.18
499.033	0.17
499.386	0.18
499.739	0.17
500.091	0.18
500.444	0.17
500.796	0.18
501.149	0.17
501.501	0.17
501.854	0.17
502.206	0.17
502.558	0.17
502.91	0.17
503.263	0.17
503.615	0.17
503.967	0.17
504.319	0.17
504.671	0.17
505.023	0.17
505.375	0.17
505.726	0.17
506.078	0.16
506.43	0.16
506.782	0.16
507.133	0.16
507.485	0.17
507.837	0.17
508.188	0.16
508.54	0.17
508.891	0.17
509.243	0.16
509.594	0.17
509.945	0.17
510.296	0.16
510.648	0.17
510.999	0.16
511.35	0.16
511.701	0.16
512.052	0.17
512.403	0.17
512.754	0.17
513.105	0.16
513.456	0.16
513.807	0.16
514.157	0.16
514.508	0.16
514.859	0.15
515.209	0.16
515.56	0.16
515.91	0.16
516.261	0.16
516.611	0.16
516.962	0.16
517.312	0.16
517.662	0.16
518.013	0.15
518.363	0.17
518.713	0.16
519.063	0.17
519.413	0.17
519.763	0.16
520.113	0.17
520.463	0.17
520.813	0.17
521.163	0.17
521.512	0.16
521.862	0.17
522.212	0.16
522.562	0.17
522.911	0.17
523.261	0.16
523.61	0.17
523.96	0.16
524.309	0.17
524.658	0.17
525.008	0.16
525.357	0.16
525.706	0.16
526.056	0.16
526.405	0.16
526.754	0.16
527.103	0.16
527.452	0.16
527.801	0.16
528.15	0.16
528.499	0.16
528.847	0.17
529.196	0.18
529.545	0.17
529.893	0.18
530.242	0.17
530.591	0.17
530.939	0.17
531.288	0.17
531.636	0.18
531.985	0.17
532.333	0.17
532.681	0.17
533.029	0.17
533.378	0.17
533.726	0.17
534.074	0.18
534.422	0.17
534.77	0.18
535.118	0.17
535.466	0.17
535.814	0.17
536.162	0.17
536.509	0.18
536.857	0.17
537.205	0.18
537.552	0.18
537.9	0.18
538.248	0.17
538.595	0.18
538.943	0.18
539.29	0.17
539.637	0.18
539.985	0.18
540.332	0.17
540.679	0.17
541.026	0.17
541.373	0.18
541.721	0.17
542.068	0.18
542.415	0.18
542.762	0.17
543.108	0.16
543.455	0.16
543.802	0.17
544.149	0.17
544.496	0.17
544.842	0.17
545.189	0.16
545.535	0.16
545.882	0.17
546.228	0.16
546.575	0.16
546.921	0.16
547.267	0.16
547.614	0.17
547.96	0.17
548.306	0.16
548.652	0.16
548.998	0.17
549.344	0.17
549.69	0.17
550.036	0.16
550.382	0.17
550.728	0.17
551.074	0.17
551.42	0.17
551.765	0.17
552.111	0.17
552.457	0.18
552.802	0.17
553.148	0.17
553.493	0.17
553.839	0.18
554.184	0.18
554.529	0.17
554.875	0.17
555.22	0.17
555.565	0.18
555.91	0.18
556.255	0.18
556.6	0.18
556.945	0.17
557.29	0.17
557.635	0.17
557.98	0.18
558.325	0.18
558.67	0.18
559.014	0.18
559.359	0.18
559.704	0.18
560.048	0.17
560.393	0.17
560.737	0.16
561.082	0.17
561.426	0.16
561.77	0.17
562.115	0.17
562.459	0.17
562.803	0.17
563.147	0.17
563.491	0.17
563.835	0.18
564.179	0.17
564.523	0.18
564.867	0.17
565.211	0.17
565.555	0.17
565.899	0.18
566.242	0.18
566.586	0.17
566.93	0.18
567.273	0.18
567.617	0.18
567.96	0.18
568.304	0.17
568.647	0.17
568.99	0.18
569.334	0.19
569.677	0.17
570.02	0.18
570.363	0.17
570.706	0.18
571.049	0.18
571.392	0.18
571.735	0.17
572.078	0.18
572.421	0.19
572.764	0.18
573.106	0.18
573.449	0.17
573.792	0.18
574.134	0.18
574.477	0.18
574.819	0.17
575.162	0.17
575.504	0.17
575.847	0.18
576.189	0.18
576.531	0.17
576.873	0.18
577.215	0.17
577.558	0.18
577.9	0.18
578.242	0.18
578.584	0.17
578.926	0.17
579.267	0.18
579.609	0.18
579.951	0.18
580.293	0.18
580.634	0.18
580.976	0.18
581.318	0.18
581.659	0.18
582.001	0.17
582.342	0.17
582.683	0.18
583.025	0.17
583.366	0.17
583.707	0.17
584.049	0.17
584.39	0.17
584.731	0.17
585.072	0.17
585.413	0.18
585.754	0.18
586.095	0.18
586.435	0.17
586.776	0.17
587.117	0.18
587.458	0.17
587.798	0.18
588.139	0.17
588.48	0.16
588.82	0.17
589.161	0.17
589.501	0.17
589.841	0.17
590.182	0.17
590.522	0.17
590.862	0.17
591.202	0.17
591.542	0.17
591.882	0.17
592.222	0.17
592.562	0.17
592.902	0.17
593.242	0.17
593.582	0.18
593.922	0.17
594.261	0.17
594.601	0.18
594.941	0.17
595.28	0.17
595.62	0.17
595.959	0.17
596.299	0.17
596.638	0.16
596.977	0.17
597.317	0.17
597.656	0.18
597.995	0.18
598.334	0.18
598.673	0.17
599.012	0.17
599.351	0.18
599.69	0.17
600.029	0.18
600.368	0.18
600.707	0.18
601.046	0.17
601.384	0.18
601.723	0.18
602.061	0.18
602.4	0.18
602.738	0.18
603.077	0.18
603.415	0.18
603.754	0.17
604.092	0.18
604.43	0.17
604.768	0.17
605.107	0.18
605.445	0.17
605.783	0.17
606.121	0.16
606.459	0.17
606.796	0.17
607.134	0.17
607.472	0.17
607.81	0.17
608.148	0.18
608.485	0.18
608.823	0.17
609.16	0.16
609.498	0.17
609.835	0.17
610.173	0.17
610.51	0.18
610.847	0.17
611.185	0.17
611.522	0.17
611.859	0.18
612.196	0.16
612.533	0.18
612.87	0.17
613.207	0.17
613.544	0.17
613.881	0.18
614.217	0.18
614.554	0.18
614.891	0.18
615.228	0.17
615.564	0.18
615.901	0.18
616.237	0.17
616.574	0.17
616.91	0.18
617.246	0.18
617.583	0.18
617.919	0.18
618.255	0.18
618.591	0.17
618.927	0.17
619.263	0.18
619.599	0.17
619.935	0.17
620.271	0.18
620.607	0.17
620.943	0.17
621.279	0.18
621.614	0.17
621.95	0.18
622.286	0.18
622.621	0.17
622.957	0.17
623.292	0.17
623.627	0.17
623.963	0.17
624.298	0.18
624.633	0.17
624.968	0.16
625.304	0.17
625.639	0.17
625.974	0.16
626.309	0.16
626.644	0.16
626.979	0.17
627.313	0.17
627.648	0.17
627.983	0.16
628.318	0.16
628.652	0.16
628.987	0.16
629.321	0.16
629.656	0.16
629.99	0.15
630.325	0.16
630.659	0.15
630.993	0.15
631.327	0.16
631.662	0.14
631.996	0.15
632.33	0.15
632.664	0.16
632.998	0.15
633.332	0.15
633.666	0.16
633.999	0.15
634.333	0.15
634.667	0.15
635.001	0.15
635.334	0.15
635.668	0.15
636.001	0.15
636.335	0.15
636.668	0.15
637.001	0.14
637.335	0.14
637.668	0.15
638.001	0.14
638.334	0.15
638.668	0.15
639.001	0.15
639.334	0.15
639.667	0.15
639.999	0.15
640.332	0.15
640.665	0.15
640.998	0.15
641.331	0.15
641.663	0.14
641.996	0.15
642.328	0.16
642.661	0.15
642.993	0.15
643.326	0.15
643.658	0.15
643.99	0.15
644.323	0.15
644.655	0.15
644.987	0.15
645.319	0.15
645.651	0.15
645.983	0.14
646.315	0.14
646.647	0.15
646.979	0.15
647.31	0.15
647.642	0.14
647.974	0.15
648.305	0.15
648.637	0.15
648.968	0.15
649.3	0.15
649.631	0.15
649.963	0.15
650.294	0.15
650.625	0.15
650.957	0.15
651.288	0.15
651.619	0.15
651.95	0.15
652.281	0.15
652.612	0.15
652.943	0.15
653.274	0.16
653.604	0.14
653.935	0.14
654.266	0.15
654.596	0.14
654.927	0.14
655.258	0.15
655.588	0.16
655.918	0.15
656.249	0.12
656.579	0.14
656.909	0.14
657.24	0.15
657.57	0.14
657.9	0.14
658.23	0.15
658.56	0.15
658.89	0.14
659.22	0.14
659.55	0.14
659.88	0.14
660.209	0.14
660.539	0.15
660.869	0.14
661.198	0.14
661.528	0.13
661.857	0.13
662.187	0.14
662.516	0.14
662.846	0.14
663.175	0.14
663.504	0.14
663.833	0.14
664.163	0.13
664.492	0.13
664.821	0.14
665.15	0.14
665.479	0.13
665.807	0.13
666.136	0.14
666.465	0.14
666.794	0.14
667.122	0.14
667.451	0.14
667.78	0.15
668.108	0.14
668.437	0.14
668.765	0.14
669.093	0.15
669.422	0.14
669.75	0.14
670.078	0.14
670.406	0.14
670.734	0.14
671.062	0.13
671.39	0.14
671.718	0.14
672.046	0.14
672.374	0.14
672.702	0.13
673.029	0.13
673.357	0.13
673.685	0.13
674.012	0.13
674.34	0.13
674.667	0.14
674.995	0.14
675.322	0.13
675.649	0.13
675.977	0.13
676.304	0.13
676.631	0.13
676.958	0.13
677.285	0.12
677.612	0.12
677.939	0.13
678.266	0.14
678.593	0.13
678.92	0.13
679.246	0.12
679.573	0.13
679.9	0.12
680.226	0.13
680.553	0.12
680.879	0.12
681.206	0.13
681.532	0.13
681.858	0.13
682.184	0.13
682.511	0.12
682.837	0.12
683.163	0.13
683.489	0.13
683.815	0.12
684.141	0.13
684.467	0.13
684.793	0.12
685.118	0.13
685.444	0.12
685.77	0.12
686.095	0.13
686.421	0.13
686.746	0.12
687.072	0.12
687.397	0.12
687.723	0.12
688.048	0.13
688.373	0.12
688.698	0.12
689.023	0.12
689.349	0.12
689.674	0.12
689.999	0.12
690.323	0.11
690.648	0.11
690.973	0.11
691.298	0.12
691.623	0.11
691.947	0.11
692.272	0.12
692.596	0.12
692.921	0.12
693.245	0.12
693.57	0.11
693.894	0.13
694.218	0.12
694.543	0.12
694.867	0.12
695.191	0.12
695.515	0.12
695.839	0.12
696.163	0.12
696.487	0.12
696.811	0.11
697.135	0.12
697.458	0.12
697.782	0.12
698.106	0.12
698.429	0.12
698.753	0.12
699.076	0.12
699.4	0.12
699.723	0.12
700.046	0.11
700.37	0.11
700.693	0.12
701.016	0.12
701.339	0.11
701.662	0.12
701.985	0.12
702.308	0.11
702.631	0.12
702.954	0.11
703.277	0.11
703.599	0.11
703.922	0.11
704.245	0.11
704.567	0.11
704.89	0.11
705.212	0.11
705.535	0.1
705.857	0.1
706.179	0.1
706.502	0.1
706.824	0.1
707.146	0.1
707.468	0.11
707.79	0.11
708.112	0.1
708.434	0.11
708.756	0.1
709.078	0.11
709.399	0.1
709.721	0.11
710.043	0.11
710.364	0.11
710.686	0.11
711.007	0.11
711.329	0.11
711.65	0.11
711.972	0.1
712.293	0.12
712.614	0.11
712.935	0.11
713.256	0.11
713.577	0.11
713.898	0.1
714.219	0.11
714.54	0.09
714.861	0.1
715.182	0.1
715.503	0.09
715.823	0.1
716.144	0.1
716.464	0.1
716.785	0.1
717.105	0.09
717.426	0.1
717.746	0.1
718.066	0.09
718.387	0.09
718.707	0.09
719.027	0.1
719.347	0.09
719.667	0.09
719.987	0.09
720.307	0.09
720.627	0.09
720.947	0.09
721.266	0.09
721.586	0.09
721.906	0.09
722.225	0.09
722.545	0.09
722.864	0.08
723.184	0.1
723.503	0.09
723.823	0.09
724.142	0.09
724.461	0.09
724.78	0.09
725.099	0.1
725.418	0.09
725.737	0.09
726.056	0.1
726.375	0.09
726.694	0.09
727.013	0.09
727.331	0.09
727.65	0.09
727.969	0.1
728.287	0.1
728.606	0.08
728.924	0.09
729.242	0.09
729.561	0.09
729.879	0.09
730.197	0.09
730.515	0.09
730.834	0.08
731.152	0.09
731.47	0.08
731.788	0.09
732.105	0.08
732.423	0.08
732.741	0.09
733.059	0.09
733.376	0.09
733.694	0.09
734.012	0.09
734.329	0.09
734.647	0.09
734.964	0.09
735.281	0.1
735.599	0.09
735.916	0.1
736.233	0.09
736.55	0.09
736.867	0.09
737.184	0.1
737.501	0.09
737.818	0.1
738.135	0.09
738.452	0.09
738.768	0.09
739.085	0.09
739.402	0.08
739.718	0.09
740.035	0.09
740.351	0.09
740.668	0.09
740.984	0.08
741.3	0.08
741.617	0.08
741.933	0.07
742.249	0.09
742.565	0.08
742.881	0.09
743.197	0.08
743.513	0.08
743.829	0.08
744.144	0.07
744.46	0.08
744.776	0.08
745.091	0.08
745.407	0.08
745.722	0.08
746.038	0.08
746.353	0.06
746.669	0.08
746.984	0.07
747.299	0.07
747.614	0.08
747.93	0.08
748.245	0.07
748.56	0.06
748.875	0.07
749.189	0.07
749.504	0.07
749.819	0.07
750.134	0.07
750.448	0.07
750.763	0.07
751.078	0.06
751.392	0.07
751.707	0.08
752.021	0.08
752.335	0.08
752.65	0.08
752.964	0.07
753.278	0.08
753.592	0.07
753.906	0.07
754.22	0.07
754.534	0.08
754.848	0.07
755.162	0.07
755.476	0.08
755.789	0.08
756.103	0.08
756.417	0.08
756.73	0.08
757.044	0.08
757.357	0.08
757.671	0.08
757.984	0.08
758.297	0.08
758.61	0.08
758.924	0.08
759.237	0.07
759.55	0.07
759.863	0.08
760.176	0.08
760.488	0.07
760.801	0.07
761.114	0.07
761.427	0.07
761.739	0.08
762.052	0.07
762.365	0.07
762.677	0.07
762.99	0.06
763.302	0.07
763.614	0.07
763.926	0.07
764.239	0.07
764.551	0.07
764.863	0.07
765.175	0.07
765.487	0.07
765.799	0.06
766.111	0.06
766.423	0.06
766.734	0.06
767.046	0.06
767.358	0.07
767.669	0.07
767.981	0.08
768.292	0.07
768.604	0.07
768.915	0.07
769.226	0.07
769.537	0.05
769.849	0.07
770.16	0.07
770.471	0.06
770.782	0.07
771.093	0.07
771.404	0.05
771.715	0.06
772.025	0.06
772.336	0.06
772.647	0.06
772.957	0.06
773.268	0.07
773.578	0.06
773.889	0.07
774.199	0.07
774.51	0.07
774.82	0.07
775.13	0.07
775.44	0.07
775.75	0.07
776.06	0.07
776.37	0.07
776.68	0.08
776.99	0.07
777.3	0.07
777.61	0.08
777.92	0.07
778.229	0.07
778.539	0.06
778.848	0.07
779.158	0.07
779.467	0.07
779.777	0.06
780.086	0.07
780.395	0.06
780.704	0.06
781.013	0.05
781.323	0.05
781.632	0.06
781.941	0.06
782.249	0.06
782.558	0.06
782.867	0.06
783.176	0.05
783.485	0.06
783.793	0.06
784.102	0.05
784.41	0.06
784.719	0.05
785.027	0.05
785.335	0.06
785.644	0.06
785.952	0.05
786.26	0.06
786.568	0.05
786.876	0.05
787.184	0.06
787.492	0.06
787.8	0.05
788.108	0.06
788.416	0.06
788.723	0.06
789.031	0.05
789.338	0.06
789.646	0.06
789.953	0.06
790.261	0.06
790.568	0.06
790.876	0.06
791.183	0.06
791.49	0.05
791.797	0.06
792.104	0.06
792.411	0.07
792.718	0.06
793.025	0.06
793.332	0.06
793.639	0.06
793.945	0.07
794.252	0.06
794.559	0.07
794.865	0.07
795.172	0.07
795.478	0.05
795.784	0.06
796.091	0.06
796.397	0.07
796.703	0.06
797.009	0.07
797.315	0.07
797.622	0.07
797.927	0.07
798.233	0.06
798.539	0.08
798.845	0.07
799.151	0.07
799.456	0.07
799.762	0.07
800.068	0.07
800.373	0.07
800.679	0.07
800.984	0.07
801.289	0.06
801.595	0.07
801.9	0.07
802.205	0.07
802.51	0.07
802.815	0.07
803.12	0.07
803.425	0.06
803.73	0.07
804.035	0.06
804.339	0.06
804.644	0.07
804.949	0.06
805.253	0.07
805.558	0.07
805.862	0.07
806.167	0.06
806.471	0.05
806.775	0.06
807.08	0.06
807.384	0.05
807.688	0.06
807.992	0.06
808.296	0.06
808.6	0.06
808.904	0.07
809.207	0.06
809.511	0.07
809.815	0.07
810.119	0.06
810.422	0.06
810.726	0.08
811.029	0.08
811.332	0.07
811.636	0.07
811.939	0.07
812.242	0.07
812.546	0.07
812.849	0.07
813.152	0.08
813.455	0.08
813.758	0.08
814.06	0.08
814.363	0.07
814.666	0.07
814.969	0.08
815.271	0.07
815.574	0.07
815.877	0.07
816.179	0.07
816.481	0.07
816.784	0.07
817.086	0.06
817.388	0.06
817.69	0.06
817.993	0.06
818.295	0.06
818.597	0.06
818.899	0.05
819.2	0.05
819.502	0.05
819.804	0.05
820.106	0.06
820.407	0.04
820.709	0.05
821.01	0.05
821.312	0.05
821.613	0.04
821.915	0.05
822.216	0.04
822.517	0.04
822.818	0.03
823.119	0.04
823.42	0.05
823.721	0.05
824.022	0.04
824.323	0.05
824.624	0.05
824.925	0.05
825.226	0.05
825.526	0.04
825.827	0.05
826.127	0.05
826.428	0.05
826.728	0.04
827.028	0.04
827.329	0.05
827.629	0.03
827.929	0.04
828.229	0.04
828.529	0.05
828.829	0.04
829.129	0.04
829.429	0.04
829.729	0.05
830.029	0.04
830.328	0.04
830.628	0.04
830.927	0.03
831.227	0.04
831.526	0.04
831.826	0.05
832.125	0.04
832.424	0.04
832.724	0.04
833.023	0.04
833.322	0.04
833.621	0.04
833.92	0.03
834.219	0.04
834.518	0.04
834.816	0.03
835.115	0.03
835.414	0.04
835.712	0.02
836.011	0.02
836.309	0.03
836.608	0.02
836.906	0.01
837.205	0
837.503	0.02
837.801	0.01
838.099	0.01
838.397	-0
838.695	0
838.993	0
839.291	-0.01
839.589	-0
839.887	0
840.184	-0.01
840.482	-0.01
840.78	-0
841.077	-0
841.375	-0.01
841.672	-0
841.969	-0
842.267	-0
842.564	-0.01
842.861	-0.01
843.158	-0
843.455	-0.02
843.752	-0.02
844.049	-0.01
844.346	-0.01
844.643	-0.03
844.94	-0.01
845.236	-0.01
845.533	-0.01
845.83	-0.01
846.126	-0.02
846.423	-0.01
846.719	-0.03
847.015	-0.02
847.312	-0.02
847.608	-0.03
847.904	-0.03
848.2	-0.03
848.496	-0.03
848.792	-0.03
849.088	-0.02
849.384	-0.03
849.68	-0.04
849.975	-0.03
850.271	-0.03
850.567	-0.04
850.862	-0.04
851.158	-0.04
851.453	-0.04
851.748	-0.05
852.044	-0.04
852.339	-0.04
852.634	-0.07
852.929	-0.05
853.224	-0.05
853.519	-0.05
853.814	-0.05
854.109	-0.05
854.404	-0.05
854.699	-0.05
854.994	-0.05
855.288	-0.05
855.583	-0.05
855.877	-0.06
856.172	-0.06
856.466	-0.06
856.76	-0.06
857.055	-0.06
857.349	-0.07
857.643	-0.08
857.937	-0.08
858.231	-0.08
858.525	-0.09
858.819	-0.09
859.113	-0.1
859.407	-0.1
859.701	-0.1
859.994	-0.1
860.288	-0.08
860.581	-0.11
860.875	-0.1
861.168	-0.09
861.462	-0.1
861.755	-0.08
862.048	-0.1
862.341	-0.1
862.634	-0.11
862.928	-0.1
863.221	-0.1
863.513	-0.11
863.806	-0.11
864.099	-0.11
864.392	-0.11
864.685	-0.11
864.977	-0.11
865.27	-0.12
865.562	-0.11
865.855	-0.11
866.147	-0.11
866.44	-0.11
866.732	-0.12
867.024	-0.12
867.316	-0.12
867.608	-0.12
867.9	-0.11
868.192	-0.12
868.484	-0.12
868.776	-0.13
869.068	-0.14
869.359	-0.13
869.651	-0.13
869.943	-0.13
870.234	-0.15
870.526	-0.14
870.817	-0.13
871.108	-0.12
871.4	-0.13
871.691	-0.14
871.982	-0.14
872.273	-0.15
872.564	-0.15
872.855	-0.14
873.146	-0.16
873.437	-0.16
873.728	-0.15
874.019	-0.15
874.309	-0.16
874.6	-0.15
874.89	-0.16
875.181	-0.16
875.471	-0.16
875.762	-0.15
876.052	-0.16
876.342	-0.14
876.632	-0.16
876.922	-0.17
877.213	-0.16
877.503	-0.17
877.792	-0.16
878.082	-0.18
878.372	-0.15
878.662	-0.18
878.952	-0.17
879.241	-0.16
879.531	-0.17
879.82	-0.15
880.11	-0.16
880.399	-0.15
880.688	-0.15
880.978	-0.15
881.267	-0.15
