Data from 12-12-AQDScycling_Absorbance__30__00030.txt Node

Date: Tue Dec 12 11:04:14 EST 2023
User: kyuminlee
Spectrometer: FLMS00943
Trigger mode: 0
Integration Time (sec): 1.000000E-1
Scans to average: 1
Electric dark correction enabled: true
Nonlinearity correction enabled: false
Boxcar width: 0
XAxis mode: Wavelengths
Number of Pixels in Spectrum: 2048
>>>>>Begin Spectral Data<<<<<
179.651	-0
180.037	-0
180.424	-0
180.81	-0
181.197	0.41
181.583	-0
181.97	-0.22
182.356	-0
182.743	-1.17
183.129	0.07
183.515	1.11
183.901	-2.7
184.288	-0.08
184.674	2.11
185.06	0.24
185.446	-0.54
185.832	-0
186.218	0.01
186.604	0.29
186.99	-0
187.376	0.42
187.762	-0.25
188.148	0.24
188.534	-0.12
188.92	0.03
189.305	0.03
189.691	-0.04
190.077	0.12
190.463	0.03
190.848	0.07
191.234	0.14
191.619	0.1
192.005	0.14
192.391	0.22
192.776	0.1
193.161	0.14
193.547	0.09
193.932	0.04
194.318	0
194.703	0.13
195.088	0.21
195.473	0.23
195.859	0.19
196.244	0.16
196.629	0.11
197.014	0.21
197.399	0.09
197.784	0.18
198.169	0.05
198.554	0.32
198.939	0.16
199.324	0.08
199.709	0.06
200.094	-0.01
200.478	0.18
200.863	0.24
201.248	0.18
201.633	0.1
202.017	0.17
202.402	0.18
202.787	0.11
203.171	0.09
203.556	0.2
203.94	0.18
204.325	0.24
204.709	0.28
205.093	0.02
205.478	0.05
205.862	0.21
206.246	0.16
206.631	0.2
207.015	0.19
207.399	0.12
207.783	0.13
208.167	0.14
208.551	0.14
208.935	0.19
209.319	0.09
209.703	0.08
210.087	0.19
210.471	0.1
210.855	0.04
211.239	0.22
211.623	0.26
212.007	0.11
212.39	0.2
212.774	0.13
213.158	0.08
213.541	0.25
213.925	0.23
214.309	0.27
214.692	0.3
215.076	0.3
215.459	0.27
215.842	0.29
216.226	0.2
216.609	0.28
216.993	0.22
217.376	0.67
217.759	0.12
218.142	0.29
218.525	0.76
218.909	0.3
219.292	0.32
219.675	0.36
220.058	0.34
220.441	0.48
220.824	0.46
221.207	0.61
221.59	0.47
221.973	0.53
222.355	0.52
222.738	0.62
223.121	0.65
223.504	0.58
223.886	0.65
224.269	0.71
224.652	0.6
225.034	0.73
225.417	0.75
225.799	0.68
226.182	0.85
226.564	0.9
226.947	0.72
227.329	0.82
227.711	1.02
228.094	0.78
228.476	0.91
228.858	0.75
229.24	0.91
229.623	0.91
230.005	0.76
230.387	0.87
230.769	0.85
231.151	0.84
231.533	0.94
231.915	0.94
232.297	0.89
232.679	0.89
233.061	0.89
233.442	0.98
233.824	1.03
234.206	1.05
234.588	1.04
234.969	1.05
235.351	1.08
235.733	1.02
236.114	1.06
236.496	1.02
236.877	1.15
237.259	1.08
237.64	1.09
238.022	1.03
238.403	1.05
238.784	0.97
239.165	0.97
239.547	1.07
239.928	1.07
240.309	1.06
240.69	0.99
241.071	1.01
241.452	1.08
241.834	0.99
242.215	1.14
242.595	1.04
242.976	1.09
243.357	1.18
243.738	1.03
244.119	1.26
244.5	1.12
244.881	1.18
245.261	1.15
245.642	1.28
246.023	1.16
246.403	1.16
246.784	1.35
247.164	1.22
247.545	1.33
247.925	1.26
248.306	1.17
248.686	1.41
249.067	1.35
249.447	1.38
249.827	1.61
250.207	1.33
250.588	1.28
250.968	1.34
251.348	1.23
251.728	1.47
252.108	1.33
252.488	1.3
252.868	1.25
253.248	1.3
253.628	1.33
254.008	1.4
254.388	1.3
254.768	1.47
255.147	1.33
255.527	1.39
255.907	1.41
256.287	1.33
256.666	1.41
257.046	1.39
257.425	1.45
257.805	1.3
258.184	1.34
258.564	1.35
258.943	1.41
259.323	1.42
259.702	1.48
260.081	1.39
260.461	1.48
260.84	1.5
261.219	1.72
261.598	1.49
261.977	1.4
262.356	1.46
262.736	1.56
263.115	1.62
263.494	1.38
263.873	1.58
264.251	1.56
264.63	1.5
265.009	1.38
265.388	1.38
265.767	1.37
266.145	1.43
266.524	1.37
266.903	1.45
267.281	1.42
267.66	1.52
268.039	1.47
268.417	1.58
268.796	1.25
269.174	1.5
269.552	1.42
269.931	1.41
270.309	1.5
270.687	1.75
271.066	1.6
271.444	1.41
271.822	1.52
272.2	1.32
272.578	1.46
272.956	1.27
273.334	1.47
273.712	1.46
274.09	1.58
274.468	1.36
274.846	1.28
275.224	1.33
275.602	1.35
275.98	1.55
276.357	1.4
276.735	1.5
277.113	1.46
277.49	1.33
277.868	1.4
278.246	1.31
278.623	1.26
279.001	1.24
279.378	1.37
279.756	1.6
280.133	1.59
280.51	1.33
280.888	1.54
281.265	1.33
281.642	1.37
282.019	1.56
282.396	1.47
282.773	1.39
283.151	1.5
283.528	1.47
283.905	1.4
284.282	1.53
284.659	1.61
285.035	1.35
285.412	1.44
285.789	1.73
286.166	1.45
286.543	1.39
286.919	1.46
287.296	1.41
287.673	1.54
288.049	1.6
288.426	1.55
288.802	1.5
289.179	1.46
289.555	1.62
289.932	1.45
290.308	1.3
290.684	1.45
291.061	1.29
291.437	1.59
291.813	1.5
292.189	1.33
292.565	1.34
292.942	1.39
293.318	1.46
293.694	1.38
294.07	1.26
294.446	1.52
294.822	1.6
295.197	1.4
295.573	1.42
295.949	1.36
296.325	1.47
296.701	1.67
297.076	1.58
297.452	1.49
297.828	1.44
298.203	1.9
298.579	1.42
298.954	1.52
299.33	1.33
299.705	1.45
300.081	1.59
300.456	1.44
300.831	1.44
301.206	1.44
301.582	1.55
301.957	1.57
302.332	1.62
302.707	1.45
303.082	1.35
303.457	1.54
303.832	1.5
304.207	1.37
304.582	1.5
304.957	1.46
305.332	1.51
305.707	1.46
306.082	1.42
306.456	1.63
306.831	1.48
307.206	1.48
307.58	1.52
307.955	1.5
308.33	1.49
308.704	1.41
309.079	1.42
309.453	1.53
309.828	1.53
310.202	1.46
310.576	1.47
310.951	1.53
311.325	1.65
311.699	1.53
312.073	1.42
312.447	1.46
312.821	1.44
313.196	1.7
313.57	1.49
313.944	1.49
314.317	1.38
314.691	1.68
315.065	1.56
315.439	1.51
315.813	1.51
316.187	1.47
316.56	1.56
316.934	1.46
317.308	1.5
317.681	1.51
318.055	1.41
318.428	1.61
318.802	1.72
319.175	1.45
319.549	1.46
319.922	1.36
320.295	1.43
320.669	1.8
321.042	1.59
321.415	1.81
321.788	1.45
322.162	1.65
322.535	1.65
322.908	1.65
323.281	1.56
323.654	1.75
324.027	1.34
324.4	1.51
324.773	1.71
325.145	1.51
325.518	1.44
325.891	1.44
326.264	1.78
326.636	1.41
327.009	1.46
327.382	1.59
327.754	1.6
328.127	1.46
328.499	1.55
328.872	1.66
329.244	1.48
329.616	1.39
329.989	1.45
330.361	1.53
330.733	1.35
331.106	1.51
331.478	1.53
331.85	1.52
332.222	1.43
332.594	1.54
332.966	1.43
333.338	1.81
333.71	1.62
334.082	1.6
334.454	1.46
334.826	1.49
335.197	1.63
335.569	1.44
335.941	1.56
336.312	1.42
336.684	1.5
337.056	1.5
337.427	1.6
337.799	1.59
338.17	1.56
338.542	1.36
338.913	1.51
339.284	1.65
339.656	1.52
340.027	1.62
340.398	1.44
340.769	1.54
341.141	1.78
341.512	1.55
341.883	1.62
342.254	1.67
342.625	1.63
342.996	1.68
343.367	1.6
343.738	1.53
344.108	1.44
344.479	1.57
344.85	1.37
345.221	1.73
345.591	1.37
345.962	1.56
346.333	1.45
346.703	1.33
347.074	1.27
347.444	1.36
347.815	1.45
348.185	1.41
348.556	1.34
348.926	1.32
349.296	1.52
349.666	1.4
350.037	1.26
350.407	1.31
350.777	1.22
351.147	1.4
351.517	1.31
351.887	1.3
352.257	1.48
352.627	1.27
352.997	1.31
353.367	1.3
353.737	1.44
354.106	1.36
354.476	1.33
354.846	1.31
355.216	1.34
355.585	1.4
355.955	1.33
356.324	1.3
356.694	1.28
357.063	1.31
357.433	1.18
357.802	1.21
358.171	1.39
358.541	1.26
358.91	1.24
359.279	1.25
359.648	1.21
360.017	1.25
360.387	1.16
360.756	1.15
361.125	1.15
361.494	1.21
361.863	1.11
362.231	1.1
362.6	1.08
362.969	1.11
363.338	1.08
363.707	1.09
364.075	1.12
364.444	1.05
364.813	1.03
365.181	1.02
365.55	1.01
365.918	1.01
366.287	1.06
366.655	1.02
367.024	1.02
367.392	1.01
367.76	0.97
368.128	0.96
368.497	0.99
368.865	0.98
369.233	0.95
369.601	0.97
369.969	0.96
370.337	0.96
370.705	0.97
371.073	0.96
371.441	0.94
371.809	0.95
372.177	0.94
372.544	0.95
372.912	0.94
373.28	0.93
373.647	0.99
374.015	0.94
374.383	1.01
374.75	0.94
375.118	0.94
375.485	0.92
375.853	0.96
376.22	0.9
376.587	0.9
376.955	0.9
377.322	0.89
377.689	0.91
378.056	0.91
378.423	0.89
378.79	0.91
379.157	0.91
379.524	0.93
379.891	0.9
380.258	0.91
380.625	0.92
380.992	0.91
381.359	0.93
381.726	0.98
382.092	0.95
382.459	0.93
382.826	0.93
383.192	0.92
383.559	0.94
383.925	0.97
384.292	0.94
384.658	0.99
385.025	1
385.391	1.01
385.757	1.01
386.123	0.97
386.49	0.95
386.856	0.97
387.222	1.03
387.588	0.97
387.954	1.03
388.32	1.04
388.686	1
389.052	1.05
389.418	1.05
389.784	0.99
390.15	1.02
390.515	0.95
390.881	1.04
391.247	1.01
391.613	1.04
391.978	0.98
392.344	1.02
392.709	1.02
393.075	1.05
393.44	1.03
393.806	1.06
394.171	0.98
394.536	1
394.902	1
395.267	1.01
395.632	0.98
395.997	0.97
396.362	0.96
396.727	0.98
397.092	0.97
397.457	0.95
397.822	0.99
398.187	0.95
398.552	0.96
398.917	0.99
399.282	0.94
399.646	0.94
400.011	0.96
400.376	0.92
400.74	0.91
401.105	0.9
401.47	0.9
401.834	0.89
402.199	0.89
402.563	0.9
402.927	0.87
403.292	0.9
403.656	0.87
404.02	0.89
404.384	0.89
404.749	0.91
405.113	0.85
405.477	0.84
405.841	0.85
406.205	0.83
406.569	0.82
406.933	0.8
407.296	0.81
407.66	0.82
408.024	0.8
408.388	0.8
408.752	0.78
409.115	0.78
409.479	0.79
409.842	0.78
410.206	0.76
410.569	0.76
410.933	0.77
411.296	0.74
411.66	0.75
412.023	0.72
412.386	0.73
412.749	0.71
413.113	0.73
413.476	0.71
413.839	0.72
414.202	0.72
414.565	0.68
414.928	0.68
415.291	0.7
415.654	0.69
416.017	0.71
416.38	0.69
416.742	0.66
417.105	0.66
417.468	0.7
417.83	0.69
418.193	0.69
418.556	0.68
418.918	0.65
419.281	0.66
419.643	0.66
420.005	0.66
420.368	0.66
420.73	0.64
421.092	0.65
421.455	0.63
421.817	0.64
422.179	0.64
422.541	0.65
422.903	0.64
423.265	0.63
423.627	0.66
423.989	0.62
424.351	0.61
424.713	0.63
425.075	0.62
425.436	0.62
425.798	0.61
426.16	0.64
426.521	0.63
426.883	0.63
427.245	0.59
427.606	0.59
427.967	0.63
428.329	0.63
428.69	0.62
429.052	0.61
429.413	0.6
429.774	0.61
430.135	0.58
430.497	0.59
430.858	0.58
431.219	0.58
431.58	0.57
431.941	0.59
432.302	0.58
432.663	0.6
433.024	0.59
433.384	0.57
433.745	0.55
434.106	0.59
434.467	0.58
434.827	0.58
435.188	0.55
435.548	0.57
435.909	0.56
436.269	0.58
436.63	0.56
436.99	0.56
437.351	0.55
437.711	0.57
438.071	0.56
438.431	0.54
438.792	0.54
439.152	0.53
439.512	0.53
439.872	0.53
440.232	0.54
440.592	0.53
440.952	0.52
441.312	0.53
441.671	0.53
442.031	0.52
442.391	0.52
442.751	0.52
443.11	0.51
443.47	0.51
443.83	0.5
444.189	0.5
444.549	0.5
444.908	0.5
445.267	0.51
445.627	0.49
445.986	0.48
446.345	0.47
446.705	0.49
447.064	0.48
447.423	0.47
447.782	0.49
448.141	0.46
448.5	0.46
448.859	0.47
449.218	0.47
449.577	0.47
449.936	0.47
450.295	0.48
450.653	0.46
451.012	0.47
451.371	0.46
451.729	0.46
452.088	0.47
452.447	0.45
452.805	0.45
453.163	0.45
453.522	0.45
453.88	0.43
454.239	0.43
454.597	0.43
454.955	0.43
455.313	0.43
455.671	0.43
456.029	0.41
456.388	0.41
456.746	0.42
457.104	0.4
457.461	0.4
457.819	0.4
458.177	0.39
458.535	0.39
458.893	0.39
459.25	0.38
459.608	0.38
459.966	0.37
460.323	0.37
460.681	0.36
461.038	0.37
461.396	0.35
461.753	0.35
462.111	0.34
462.468	0.35
462.825	0.35
463.182	0.34
463.54	0.34
463.897	0.34
464.254	0.33
464.611	0.33
464.968	0.32
465.325	0.32
465.682	0.31
466.039	0.32
466.395	0.32
466.752	0.3
467.109	0.31
467.466	0.31
467.822	0.3
468.179	0.29
468.535	0.29
468.892	0.29
469.248	0.29
469.605	0.28
469.961	0.28
470.318	0.28
470.674	0.28
471.03	0.27
471.386	0.28
471.743	0.27
472.099	0.26
472.455	0.26
472.811	0.25
473.167	0.26
473.523	0.24
473.879	0.25
474.235	0.25
474.59	0.24
474.946	0.24
475.302	0.24
475.657	0.23
476.013	0.23
476.369	0.23
476.724	0.24
477.08	0.23
477.435	0.22
477.791	0.22
478.146	0.23
478.501	0.22
478.857	0.22
479.212	0.22
479.567	0.21
479.922	0.2
480.277	0.2
480.632	0.2
480.987	0.2
481.342	0.19
481.697	0.19
482.052	0.19
482.407	0.19
482.762	0.18
483.116	0.18
483.471	0.18
483.826	0.17
484.18	0.18
484.535	0.18
484.89	0.18
485.244	0.17
485.598	0.17
485.953	0.17
486.307	0.18
486.661	0.18
487.016	0.17
487.37	0.17
487.724	0.16
488.078	0.16
488.432	0.16
488.786	0.16
489.14	0.16
489.494	0.15
489.848	0.15
490.202	0.15
490.556	0.15
490.91	0.16
491.263	0.15
491.617	0.15
491.971	0.14
492.324	0.15
492.678	0.15
493.031	0.15
493.385	0.14
493.738	0.14
494.091	0.14
494.445	0.15
494.798	0.14
495.151	0.14
495.504	0.14
495.857	0.14
496.21	0.14
496.564	0.13
496.916	0.14
497.269	0.13
497.622	0.14
497.975	0.13
498.328	0.14
498.681	0.14
499.033	0.13
499.386	0.13
499.739	0.13
500.091	0.12
500.444	0.13
500.796	0.13
501.149	0.13
501.501	0.13
501.854	0.13
502.206	0.13
502.558	0.13
502.91	0.13
503.263	0.13
503.615	0.12
503.967	0.13
504.319	0.12
504.671	0.13
505.023	0.12
505.375	0.12
505.726	0.12
506.078	0.12
506.43	0.11
506.782	0.12
507.133	0.12
507.485	0.12
507.837	0.13
508.188	0.12
508.54	0.12
508.891	0.13
509.243	0.12
509.594	0.11
509.945	0.12
510.296	0.11
510.648	0.12
510.999	0.11
511.35	0.12
511.701	0.11
512.052	0.12
512.403	0.11
512.754	0.11
513.105	0.11
513.456	0.1
513.807	0.1
514.157	0.1
514.508	0.11
514.859	0.1
515.209	0.11
515.56	0.11
515.91	0.1
516.261	0.1
516.611	0.1
516.962	0.11
517.312	0.1
517.662	0.11
518.013	0.1
518.363	0.11
518.713	0.11
519.063	0.11
519.413	0.1
519.763	0.1
520.113	0.11
520.463	0.11
520.813	0.11
521.163	0.11
521.512	0.11
521.862	0.1
522.212	0.11
522.562	0.11
522.911	0.1
523.261	0.11
523.61	0.11
523.96	0.11
524.309	0.12
524.658	0.11
525.008	0.11
525.357	0.11
525.706	0.12
526.056	0.11
526.405	0.11
526.754	0.11
527.103	0.11
527.452	0.12
527.801	0.11
528.15	0.11
528.499	0.11
528.847	0.11
529.196	0.11
529.545	0.11
529.893	0.12
530.242	0.11
530.591	0.11
530.939	0.11
531.288	0.11
531.636	0.11
531.985	0.1
532.333	0.11
532.681	0.11
533.029	0.12
533.378	0.11
533.726	0.11
534.074	0.12
534.422	0.1
534.77	0.11
535.118	0.11
535.466	0.11
535.814	0.11
536.162	0.12
536.509	0.12
536.857	0.11
537.205	0.11
537.552	0.12
537.9	0.11
538.248	0.11
538.595	0.11
538.943	0.11
539.29	0.1
539.637	0.11
539.985	0.11
540.332	0.11
540.679	0.11
541.026	0.11
541.373	0.11
541.721	0.11
542.068	0.11
542.415	0.11
542.762	0.1
543.108	0.1
543.455	0.1
543.802	0.1
544.149	0.11
544.496	0.11
544.842	0.11
545.189	0.09
545.535	0.11
545.882	0.11
546.228	0.11
546.575	0.11
546.921	0.1
547.267	0.11
547.614	0.11
547.96	0.11
548.306	0.1
548.652	0.1
548.998	0.11
549.344	0.1
549.69	0.1
550.036	0.1
550.382	0.11
550.728	0.11
551.074	0.12
551.42	0.11
551.765	0.11
552.111	0.12
552.457	0.11
552.802	0.11
553.148	0.11
553.493	0.11
553.839	0.11
554.184	0.11
554.529	0.1
554.875	0.12
555.22	0.12
555.565	0.12
555.91	0.11
556.255	0.12
556.6	0.12
556.945	0.11
557.29	0.12
557.635	0.12
557.98	0.11
558.325	0.1
558.67	0.11
559.014	0.1
559.359	0.11
559.704	0.11
560.048	0.11
560.393	0.11
560.737	0.1
561.082	0.1
561.426	0.1
561.77	0.1
562.115	0.1
562.459	0.1
562.803	0.1
563.147	0.1
563.491	0.1
563.835	0.11
564.179	0.11
564.523	0.1
564.867	0.1
565.211	0.11
565.555	0.11
565.899	0.11
566.242	0.11
566.586	0.1
566.93	0.11
567.273	0.12
567.617	0.11
567.96	0.12
568.304	0.11
568.647	0.11
568.99	0.11
569.334	0.12
569.677	0.11
570.02	0.12
570.363	0.12
570.706	0.12
571.049	0.12
571.392	0.12
571.735	0.11
572.078	0.12
572.421	0.13
572.764	0.12
573.106	0.11
573.449	0.11
573.792	0.11
574.134	0.11
574.477	0.11
574.819	0.11
575.162	0.11
575.504	0.1
575.847	0.11
576.189	0.11
576.531	0.11
576.873	0.11
577.215	0.11
577.558	0.11
577.9	0.11
578.242	0.11
578.584	0.1
578.926	0.11
579.267	0.11
579.609	0.1
579.951	0.1
580.293	0.11
580.634	0.11
580.976	0.11
581.318	0.11
581.659	0.11
582.001	0.11
582.342	0.11
582.683	0.11
583.025	0.11
583.366	0.11
583.707	0.11
584.049	0.11
584.39	0.11
584.731	0.1
585.072	0.1
585.413	0.11
585.754	0.11
586.095	0.11
586.435	0.11
586.776	0.1
587.117	0.1
587.458	0.11
587.798	0.11
588.139	0.11
588.48	0.1
588.82	0.1
589.161	0.1
589.501	0.1
589.841	0.1
590.182	0.1
590.522	0.09
590.862	0.1
591.202	0.1
591.542	0.1
591.882	0.1
592.222	0.1
592.562	0.1
592.902	0.1
593.242	0.1
593.582	0.11
593.922	0.1
594.261	0.1
594.601	0.1
594.941	0.1
595.28	0.11
595.62	0.11
595.959	0.1
596.299	0.1
596.638	0.1
596.977	0.1
597.317	0.11
597.656	0.1
597.995	0.1
598.334	0.11
598.673	0.11
599.012	0.1
599.351	0.1
599.69	0.1
600.029	0.11
600.368	0.11
600.707	0.11
601.046	0.1
601.384	0.11
601.723	0.11
602.061	0.1
602.4	0.11
602.738	0.11
603.077	0.11
603.415	0.11
603.754	0.11
604.092	0.11
604.43	0.1
604.768	0.11
605.107	0.11
605.445	0.1
605.783	0.11
606.121	0.1
606.459	0.11
606.796	0.11
607.134	0.1
607.472	0.11
607.81	0.11
608.148	0.11
608.485	0.11
608.823	0.11
609.16	0.1
609.498	0.11
609.835	0.11
610.173	0.1
610.51	0.11
610.847	0.12
611.185	0.12
611.522	0.12
611.859	0.11
612.196	0.12
612.533	0.12
612.87	0.12
613.207	0.12
613.544	0.12
613.881	0.12
614.217	0.11
614.554	0.12
614.891	0.11
615.228	0.12
615.564	0.12
615.901	0.11
616.237	0.12
616.574	0.11
616.91	0.12
617.246	0.11
617.583	0.11
617.919	0.12
618.255	0.12
618.591	0.11
618.927	0.11
619.263	0.12
619.599	0.12
619.935	0.12
620.271	0.12
620.607	0.11
620.943	0.11
621.279	0.11
621.614	0.12
621.95	0.12
622.286	0.11
622.621	0.11
622.957	0.11
623.292	0.1
623.627	0.11
623.963	0.11
624.298	0.11
624.633	0.11
624.968	0.1
625.304	0.11
625.639	0.11
625.974	0.11
626.309	0.11
626.644	0.11
626.979	0.11
627.313	0.11
627.648	0.11
627.983	0.11
628.318	0.1
628.652	0.11
628.987	0.11
629.321	0.11
629.656	0.1
629.99	0.1
630.325	0.11
630.659	0.1
630.993	0.1
631.327	0.1
631.662	0.1
631.996	0.1
632.33	0.1
632.664	0.1
632.998	0.1
633.332	0.09
633.666	0.1
633.999	0.09
634.333	0.09
634.667	0.09
635.001	0.09
635.334	0.09
635.668	0.09
636.001	0.09
636.335	0.09
636.668	0.09
637.001	0.09
637.335	0.09
637.668	0.1
638.001	0.09
638.334	0.09
638.668	0.09
639.001	0.09
639.334	0.09
639.667	0.09
639.999	0.09
640.332	0.09
640.665	0.09
640.998	0.1
641.331	0.1
641.663	0.09
641.996	0.09
642.328	0.1
642.661	0.09
642.993	0.09
643.326	0.1
643.658	0.09
643.99	0.09
644.323	0.09
644.655	0.1
644.987	0.1
645.319	0.1
645.651	0.1
645.983	0.1
646.315	0.09
646.647	0.1
646.979	0.11
647.31	0.1
647.642	0.1
647.974	0.1
648.305	0.11
648.637	0.1
648.968	0.1
649.3	0.1
649.631	0.11
649.963	0.1
650.294	0.1
650.625	0.1
650.957	0.1
651.288	0.1
651.619	0.1
651.95	0.1
652.281	0.1
652.612	0.1
652.943	0.09
653.274	0.11
653.604	0.1
653.935	0.1
654.266	0.09
654.596	0.09
654.927	0.09
655.258	0.1
655.588	0.1
655.918	0.1
656.249	0.08
656.579	0.1
656.909	0.1
657.24	0.1
657.57	0.11
657.9	0.1
658.23	0.1
658.56	0.11
658.89	0.1
659.22	0.1
659.55	0.11
659.88	0.1
660.209	0.1
660.539	0.1
660.869	0.1
661.198	0.1
661.528	0.09
661.857	0.1
662.187	0.1
662.516	0.1
662.846	0.09
663.175	0.1
663.504	0.1
663.833	0.09
664.163	0.1
664.492	0.09
664.821	0.1
665.15	0.09
665.479	0.1
665.807	0.09
666.136	0.09
666.465	0.09
666.794	0.1
667.122	0.09
667.451	0.09
667.78	0.09
668.108	0.1
668.437	0.09
668.765	0.1
669.093	0.1
669.422	0.09
669.75	0.09
670.078	0.09
670.406	0.09
670.734	0.1
671.062	0.09
671.39	0.09
671.718	0.09
672.046	0.09
672.374	0.09
672.702	0.09
673.029	0.09
673.357	0.09
673.685	0.1
674.012	0.09
674.34	0.09
674.667	0.09
674.995	0.09
675.322	0.09
675.649	0.09
675.977	0.09
676.304	0.09
676.631	0.09
676.958	0.08
677.285	0.08
677.612	0.08
677.939	0.08
678.266	0.08
678.593	0.08
678.92	0.08
679.246	0.08
679.573	0.08
679.9	0.07
680.226	0.08
680.553	0.07
680.879	0.08
681.206	0.08
681.532	0.07
681.858	0.07
682.184	0.07
682.511	0.07
682.837	0.07
683.163	0.08
683.489	0.08
683.815	0.07
684.141	0.08
684.467	0.08
684.793	0.08
685.118	0.08
685.444	0.08
685.77	0.07
686.095	0.08
686.421	0.07
686.746	0.08
687.072	0.08
687.397	0.08
687.723	0.08
688.048	0.08
688.373	0.07
688.698	0.07
689.023	0.07
689.349	0.07
689.674	0.07
689.999	0.07
690.323	0.07
690.648	0.07
690.973	0.06
691.298	0.07
691.623	0.07
691.947	0.07
692.272	0.06
692.596	0.07
692.921	0.07
693.245	0.06
693.57	0.07
693.894	0.07
694.218	0.06
694.543	0.07
694.867	0.07
695.191	0.06
695.515	0.07
695.839	0.06
696.163	0.06
696.487	0.06
696.811	0.07
697.135	0.07
697.458	0.06
697.782	0.07
698.106	0.06
698.429	0.07
698.753	0.07
699.076	0.07
699.4	0.07
699.723	0.07
700.046	0.07
700.37	0.07
700.693	0.07
701.016	0.07
701.339	0.07
701.662	0.08
701.985	0.07
702.308	0.07
702.631	0.07
702.954	0.07
703.277	0.07
703.599	0.07
703.922	0.06
704.245	0.06
704.567	0.06
704.89	0.06
705.212	0.06
705.535	0.05
705.857	0.05
706.179	0.05
706.502	0.06
706.824	0.05
707.146	0.05
707.468	0.06
707.79	0.05
708.112	0.06
708.434	0.06
708.756	0.05
709.078	0.05
709.399	0.05
709.721	0.06
710.043	0.06
710.364	0.06
710.686	0.06
711.007	0.05
711.329	0.06
711.65	0.06
711.972	0.06
712.293	0.06
712.614	0.06
712.935	0.06
713.256	0.06
713.577	0.07
713.898	0.06
714.219	0.06
714.54	0.06
714.861	0.06
715.182	0.06
715.503	0.06
715.823	0.06
716.144	0.06
716.464	0.05
716.785	0.06
717.105	0.05
717.426	0.06
717.746	0.06
718.066	0.05
718.387	0.05
718.707	0.05
719.027	0.06
719.347	0.04
719.667	0.05
719.987	0.04
720.307	0.05
720.627	0.05
720.947	0.05
721.266	0.05
721.586	0.04
721.906	0.05
722.225	0.04
722.545	0.05
722.864	0.04
723.184	0.05
723.503	0.05
723.823	0.05
724.142	0.05
724.461	0.05
724.78	0.05
725.099	0.05
725.418	0.06
725.737	0.04
726.056	0.05
726.375	0.06
726.694	0.06
727.013	0.05
727.331	0.05
727.65	0.04
727.969	0.05
728.287	0.06
728.606	0.05
728.924	0.04
729.242	0.05
729.561	0.05
729.879	0.04
730.197	0.05
730.515	0.04
730.834	0.04
731.152	0.05
731.47	0.04
731.788	0.04
732.105	0.04
732.423	0.05
732.741	0.04
733.059	0.04
733.376	0.05
733.694	0.04
734.012	0.04
734.329	0.05
734.647	0.05
734.964	0.05
735.281	0.06
735.599	0.05
735.916	0.05
736.233	0.04
736.55	0.04
736.867	0.05
737.184	0.06
737.501	0.04
737.818	0.05
738.135	0.05
738.452	0.05
738.768	0.05
739.085	0.05
739.402	0.04
739.718	0.05
740.035	0.05
740.351	0.05
740.668	0.05
740.984	0.04
741.3	0.04
741.617	0.04
741.933	0.04
742.249	0.05
742.565	0.05
742.881	0.05
743.197	0.05
743.513	0.04
743.829	0.04
744.144	0.04
744.46	0.04
744.776	0.05
745.091	0.05
745.407	0.04
745.722	0.04
746.038	0.04
746.353	0.03
746.669	0.04
746.984	0.03
747.299	0.04
747.614	0.05
747.93	0.05
748.245	0.04
748.56	0.04
748.875	0.04
749.189	0.04
749.504	0.03
749.819	0.04
750.134	0.04
750.448	0.04
750.763	0.03
751.078	0.03
751.392	0.03
751.707	0.06
752.021	0.05
752.335	0.05
752.65	0.05
752.964	0.04
753.278	0.05
753.592	0.04
753.906	0.04
754.22	0.05
754.534	0.05
754.848	0.04
755.162	0.05
755.476	0.04
755.789	0.04
756.103	0.03
756.417	0.05
756.73	0.05
757.044	0.05
757.357	0.04
757.671	0.05
757.984	0.04
758.297	0.05
758.61	0.05
758.924	0.04
759.237	0.05
759.55	0.04
759.863	0.04
760.176	0.04
760.488	0.04
760.801	0.04
761.114	0.04
761.427	0.04
761.739	0.04
762.052	0.04
762.365	0.04
762.677	0.04
762.99	0.04
763.302	0.04
763.614	0.04
763.926	0.05
764.239	0.04
764.551	0.04
764.863	0.05
765.175	0.05
765.487	0.04
765.799	0.04
766.111	0.03
766.423	0.04
766.734	0.04
767.046	0.04
767.358	0.05
767.669	0.04
767.981	0.05
768.292	0.04
768.604	0.03
768.915	0.03
769.226	0.04
769.537	0.03
769.849	0.04
770.16	0.03
770.471	0.03
770.782	0.04
771.093	0.04
771.404	0.03
771.715	0.03
772.025	0.03
772.336	0.03
772.647	0.02
772.957	0.03
773.268	0.03
773.578	0.03
773.889	0.04
774.199	0.04
774.51	0.03
774.82	0.03
775.13	0.04
775.44	0.03
775.75	0.04
776.06	0.04
776.37	0.03
776.68	0.04
776.99	0.04
777.3	0.03
777.61	0.04
777.92	0.03
778.229	0.03
778.539	0.03
778.848	0.03
779.158	0.03
779.467	0.03
779.777	0.03
780.086	0.04
780.395	0.03
780.704	0.03
781.013	0.03
781.323	0.03
781.632	0.03
781.941	0.03
782.249	0.03
782.558	0.03
782.867	0.03
783.176	0.02
783.485	0.03
783.793	0.04
784.102	0.03
784.41	0.03
784.719	0.03
785.027	0.03
785.335	0.03
785.644	0.03
785.952	0.03
786.26	0.04
786.568	0.03
786.876	0.03
787.184	0.03
787.492	0.03
787.8	0.03
788.108	0.04
788.416	0.04
788.723	0.04
789.031	0.03
789.338	0.03
789.646	0.03
789.953	0.04
790.261	0.04
790.568	0.04
790.876	0.04
791.183	0.04
791.49	0.03
791.797	0.04
792.104	0.03
792.411	0.04
792.718	0.04
793.025	0.04
793.332	0.04
793.639	0.05
793.945	0.05
794.252	0.05
794.559	0.04
794.865	0.04
795.172	0.04
795.478	0.04
795.784	0.04
796.091	0.04
796.397	0.05
796.703	0.04
797.009	0.05
797.315	0.04
797.622	0.04
797.927	0.03
798.233	0.04
798.539	0.04
798.845	0.04
799.151	0.04
799.456	0.04
799.762	0.03
800.068	0.03
800.373	0.04
800.679	0.03
800.984	0.04
801.289	0.03
801.595	0.03
801.9	0.03
802.205	0.02
802.51	0.03
802.815	0.03
803.12	0.02
803.425	0.03
803.73	0.03
804.035	0.03
804.339	0.03
804.644	0.03
804.949	0.03
805.253	0.03
805.558	0.03
805.862	0.03
806.167	0.04
806.471	0.03
806.775	0.04
807.08	0.03
807.384	0.03
807.688	0.03
807.992	0.03
808.296	0.03
808.6	0.03
808.904	0.03
809.207	0.03
809.511	0.04
809.815	0.04
810.119	0.03
810.422	0.04
810.726	0.04
811.029	0.05
811.332	0.04
811.636	0.04
811.939	0.04
812.242	0.04
812.546	0.03
812.849	0.04
813.152	0.04
813.455	0.04
813.758	0.04
814.06	0.04
814.363	0.04
814.666	0.04
814.969	0.05
815.271	0.04
815.574	0.04
815.877	0.05
816.179	0.04
816.481	0.04
816.784	0.04
817.086	0.03
817.388	0.03
817.69	0.03
817.993	0.03
818.295	0.03
818.597	0.03
818.899	0.02
819.2	0.03
819.502	0.02
819.804	0.03
820.106	0.03
820.407	0.02
820.709	0.03
821.01	0.02
821.312	0.04
821.613	0.02
821.915	0.02
822.216	0.02
822.517	0.01
822.818	0.02
823.119	0.02
823.42	0.02
823.721	0
824.022	0.02
824.323	0.01
824.624	0.02
824.925	0.02
825.226	0.02
825.526	0.01
825.827	0.01
826.127	0.02
826.428	0.02
826.728	0.01
827.028	0.02
827.329	0.01
827.629	0.01
827.929	0.01
828.229	0.02
828.529	0.02
828.829	0.02
829.129	0.02
829.429	0.02
829.729	0.01
830.029	0.01
830.328	0.02
830.628	0.01
830.927	0
831.227	0.01
831.526	0.01
831.826	0.01
832.125	0.01
832.424	0.01
832.724	0.01
833.023	0.01
833.322	0.01
833.621	0.01
833.92	-0
834.219	0
834.518	-0
834.816	-0.01
835.115	0.01
835.414	0
835.712	-0
836.011	-0
836.309	-0.01
836.608	-0.01
836.906	-0
837.205	-0.01
837.503	-0.02
837.801	-0.02
838.099	-0.02
838.397	-0.03
838.695	-0.02
838.993	-0.03
839.291	-0.03
839.589	-0.02
839.887	-0.03
840.184	-0.03
840.482	-0.04
840.78	-0.03
841.077	-0.03
841.375	-0.03
841.672	-0.03
841.969	-0.03
842.267	-0.04
842.564	-0.03
842.861	-0.03
843.158	-0.04
843.455	-0.05
843.752	-0.05
844.049	-0.04
844.346	-0.04
844.643	-0.05
844.94	-0.03
845.236	-0.03
845.533	-0.04
845.83	-0.04
846.126	-0.05
846.423	-0.04
846.719	-0.06
847.015	-0.04
847.312	-0.05
847.608	-0.06
847.904	-0.06
848.2	-0.06
848.496	-0.07
848.792	-0.05
849.088	-0.06
849.384	-0.06
849.68	-0.07
849.975	-0.07
850.271	-0.07
850.567	-0.08
850.862	-0.08
851.158	-0.09
851.453	-0.09
851.748	-0.1
852.044	-0.09
852.339	-0.09
852.634	-0.11
852.929	-0.09
853.224	-0.09
853.519	-0.09
853.814	-0.1
854.109	-0.11
854.404	-0.09
854.699	-0.11
854.994	-0.1
855.288	-0.1
855.583	-0.1
855.877	-0.11
856.172	-0.11
856.466	-0.11
856.76	-0.1
857.055	-0.11
857.349	-0.12
857.643	-0.12
857.937	-0.12
858.231	-0.12
858.525	-0.12
858.819	-0.13
859.113	-0.14
859.407	-0.14
859.701	-0.14
859.994	-0.13
860.288	-0.12
860.581	-0.13
860.875	-0.13
861.168	-0.14
861.462	-0.13
861.755	-0.12
862.048	-0.13
862.341	-0.13
862.634	-0.13
862.928	-0.12
863.221	-0.12
863.513	-0.13
863.806	-0.13
864.099	-0.14
864.392	-0.13
864.685	-0.12
864.977	-0.13
865.27	-0.13
865.562	-0.13
865.855	-0.12
866.147	-0.14
866.44	-0.13
866.732	-0.14
867.024	-0.14
867.316	-0.15
867.608	-0.14
867.9	-0.14
868.192	-0.14
868.484	-0.14
868.776	-0.14
869.068	-0.14
869.359	-0.14
869.651	-0.15
869.943	-0.16
870.234	-0.15
870.526	-0.16
870.817	-0.16
871.108	-0.13
871.4	-0.14
871.691	-0.16
871.982	-0.16
872.273	-0.17
872.564	-0.15
872.855	-0.16
873.146	-0.16
873.437	-0.16
873.728	-0.17
874.019	-0.15
874.309	-0.17
874.6	-0.17
874.89	-0.17
875.181	-0.17
875.471	-0.16
875.762	-0.16
876.052	-0.16
876.342	-0.14
876.632	-0.16
876.922	-0.18
877.213	-0.16
877.503	-0.17
877.792	-0.17
878.082	-0.18
878.372	-0.17
878.662	-0.19
878.952	-0.19
879.241	-0.17
879.531	-0.17
879.82	-0.17
880.11	-0.17
880.399	-0.17
880.688	-0.16
880.978	-0.16
881.267	-0.16
