Data from 12-12-AQDScycling_Absorbance__620__00620.txt Node

Date: Tue Dec 12 13:31:44 EST 2023
User: kyuminlee
Spectrometer: FLMS00943
Trigger mode: 0
Integration Time (sec): 1.000000E-1
Scans to average: 1
Electric dark correction enabled: true
Nonlinearity correction enabled: false
Boxcar width: 0
XAxis mode: Wavelengths
Number of Pixels in Spectrum: 2048
>>>>>Begin Spectral Data<<<<<
179.651	-0.04
180.037	-0.04
180.424	-0.04
180.81	-0.23
181.197	0.05
181.583	-0
181.97	-0.23
182.356	-0
182.743	-0
183.129	1.82
183.515	0.43
183.901	-1.75
184.288	0.06
184.674	1.21
185.06	-1.06
185.446	0.03
185.832	-1.59
186.218	0.39
186.604	-0
186.99	-0
187.376	-0
187.762	-0.21
188.148	0.46
188.534	-0.34
188.92	0.07
189.305	0.09
189.691	0.13
190.077	0.18
190.463	0.16
190.848	0.02
191.234	0.03
191.619	0.02
192.005	0.21
192.391	0.19
192.776	0.13
193.161	0.03
193.547	0.1
193.932	0.21
194.318	0.11
194.703	0.14
195.088	0.15
195.473	0.15
195.859	0.22
196.244	0.18
196.629	0.02
197.014	0.04
197.399	0.17
197.784	0.28
198.169	0.49
198.554	0.19
198.939	0.09
199.324	0.08
199.709	0.21
200.094	0.07
200.478	0.08
200.863	0.15
201.248	0.19
201.633	0.19
202.017	0.06
202.402	0.2
202.787	0.09
203.171	0.17
203.556	0.27
203.94	0.05
204.325	0.2
204.709	0.21
205.093	0.04
205.478	0.18
205.862	0.11
206.246	0.14
206.631	0.04
207.015	0.24
207.399	0.17
207.783	0.05
208.167	0.21
208.551	0.22
208.935	0.16
209.319	0.17
209.703	0.14
210.087	0.19
210.471	0.17
210.855	0.21
211.239	0.24
211.623	0.25
212.007	0.47
212.39	0.27
212.774	0.16
213.158	0.11
213.541	0.45
213.925	0.25
214.309	0.37
214.692	0.35
215.076	0.34
215.459	0.25
215.842	0.14
216.226	0.22
216.609	0.32
216.993	0.15
217.376	0.37
217.759	0.21
218.142	0.29
218.525	0.55
218.909	0.45
219.292	0.26
219.675	0.47
220.058	0.35
220.441	0.52
220.824	0.47
221.207	0.63
221.59	0.39
221.973	0.53
222.355	0.59
222.738	1.02
223.121	0.69
223.504	0.59
223.886	0.63
224.269	0.77
224.652	0.69
225.034	0.72
225.417	0.71
225.799	0.79
226.182	0.74
226.564	0.95
226.947	0.76
227.329	0.81
227.711	1.06
228.094	0.99
228.476	0.89
228.858	0.77
229.24	0.72
229.623	0.86
230.005	0.91
230.387	0.86
230.769	0.77
231.151	1.11
231.533	0.89
231.915	0.98
232.297	1.09
232.679	0.97
233.061	0.9
233.442	0.97
233.824	1.05
234.206	1.16
234.588	1.08
234.969	1.01
235.351	1.05
235.733	1.03
236.114	1.29
236.496	1.19
236.877	1.04
237.259	1.16
237.64	1.03
238.022	0.94
238.403	0.97
238.784	1.09
239.165	0.98
239.547	1.07
239.928	1.2
240.309	1.01
240.69	1.04
241.071	1.1
241.452	1.28
241.834	0.99
242.215	1.05
242.595	1.05
242.976	1.18
243.357	1.29
243.738	1.05
244.119	1.33
244.5	1.06
244.881	1.28
245.261	1.27
245.642	1.26
246.023	1.27
246.403	1.21
246.784	1.22
247.164	1.31
247.545	1.26
247.925	1.34
248.306	1.23
248.686	1.39
249.067	1.23
249.447	1.27
249.827	1.57
250.207	1.38
250.588	1.44
250.968	1.56
251.348	1.33
251.728	1.52
252.108	1.45
252.488	1.38
252.868	1.42
253.248	1.32
253.628	1.35
254.008	1.54
254.388	1.21
254.768	1.26
255.147	1.38
255.527	1.55
255.907	1.32
256.287	1.35
256.666	1.36
257.046	1.46
257.425	1.42
257.805	1.37
258.184	1.31
258.564	1.33
258.943	1.44
259.323	1.43
259.702	1.37
260.081	1.43
260.461	1.44
260.84	1.37
261.219	1.61
261.598	1.37
261.977	1.5
262.356	1.57
262.736	1.47
263.115	1.69
263.494	1.39
263.873	1.43
264.251	1.46
264.63	1.7
265.009	1.46
265.388	1.45
265.767	1.36
266.145	1.43
266.524	1.43
266.903	1.44
267.281	1.38
267.66	1.53
268.039	1.52
268.417	1.44
268.796	1.54
269.174	1.39
269.552	1.26
269.931	1.52
270.309	1.44
270.687	1.92
271.066	1.67
271.444	1.53
271.822	1.47
272.2	1.44
272.578	1.47
272.956	1.45
273.334	1.33
273.712	1.5
274.09	1.51
274.468	1.51
274.846	1.34
275.224	1.45
275.602	1.54
275.98	1.39
276.357	1.3
276.735	1.45
277.113	1.48
277.49	1.34
277.868	1.32
278.246	1.57
278.623	1.34
279.001	1.37
279.378	1.34
279.756	1.54
280.133	1.69
280.51	1.55
280.888	1.41
281.265	1.37
281.642	1.52
282.019	1.48
282.396	1.6
282.773	1.34
283.151	1.42
283.528	1.37
283.905	1.38
284.282	1.81
284.659	1.45
285.035	1.34
285.412	1.38
285.789	1.58
286.166	1.43
286.543	1.5
286.919	1.47
287.296	1.41
287.673	1.73
288.049	1.52
288.426	1.48
288.802	1.44
289.179	1.51
289.555	1.59
289.932	1.42
290.308	1.29
290.684	1.29
291.061	1.42
291.437	1.54
291.813	1.36
292.189	1.43
292.565	1.36
292.942	1.35
293.318	1.41
293.694	1.42
294.07	1.36
294.446	1.4
294.822	1.61
295.197	1.34
295.573	1.48
295.949	1.39
296.325	1.51
296.701	1.47
297.076	1.4
297.452	1.51
297.828	1.35
298.203	1.46
298.579	1.37
298.954	1.4
299.33	1.38
299.705	1.37
300.081	1.38
300.456	1.43
300.831	1.27
301.206	1.26
301.582	1.41
301.957	1.26
302.332	1.31
302.707	1.24
303.082	1.25
303.457	1.2
303.832	1.14
304.207	1.19
304.582	1.12
304.957	1.18
305.332	1.18
305.707	1.11
306.082	1.07
306.456	1.17
306.831	1.1
307.206	1.11
307.58	1.06
307.955	1.03
308.33	1.04
308.704	1.03
309.079	1.01
309.453	1.07
309.828	0.97
310.202	0.94
310.576	0.95
310.951	0.95
311.325	0.94
311.699	0.96
312.073	0.91
312.447	0.94
312.821	0.93
313.196	0.9
313.57	0.86
313.944	0.85
314.317	0.85
314.691	0.88
315.065	0.85
315.439	0.86
315.813	0.86
316.187	0.85
316.56	0.89
316.934	0.86
317.308	0.85
317.681	0.82
318.055	0.79
318.428	0.81
318.802	0.84
319.175	0.81
319.549	0.81
319.922	0.84
320.295	0.83
320.669	0.83
321.042	0.84
321.415	0.81
321.788	0.81
322.162	0.77
322.535	0.81
322.908	0.81
323.281	0.8
323.654	0.82
324.027	0.78
324.4	0.81
324.773	0.81
325.145	0.83
325.518	0.79
325.891	0.78
326.264	0.82
326.636	0.8
327.009	0.78
327.382	0.81
327.754	0.82
328.127	0.78
328.499	0.81
328.872	0.81
329.244	0.82
329.616	0.82
329.989	0.84
330.361	0.84
330.733	0.83
331.106	0.83
331.478	0.88
331.85	0.85
332.222	0.82
332.594	0.87
332.966	0.9
333.338	0.93
333.71	0.89
334.082	0.91
334.454	0.93
334.826	0.93
335.197	0.93
335.569	0.92
335.941	0.9
336.312	0.94
336.684	0.97
337.056	0.98
337.427	0.95
337.799	0.97
338.17	1
338.542	0.95
338.913	1
339.284	1.03
339.656	0.97
340.027	1.02
340.398	1.01
340.769	1.01
341.141	1.05
341.512	1.01
341.883	1.05
342.254	1.13
342.625	1.03
342.996	1.1
343.367	1.11
343.738	1.05
344.108	1.03
344.479	1.11
344.85	1.06
345.221	1.08
345.591	1.09
345.962	1.09
346.333	1.11
346.703	1.02
347.074	1.07
347.444	1.09
347.815	1.17
348.185	1.09
348.556	1.25
348.926	1.1
349.296	1.15
349.666	1.27
350.037	1.18
350.407	1.25
350.777	1.17
351.147	1.24
351.517	1.29
351.887	1.26
352.257	1.32
352.627	1.22
352.997	1.26
353.367	1.33
353.737	1.37
354.106	1.43
354.476	1.33
354.846	1.35
355.216	1.47
355.585	1.51
355.955	1.37
356.324	1.42
356.694	1.41
357.063	1.4
357.433	1.45
357.802	1.44
358.171	1.5
358.541	1.44
358.91	1.51
359.279	1.59
359.648	1.42
360.017	1.55
360.387	1.43
360.756	1.48
361.125	1.59
361.494	1.48
361.863	1.51
362.231	1.56
362.6	1.64
362.969	1.55
363.338	1.47
363.707	1.64
364.075	1.69
364.444	1.46
364.813	1.5
365.181	1.51
365.55	1.6
365.918	1.65
366.287	1.58
366.655	1.72
367.024	1.71
367.392	1.63
367.76	1.69
368.128	1.46
368.497	1.54
368.865	1.64
369.233	1.57
369.601	1.61
369.969	1.47
370.337	1.43
370.705	1.63
371.073	1.61
371.441	1.55
371.809	1.37
372.177	1.55
372.544	1.46
372.912	1.61
373.28	1.46
373.647	1.51
374.015	1.84
374.383	1.8
374.75	1.63
375.118	1.68
375.485	1.57
375.853	1.58
376.22	1.62
376.587	1.57
376.955	1.58
377.322	1.67
377.689	1.52
378.056	1.62
378.423	1.52
378.79	1.55
379.157	1.78
379.524	1.63
379.891	1.57
380.258	1.63
380.625	1.62
380.992	1.44
381.359	1.62
381.726	1.64
382.092	1.49
382.459	1.57
382.826	1.74
383.192	1.68
383.559	1.47
383.925	1.7
384.292	1.54
384.658	1.83
385.025	1.54
385.391	1.68
385.757	1.5
386.123	1.56
386.49	1.52
386.856	1.51
387.222	1.66
387.588	1.68
387.954	1.78
388.32	1.58
388.686	1.57
389.052	1.55
389.418	1.69
389.784	1.52
390.15	1.72
390.515	1.44
390.881	1.8
391.247	1.56
391.613	1.67
391.978	1.53
392.344	1.81
392.709	1.6
393.075	1.58
393.44	1.68
393.806	1.67
394.171	1.51
394.536	1.63
394.902	1.52
395.267	1.62
395.632	1.49
395.997	1.58
396.362	1.49
396.727	1.75
397.092	1.51
397.457	1.64
397.822	1.56
398.187	1.68
398.552	1.51
398.917	1.69
399.282	1.52
399.646	1.6
400.011	1.89
400.376	1.45
400.74	1.69
401.105	1.57
401.47	1.48
401.834	1.56
402.199	1.58
402.563	1.61
402.927	1.5
403.292	1.73
403.656	1.61
404.02	1.52
404.384	1.69
404.749	1.57
405.113	1.55
405.477	1.65
405.841	1.63
406.205	1.53
406.569	1.44
406.933	1.61
407.296	1.52
407.66	1.72
408.024	1.49
408.388	1.64
408.752	1.66
409.115	1.83
409.479	1.63
409.842	1.5
410.206	1.44
410.569	1.44
410.933	1.62
411.296	1.4
411.66	1.71
412.023	1.48
412.386	1.79
412.749	1.44
413.113	1.47
413.476	1.51
413.839	1.46
414.202	1.69
414.565	1.46
414.928	1.39
415.291	1.55
415.654	1.41
416.017	1.59
416.38	1.48
416.742	1.44
417.105	1.52
417.468	1.46
417.83	1.44
418.193	1.61
418.556	1.49
418.918	1.51
419.281	1.49
419.643	1.7
420.005	1.49
420.368	1.5
420.73	1.46
421.092	1.64
421.455	1.5
421.817	1.43
422.179	1.45
422.541	1.52
422.903	1.69
423.265	1.63
423.627	1.53
423.989	1.46
424.351	1.42
424.713	1.61
425.075	1.48
425.436	1.46
425.798	1.43
426.16	1.64
426.521	1.4
426.883	1.52
427.245	1.62
427.606	1.51
427.967	1.41
428.329	1.53
428.69	1.57
429.052	1.58
429.413	1.67
429.774	1.68
430.135	1.53
430.497	1.59
430.858	1.53
431.219	1.49
431.58	1.5
431.941	1.52
432.302	1.42
432.663	1.77
433.024	1.61
433.384	1.58
433.745	1.49
434.106	1.65
434.467	1.55
434.827	1.48
435.188	1.51
435.548	1.62
435.909	1.56
436.269	1.54
436.63	1.42
436.99	1.54
437.351	1.36
437.711	1.56
438.071	1.43
438.431	1.39
438.792	1.57
439.152	1.5
439.512	1.4
439.872	1.42
440.232	1.55
440.592	1.49
440.952	1.53
441.312	1.45
441.671	1.45
442.031	1.42
442.391	1.48
442.751	1.45
443.11	1.45
443.47	1.35
443.83	1.38
444.189	1.34
444.549	1.41
444.908	1.4
445.267	1.39
445.627	1.39
445.986	1.35
446.345	1.31
446.705	1.37
447.064	1.31
447.423	1.37
447.782	1.41
448.141	1.31
448.5	1.29
448.859	1.36
449.218	1.32
449.577	1.34
449.936	1.32
450.295	1.3
450.653	1.31
451.012	1.3
451.371	1.27
451.729	1.26
452.088	1.28
452.447	1.33
452.805	1.28
453.163	1.24
453.522	1.28
453.88	1.23
454.239	1.24
454.597	1.17
454.955	1.2
455.313	1.18
455.671	1.16
456.029	1.16
456.388	1.15
456.746	1.13
457.104	1.12
457.461	1.1
457.819	1.1
458.177	1.08
458.535	1.05
458.893	1.05
459.25	1.05
459.608	1.04
459.966	0.99
460.323	0.99
460.681	0.98
461.038	0.98
461.396	0.96
461.753	0.94
462.111	0.94
462.468	0.9
462.825	0.9
463.182	0.89
463.54	0.86
463.897	0.88
464.254	0.86
464.611	0.84
464.968	0.83
465.325	0.83
465.682	0.82
466.039	0.8
466.395	0.78
466.752	0.78
467.109	0.78
467.466	0.74
467.822	0.75
468.179	0.72
468.535	0.72
468.892	0.71
469.248	0.7
469.605	0.68
469.961	0.67
470.318	0.68
470.674	0.65
471.03	0.63
471.386	0.64
471.743	0.61
472.099	0.62
472.455	0.61
472.811	0.58
473.167	0.59
473.523	0.56
473.879	0.56
474.235	0.56
474.59	0.54
474.946	0.53
475.302	0.53
475.657	0.51
476.013	0.51
476.369	0.48
476.724	0.48
477.08	0.48
477.435	0.47
477.791	0.45
478.146	0.45
478.501	0.44
478.857	0.44
479.212	0.43
479.567	0.42
479.922	0.41
480.277	0.4
480.632	0.39
480.987	0.39
481.342	0.39
481.697	0.37
482.052	0.37
482.407	0.36
482.762	0.35
483.116	0.34
483.471	0.34
483.826	0.32
484.18	0.33
484.535	0.32
484.89	0.31
485.244	0.31
485.598	0.3
485.953	0.3
486.307	0.29
486.661	0.29
487.016	0.28
487.37	0.28
487.724	0.28
488.078	0.27
488.432	0.26
488.786	0.25
489.14	0.26
489.494	0.24
489.848	0.24
490.202	0.24
490.556	0.23
490.91	0.23
491.263	0.22
491.617	0.22
491.971	0.22
492.324	0.21
492.678	0.21
493.031	0.21
493.385	0.2
493.738	0.2
494.091	0.2
494.445	0.2
494.798	0.19
495.151	0.19
495.504	0.19
495.857	0.18
496.21	0.18
496.564	0.18
496.916	0.17
497.269	0.16
497.622	0.17
497.975	0.16
498.328	0.16
498.681	0.15
499.033	0.15
499.386	0.16
499.739	0.15
500.091	0.15
500.444	0.15
500.796	0.14
501.149	0.14
501.501	0.15
501.854	0.14
502.206	0.14
502.558	0.14
502.91	0.13
503.263	0.13
503.615	0.13
503.967	0.13
504.319	0.13
504.671	0.13
505.023	0.13
505.375	0.12
505.726	0.12
506.078	0.12
506.43	0.11
506.782	0.12
507.133	0.12
507.485	0.12
507.837	0.12
508.188	0.12
508.54	0.12
508.891	0.13
509.243	0.11
509.594	0.11
509.945	0.1
510.296	0.11
510.648	0.11
510.999	0.1
511.35	0.11
511.701	0.11
512.052	0.11
512.403	0.11
512.754	0.1
513.105	0.1
513.456	0.1
513.807	0.09
514.157	0.1
514.508	0.11
514.859	0.09
515.209	0.09
515.56	0.1
515.91	0.1
516.261	0.1
516.611	0.1
516.962	0.1
517.312	0.1
517.662	0.1
518.013	0.09
518.363	0.1
518.713	0.09
519.063	0.1
519.413	0.1
519.763	0.1
520.113	0.09
520.463	0.1
520.813	0.1
521.163	0.1
521.512	0.09
521.862	0.1
522.212	0.1
522.562	0.09
522.911	0.09
523.261	0.09
523.61	0.09
523.96	0.09
524.309	0.1
524.658	0.09
525.008	0.09
525.357	0.09
525.706	0.1
526.056	0.09
526.405	0.09
526.754	0.09
527.103	0.08
527.452	0.09
527.801	0.09
528.15	0.09
528.499	0.09
528.847	0.1
529.196	0.1
529.545	0.1
529.893	0.1
530.242	0.09
530.591	0.1
530.939	0.1
531.288	0.1
531.636	0.1
531.985	0.09
532.333	0.1
532.681	0.09
533.029	0.09
533.378	0.1
533.726	0.1
534.074	0.1
534.422	0.1
534.77	0.1
535.118	0.1
535.466	0.1
535.814	0.09
536.162	0.1
536.509	0.1
536.857	0.1
537.205	0.1
537.552	0.1
537.9	0.1
538.248	0.09
538.595	0.1
538.943	0.1
539.29	0.09
539.637	0.1
539.985	0.09
540.332	0.09
540.679	0.09
541.026	0.09
541.373	0.1
541.721	0.09
542.068	0.09
542.415	0.1
542.762	0.09
543.108	0.08
543.455	0.08
543.802	0.09
544.149	0.08
544.496	0.09
544.842	0.08
545.189	0.08
545.535	0.08
545.882	0.08
546.228	0.08
546.575	0.08
546.921	0.07
547.267	0.08
547.614	0.08
547.96	0.09
548.306	0.08
548.652	0.09
548.998	0.09
549.344	0.08
549.69	0.09
550.036	0.09
550.382	0.07
550.728	0.08
551.074	0.09
551.42	0.09
551.765	0.09
552.111	0.09
552.457	0.09
552.802	0.09
553.148	0.09
553.493	0.08
553.839	0.08
554.184	0.09
554.529	0.08
554.875	0.09
555.22	0.09
555.565	0.09
555.91	0.09
556.255	0.09
556.6	0.1
556.945	0.09
557.29	0.09
557.635	0.09
557.98	0.09
558.325	0.09
558.67	0.09
559.014	0.09
559.359	0.09
559.704	0.09
560.048	0.09
560.393	0.08
560.737	0.07
561.082	0.08
561.426	0.08
561.77	0.08
562.115	0.08
562.459	0.08
562.803	0.08
563.147	0.09
563.491	0.09
563.835	0.09
564.179	0.09
564.523	0.09
564.867	0.08
565.211	0.08
565.555	0.09
565.899	0.1
566.242	0.09
566.586	0.08
566.93	0.09
567.273	0.1
567.617	0.08
567.96	0.09
568.304	0.09
568.647	0.09
568.99	0.09
569.334	0.09
569.677	0.09
570.02	0.09
570.363	0.1
570.706	0.09
571.049	0.09
571.392	0.09
571.735	0.09
572.078	0.09
572.421	0.1
572.764	0.09
573.106	0.09
573.449	0.09
573.792	0.09
574.134	0.09
574.477	0.09
574.819	0.09
575.162	0.09
575.504	0.09
575.847	0.09
576.189	0.1
576.531	0.09
576.873	0.09
577.215	0.08
577.558	0.09
577.9	0.08
578.242	0.09
578.584	0.09
578.926	0.09
579.267	0.09
579.609	0.09
579.951	0.09
580.293	0.09
580.634	0.09
580.976	0.09
581.318	0.09
581.659	0.08
582.001	0.09
582.342	0.08
582.683	0.09
583.025	0.08
583.366	0.08
583.707	0.09
584.049	0.09
584.39	0.08
584.731	0.08
585.072	0.08
585.413	0.08
585.754	0.08
586.095	0.08
586.435	0.08
586.776	0.09
587.117	0.08
587.458	0.08
587.798	0.09
588.139	0.08
588.48	0.07
588.82	0.08
589.161	0.08
589.501	0.08
589.841	0.08
590.182	0.08
590.522	0.08
590.862	0.09
591.202	0.08
591.542	0.08
591.882	0.08
592.222	0.08
592.562	0.09
592.902	0.08
593.242	0.08
593.582	0.09
593.922	0.09
594.261	0.08
594.601	0.09
594.941	0.07
595.28	0.08
595.62	0.08
595.959	0.08
596.299	0.08
596.638	0.08
596.977	0.08
597.317	0.09
597.656	0.08
597.995	0.09
598.334	0.09
598.673	0.09
599.012	0.09
599.351	0.09
599.69	0.08
600.029	0.09
600.368	0.09
600.707	0.09
601.046	0.09
601.384	0.09
601.723	0.1
602.061	0.08
602.4	0.09
602.738	0.09
603.077	0.09
603.415	0.08
603.754	0.09
604.092	0.09
604.43	0.08
604.768	0.09
605.107	0.09
605.445	0.08
605.783	0.08
606.121	0.08
606.459	0.08
606.796	0.08
607.134	0.08
607.472	0.08
607.81	0.09
608.148	0.08
608.485	0.09
608.823	0.09
609.16	0.08
609.498	0.08
609.835	0.08
610.173	0.08
610.51	0.08
610.847	0.08
611.185	0.08
611.522	0.09
611.859	0.09
612.196	0.08
612.533	0.09
612.87	0.09
613.207	0.09
613.544	0.09
613.881	0.1
614.217	0.09
614.554	0.09
614.891	0.09
615.228	0.1
615.564	0.1
615.901	0.1
616.237	0.09
616.574	0.09
616.91	0.1
617.246	0.1
617.583	0.1
617.919	0.1
618.255	0.1
618.591	0.09
618.927	0.09
619.263	0.1
619.599	0.1
619.935	0.09
620.271	0.09
620.607	0.09
620.943	0.09
621.279	0.09
621.614	0.1
621.95	0.09
622.286	0.09
622.621	0.09
622.957	0.09
623.292	0.09
623.627	0.09
623.963	0.09
624.298	0.09
624.633	0.09
624.968	0.08
625.304	0.09
625.639	0.08
625.974	0.08
626.309	0.08
626.644	0.09
626.979	0.09
627.313	0.08
627.648	0.08
627.983	0.09
628.318	0.08
628.652	0.07
628.987	0.09
629.321	0.09
629.656	0.08
629.99	0.08
630.325	0.08
630.659	0.07
630.993	0.07
631.327	0.07
631.662	0.07
631.996	0.07
632.33	0.07
632.664	0.08
632.998	0.07
633.332	0.07
633.666	0.07
633.999	0.08
634.333	0.07
634.667	0.08
635.001	0.07
635.334	0.07
635.668	0.07
636.001	0.07
636.335	0.08
636.668	0.07
637.001	0.07
637.335	0.08
637.668	0.08
638.001	0.07
638.334	0.07
638.668	0.06
639.001	0.07
639.334	0.07
639.667	0.07
639.999	0.07
640.332	0.07
640.665	0.07
640.998	0.08
641.331	0.07
641.663	0.07
641.996	0.08
642.328	0.07
642.661	0.08
642.993	0.07
643.326	0.08
643.658	0.07
643.99	0.07
644.323	0.07
644.655	0.07
644.987	0.07
645.319	0.07
645.651	0.07
645.983	0.07
646.315	0.07
646.647	0.07
646.979	0.07
647.31	0.08
647.642	0.07
647.974	0.07
648.305	0.08
648.637	0.08
648.968	0.07
649.3	0.07
649.631	0.08
649.963	0.07
650.294	0.08
650.625	0.07
650.957	0.08
651.288	0.08
651.619	0.08
651.95	0.08
652.281	0.08
652.612	0.08
652.943	0.09
653.274	0.09
653.604	0.08
653.935	0.07
654.266	0.08
654.596	0.08
654.927	0.07
655.258	0.08
655.588	0.08
655.918	0.08
656.249	0.06
656.579	0.07
656.909	0.07
657.24	0.07
657.57	0.08
657.9	0.07
658.23	0.07
658.56	0.07
658.89	0.08
659.22	0.08
659.55	0.08
659.88	0.08
660.209	0.08
660.539	0.08
660.869	0.08
661.198	0.08
661.528	0.07
661.857	0.07
662.187	0.08
662.516	0.07
662.846	0.07
663.175	0.07
663.504	0.07
663.833	0.07
664.163	0.07
664.492	0.08
664.821	0.08
665.15	0.08
665.479	0.07
665.807	0.08
666.136	0.07
666.465	0.08
666.794	0.08
667.122	0.08
667.451	0.08
667.78	0.08
668.108	0.08
668.437	0.07
668.765	0.08
669.093	0.08
669.422	0.08
669.75	0.08
670.078	0.08
670.406	0.08
670.734	0.08
671.062	0.08
671.39	0.07
671.718	0.07
672.046	0.07
672.374	0.07
672.702	0.07
673.029	0.07
673.357	0.07
673.685	0.07
674.012	0.07
674.34	0.07
674.667	0.08
674.995	0.08
675.322	0.08
675.649	0.08
675.977	0.07
676.304	0.08
676.631	0.07
676.958	0.07
677.285	0.07
677.612	0.06
677.939	0.07
678.266	0.07
678.593	0.07
678.92	0.07
679.246	0.07
679.573	0.07
679.9	0.06
680.226	0.07
680.553	0.06
680.879	0.07
681.206	0.07
681.532	0.07
681.858	0.07
682.184	0.07
682.511	0.07
682.837	0.07
683.163	0.07
683.489	0.07
683.815	0.08
684.141	0.07
684.467	0.07
684.793	0.07
685.118	0.06
685.444	0.07
685.77	0.06
686.095	0.07
686.421	0.07
686.746	0.07
687.072	0.07
687.397	0.07
687.723	0.07
688.048	0.07
688.373	0.07
688.698	0.07
689.023	0.07
689.349	0.07
689.674	0.07
689.999	0.06
690.323	0.06
690.648	0.06
690.973	0.06
691.298	0.07
691.623	0.07
691.947	0.07
692.272	0.07
692.596	0.07
692.921	0.07
693.245	0.07
693.57	0.07
693.894	0.07
694.218	0.08
694.543	0.07
694.867	0.07
695.191	0.07
695.515	0.08
695.839	0.07
696.163	0.07
696.487	0.07
696.811	0.07
697.135	0.07
697.458	0.07
697.782	0.07
698.106	0.07
698.429	0.07
698.753	0.07
699.076	0.07
699.4	0.06
699.723	0.07
700.046	0.07
700.37	0.07
700.693	0.07
701.016	0.06
701.339	0.06
701.662	0.07
701.985	0.07
702.308	0.07
702.631	0.07
702.954	0.07
703.277	0.07
703.599	0.07
703.922	0.06
704.245	0.07
704.567	0.06
704.89	0.07
705.212	0.07
705.535	0.05
705.857	0.06
706.179	0.06
706.502	0.06
706.824	0.05
707.146	0.06
707.468	0.06
707.79	0.06
708.112	0.06
708.434	0.07
708.756	0.07
709.078	0.06
709.399	0.06
709.721	0.06
710.043	0.07
710.364	0.07
710.686	0.06
711.007	0.06
711.329	0.08
711.65	0.07
711.972	0.07
712.293	0.08
712.614	0.07
712.935	0.07
713.256	0.07
713.577	0.08
713.898	0.06
714.219	0.06
714.54	0.07
714.861	0.06
715.182	0.06
715.503	0.06
715.823	0.06
716.144	0.06
716.464	0.06
716.785	0.05
717.105	0.05
717.426	0.06
717.746	0.06
718.066	0.05
718.387	0.05
718.707	0.05
719.027	0.05
719.347	0.05
719.667	0.05
719.987	0.05
720.307	0.05
720.627	0.05
720.947	0.05
721.266	0.05
721.586	0.05
721.906	0.06
722.225	0.05
722.545	0.05
722.864	0.05
723.184	0.05
723.503	0.06
723.823	0.07
724.142	0.05
724.461	0.06
724.78	0.06
725.099	0.06
725.418	0.05
725.737	0.05
726.056	0.06
726.375	0.06
726.694	0.06
727.013	0.06
727.331	0.05
727.65	0.05
727.969	0.05
728.287	0.06
728.606	0.06
728.924	0.05
729.242	0.05
729.561	0.06
729.879	0.05
730.197	0.06
730.515	0.06
730.834	0.05
731.152	0.05
731.47	0.05
731.788	0.06
732.105	0.05
732.423	0.06
732.741	0.06
733.059	0.05
733.376	0.06
733.694	0.05
734.012	0.06
734.329	0.06
734.647	0.06
734.964	0.06
735.281	0.06
735.599	0.06
735.916	0.06
736.233	0.06
736.55	0.06
736.867	0.05
737.184	0.06
737.501	0.06
737.818	0.05
738.135	0.06
738.452	0.06
738.768	0.05
739.085	0.06
739.402	0.05
739.718	0.05
740.035	0.05
740.351	0.06
740.668	0.06
740.984	0.06
741.3	0.05
741.617	0.05
741.933	0.05
742.249	0.06
742.565	0.05
742.881	0.06
743.197	0.05
743.513	0.05
743.829	0.06
744.144	0.06
744.46	0.05
744.776	0.06
745.091	0.05
745.407	0.05
745.722	0.04
746.038	0.05
746.353	0.04
746.669	0.05
746.984	0.04
747.299	0.04
747.614	0.05
747.93	0.05
748.245	0.05
748.56	0.04
748.875	0.04
749.189	0.04
749.504	0.04
749.819	0.05
750.134	0.05
750.448	0.04
750.763	0.05
751.078	0.04
751.392	0.04
751.707	0.06
752.021	0.05
752.335	0.06
752.65	0.06
752.964	0.05
753.278	0.06
753.592	0.05
753.906	0.05
754.22	0.06
754.534	0.06
754.848	0.05
755.162	0.06
755.476	0.06
755.789	0.06
756.103	0.05
756.417	0.06
756.73	0.05
757.044	0.05
757.357	0.06
757.671	0.06
757.984	0.06
758.297	0.06
758.61	0.06
758.924	0.05
759.237	0.06
759.55	0.05
759.863	0.05
760.176	0.06
760.488	0.06
760.801	0.04
761.114	0.04
761.427	0.05
761.739	0.05
762.052	0.05
762.365	0.05
762.677	0.05
762.99	0.04
763.302	0.05
763.614	0.05
763.926	0.05
764.239	0.05
764.551	0.05
764.863	0.05
765.175	0.05
765.487	0.05
765.799	0.05
766.111	0.05
766.423	0.05
766.734	0.05
767.046	0.04
767.358	0.06
767.669	0.05
767.981	0.05
768.292	0.05
768.604	0.05
768.915	0.05
769.226	0.04
769.537	0.03
769.849	0.05
770.16	0.05
770.471	0.05
770.782	0.05
771.093	0.05
771.404	0.03
771.715	0.04
772.025	0.04
772.336	0.05
772.647	0.04
772.957	0.04
773.268	0.05
773.578	0.05
773.889	0.05
774.199	0.06
774.51	0.04
774.82	0.05
775.13	0.06
775.44	0.05
775.75	0.05
776.06	0.05
776.37	0.05
776.68	0.06
776.99	0.05
777.3	0.05
777.61	0.06
777.92	0.05
778.229	0.04
778.539	0.05
778.848	0.05
779.158	0.05
779.467	0.05
779.777	0.04
780.086	0.05
780.395	0.04
780.704	0.04
781.013	0.04
781.323	0.04
781.632	0.04
781.941	0.05
782.249	0.05
782.558	0.04
782.867	0.04
783.176	0.03
783.485	0.04
783.793	0.04
784.102	0.04
784.41	0.04
784.719	0.04
785.027	0.04
785.335	0.04
785.644	0.05
785.952	0.04
786.26	0.04
786.568	0.04
786.876	0.03
787.184	0.04
787.492	0.05
787.8	0.05
788.108	0.04
788.416	0.05
788.723	0.05
789.031	0.04
789.338	0.04
789.646	0.04
789.953	0.05
790.261	0.04
790.568	0.06
790.876	0.04
791.183	0.04
791.49	0.04
791.797	0.05
792.104	0.04
792.411	0.04
792.718	0.05
793.025	0.05
793.332	0.05
793.639	0.05
793.945	0.06
794.252	0.05
794.559	0.05
794.865	0.05
795.172	0.05
795.478	0.05
795.784	0.05
796.091	0.05
796.397	0.06
796.703	0.05
797.009	0.07
797.315	0.05
797.622	0.05
797.927	0.05
798.233	0.05
798.539	0.05
798.845	0.06
799.151	0.05
799.456	0.06
799.762	0.06
800.068	0.05
800.373	0.07
800.679	0.06
800.984	0.06
801.289	0.05
801.595	0.06
801.9	0.05
802.205	0.05
802.51	0.05
802.815	0.06
803.12	0.06
803.425	0.06
803.73	0.06
804.035	0.05
804.339	0.05
804.644	0.05
804.949	0.06
805.253	0.05
805.558	0.05
805.862	0.04
806.167	0.05
806.471	0.05
806.775	0.05
807.08	0.05
807.384	0.05
807.688	0.05
807.992	0.05
808.296	0.05
808.6	0.05
808.904	0.06
809.207	0.05
809.511	0.06
809.815	0.06
810.119	0.05
810.422	0.06
810.726	0.07
811.029	0.06
811.332	0.06
811.636	0.06
811.939	0.06
812.242	0.06
812.546	0.06
812.849	0.06
813.152	0.07
813.455	0.07
813.758	0.07
814.06	0.07
814.363	0.06
814.666	0.07
814.969	0.07
815.271	0.07
815.574	0.06
815.877	0.06
816.179	0.06
816.481	0.06
816.784	0.06
817.086	0.05
817.388	0.05
817.69	0.05
817.993	0.04
818.295	0.05
818.597	0.05
818.899	0.04
819.2	0.04
819.502	0.04
819.804	0.05
820.106	0.04
820.407	0.04
820.709	0.04
821.01	0.04
821.312	0.05
821.613	0.04
821.915	0.03
822.216	0.03
822.517	0.03
822.818	0.04
823.119	0.04
823.42	0.05
823.721	0.03
824.022	0.04
824.323	0.03
824.624	0.04
824.925	0.04
825.226	0.05
825.526	0.03
825.827	0.04
826.127	0.04
826.428	0.04
826.728	0.03
827.028	0.04
827.329	0.04
827.629	0.03
827.929	0.03
828.229	0.04
828.529	0.04
828.829	0.04
829.129	0.04
829.429	0.04
829.729	0.03
830.029	0.03
830.328	0.04
830.628	0.03
830.927	0.03
831.227	0.04
831.526	0.03
831.826	0.03
832.125	0.04
832.424	0.03
832.724	0.03
833.023	0.04
833.322	0.03
833.621	0.03
833.92	0.02
834.219	0.02
834.518	0.02
834.816	0.01
835.115	0.03
835.414	0.02
835.712	0.02
836.011	0.02
836.309	0.02
836.608	0.01
836.906	0.01
837.205	0.01
837.503	0.01
837.801	0.01
838.099	-0.01
838.397	-0
838.695	-0
838.993	-0
839.291	-0
839.589	-0
839.887	-0.01
840.184	-0.02
840.482	-0.01
840.78	-0.01
841.077	-0.01
841.375	-0.01
841.672	-0.01
841.969	-0.02
842.267	-0.01
842.564	-0.01
842.861	-0
843.158	-0.01
843.455	-0.03
843.752	-0.02
844.049	-0.02
844.346	-0.02
844.643	-0.03
844.94	-0.02
845.236	-0.02
845.533	-0.02
845.83	-0.02
846.126	-0.03
846.423	-0.03
846.719	-0.03
847.015	-0.02
847.312	-0.04
847.608	-0.04
847.904	-0.03
848.2	-0.04
848.496	-0.04
848.792	-0.03
849.088	-0.03
849.384	-0.03
849.68	-0.04
849.975	-0.03
850.271	-0.05
850.567	-0.04
850.862	-0.04
851.158	-0.04
851.453	-0.04
851.748	-0.05
852.044	-0.04
852.339	-0.05
852.634	-0.07
852.929	-0.04
853.224	-0.05
853.519	-0.05
853.814	-0.04
854.109	-0.06
854.404	-0.05
854.699	-0.06
854.994	-0.05
855.288	-0.05
855.583	-0.05
855.877	-0.07
856.172	-0.06
856.466	-0.07
856.76	-0.08
857.055	-0.07
857.349	-0.08
857.643	-0.09
857.937	-0.09
858.231	-0.09
858.525	-0.09
858.819	-0.09
859.113	-0.1
859.407	-0.11
859.701	-0.11
859.994	-0.11
860.288	-0.11
860.581	-0.1
860.875	-0.1
861.168	-0.1
861.462	-0.11
861.755	-0.1
862.048	-0.11
862.341	-0.11
862.634	-0.11
862.928	-0.1
863.221	-0.1
863.513	-0.11
863.806	-0.12
864.099	-0.11
864.392	-0.12
864.685	-0.11
864.977	-0.12
865.27	-0.12
865.562	-0.11
865.855	-0.11
866.147	-0.12
866.44	-0.11
866.732	-0.12
867.024	-0.13
867.316	-0.12
867.608	-0.13
867.9	-0.12
868.192	-0.13
868.484	-0.13
868.776	-0.12
869.068	-0.13
869.359	-0.13
869.651	-0.13
869.943	-0.14
870.234	-0.13
870.526	-0.14
870.817	-0.14
871.108	-0.13
871.4	-0.12
871.691	-0.15
871.982	-0.16
872.273	-0.16
872.564	-0.15
872.855	-0.15
873.146	-0.16
873.437	-0.16
873.728	-0.15
874.019	-0.16
874.309	-0.16
874.6	-0.17
874.89	-0.17
875.181	-0.17
875.471	-0.16
875.762	-0.16
876.052	-0.16
876.342	-0.15
876.632	-0.16
876.922	-0.17
877.213	-0.16
877.503	-0.19
877.792	-0.17
878.082	-0.18
878.372	-0.16
878.662	-0.18
878.952	-0.17
879.241	-0.17
879.531	-0.16
879.82	-0.16
880.11	-0.16
880.399	-0.17
880.688	-0.14
880.978	-0.14
881.267	-0.14
