Data from 12-12-AQDScycling_Absorbance__938__00938.txt Node

Date: Tue Dec 12 14:51:14 EST 2023
User: kyuminlee
Spectrometer: FLMS00943
Trigger mode: 0
Integration Time (sec): 1.000000E-1
Scans to average: 1
Electric dark correction enabled: true
Nonlinearity correction enabled: false
Boxcar width: 0
XAxis mode: Wavelengths
Number of Pixels in Spectrum: 2048
>>>>>Begin Spectral Data<<<<<
179.651	-0
180.037	-0
180.424	-0
180.81	-0.47
181.197	-0
181.583	-0
181.97	-0.28
182.356	-0
182.743	-0.66
183.129	-0
183.515	0.17
183.901	-2.37
184.288	0.38
184.674	-0
185.06	-1.17
185.446	0.49
185.832	-1.04
186.218	0.18
186.604	-0.25
186.99	-0.14
187.376	-0
187.762	0.63
188.148	0.12
188.534	-0.12
188.92	0.08
189.305	0.02
189.691	0.2
190.077	0.2
190.463	0.14
190.848	0.13
191.234	0.03
191.619	0.05
192.005	0.09
192.391	0.11
192.776	0.1
193.161	0.12
193.547	0.11
193.932	0.14
194.318	0.06
194.703	0.15
195.088	0.04
195.473	0.18
195.859	0.15
196.244	0.13
196.629	0.07
197.014	0.17
197.399	0.18
197.784	0.12
198.169	0.19
198.554	0.35
198.939	0.14
199.324	0.07
199.709	0.05
200.094	0.09
200.478	0.08
200.863	0.23
201.248	0.19
201.633	0.18
202.017	0.07
202.402	0.12
202.787	-0.01
203.171	0.22
203.556	0.14
203.94	0.13
204.325	0.22
204.709	0.24
205.093	0.02
205.478	0.07
205.862	0.02
206.246	0.08
206.631	0.17
207.015	0.18
207.399	0.08
207.783	0.14
208.167	0.08
208.551	0.27
208.935	0.19
209.319	0.12
209.703	0.08
210.087	0.28
210.471	0.23
210.855	0.09
211.239	0.27
211.623	0.2
212.007	0.22
212.39	0.28
212.774	0.17
213.158	0.19
213.541	0.39
213.925	0.39
214.309	0.35
214.692	0.11
215.076	0.23
215.459	0.19
215.842	0.09
216.226	0.27
216.609	0.28
216.993	0.14
217.376	0.31
217.759	0.09
218.142	0.3
218.525	0.38
218.909	0.46
219.292	0.29
219.675	0.44
220.058	0.57
220.441	0.47
220.824	0.45
221.207	0.68
221.59	0.39
221.973	0.44
222.355	0.58
222.738	0.63
223.121	0.48
223.504	0.56
223.886	0.75
224.269	0.67
224.652	0.67
225.034	0.85
225.417	0.75
225.799	0.72
226.182	0.93
226.564	0.75
226.947	0.68
227.329	0.81
227.711	0.97
228.094	0.92
228.476	0.89
228.858	0.78
229.24	0.79
229.623	0.87
230.005	0.86
230.387	0.83
230.769	0.78
231.151	0.95
231.533	1.01
231.915	0.96
232.297	1.01
232.679	0.85
233.061	0.98
233.442	1.11
233.824	0.99
234.206	0.99
234.588	0.98
234.969	0.97
235.351	0.88
235.733	1.04
236.114	1.12
236.496	1.08
236.877	1.12
237.259	0.98
237.64	0.99
238.022	0.97
238.403	0.96
238.784	0.93
239.165	0.89
239.547	1.06
239.928	1
240.309	1.1
240.69	1.08
241.071	1.18
241.452	1.31
241.834	1.03
242.215	1.1
242.595	1.01
242.976	1.12
243.357	1.11
243.738	1.01
244.119	1.15
244.5	1.02
244.881	1.16
245.261	1.17
245.642	1.13
246.023	1.12
246.403	1.07
246.784	1.25
247.164	1.32
247.545	1.23
247.925	1.31
248.306	1.24
248.686	1.27
249.067	1.26
249.447	1.41
249.827	1.4
250.207	1.41
250.588	1.31
250.968	1.33
251.348	1.3
251.728	1.33
252.108	1.52
252.488	1.28
252.868	1.32
253.248	1.4
253.628	1.53
254.008	1.57
254.388	1.32
254.768	1.29
255.147	1.46
255.527	1.43
255.907	1.34
256.287	1.41
256.666	1.41
257.046	1.48
257.425	1.39
257.805	1.42
258.184	1.3
258.564	1.28
258.943	1.43
259.323	1.37
259.702	1.44
260.081	1.4
260.461	1.43
260.84	1.41
261.219	1.66
261.598	1.62
261.977	1.43
262.356	1.51
262.736	1.61
263.115	1.39
263.494	1.46
263.873	1.38
264.251	1.64
264.63	1.59
265.009	1.46
265.388	1.35
265.767	1.38
266.145	1.47
266.524	1.37
266.903	1.46
267.281	1.5
267.66	1.6
268.039	1.46
268.417	1.52
268.796	1.41
269.174	1.35
269.552	1.23
269.931	1.32
270.309	1.47
270.687	1.52
271.066	1.65
271.444	1.41
271.822	1.47
272.2	1.45
272.578	1.49
272.956	1.37
273.334	1.31
273.712	1.42
274.09	1.49
274.468	1.36
274.846	1.33
275.224	1.39
275.602	1.46
275.98	1.56
276.357	1.35
276.735	1.48
277.113	1.37
277.49	1.35
277.868	1.23
278.246	1.33
278.623	1.37
279.001	1.27
279.378	1.39
279.756	1.64
280.133	1.68
280.51	1.52
280.888	1.46
281.265	1.34
281.642	1.38
282.019	1.58
282.396	1.54
282.773	1.43
283.151	1.53
283.528	1.37
283.905	1.5
284.282	1.48
284.659	1.51
285.035	1.31
285.412	1.3
285.789	1.54
286.166	1.41
286.543	1.4
286.919	1.56
287.296	1.35
287.673	1.58
288.049	1.49
288.426	1.44
288.802	1.54
289.179	1.39
289.555	1.79
289.932	1.41
290.308	1.35
290.684	1.33
291.061	1.35
291.437	1.5
291.813	1.28
292.189	1.5
292.565	1.28
292.942	1.4
293.318	1.38
293.694	1.44
294.07	1.26
294.446	1.31
294.822	1.61
295.197	1.51
295.573	1.43
295.949	1.46
296.325	1.46
296.701	1.52
297.076	1.5
297.452	1.52
297.828	1.55
298.203	1.55
298.579	1.45
298.954	1.41
299.33	1.47
299.705	1.54
300.081	1.5
300.456	1.55
300.831	1.43
301.206	1.44
301.582	1.62
301.957	1.47
302.332	1.64
302.707	1.54
303.082	1.56
303.457	1.57
303.832	1.5
304.207	1.43
304.582	1.46
304.957	1.5
305.332	1.61
305.707	1.33
306.082	1.45
306.456	1.57
306.831	1.43
307.206	1.58
307.58	1.51
307.955	1.42
308.33	1.51
308.704	1.47
309.079	1.46
309.453	1.69
309.828	1.58
310.202	1.42
310.576	1.58
310.951	1.51
311.325	1.49
311.699	1.41
312.073	1.37
312.447	1.36
312.821	1.43
313.196	1.66
313.57	1.43
313.944	1.46
314.317	1.41
314.691	1.46
315.065	1.48
315.439	1.6
315.813	1.49
316.187	1.41
316.56	1.69
316.934	1.52
317.308	1.67
317.681	1.48
318.055	1.48
318.428	1.37
318.802	1.63
319.175	1.4
319.549	1.58
319.922	1.37
320.295	1.4
320.669	1.57
321.042	1.58
321.415	1.64
321.788	1.52
322.162	1.5
322.535	1.58
322.908	1.5
323.281	1.45
323.654	1.77
324.027	1.52
324.4	1.68
324.773	1.46
325.145	1.57
325.518	1.48
325.891	1.44
326.264	1.84
326.636	1.31
327.009	1.54
327.382	1.56
327.754	1.49
328.127	1.46
328.499	1.64
328.872	1.58
329.244	1.63
329.616	1.52
329.989	1.35
330.361	1.5
330.733	1.46
331.106	1.4
331.478	1.44
331.85	1.35
332.222	1.51
332.594	1.61
332.966	1.56
333.338	1.63
333.71	1.55
334.082	1.77
334.454	1.44
334.826	1.52
335.197	1.49
335.569	1.47
335.941	1.41
336.312	1.42
336.684	1.45
337.056	1.43
337.427	1.75
337.799	1.6
338.17	1.47
338.542	1.49
338.913	1.53
339.284	1.6
339.656	1.45
340.027	1.55
340.398	1.57
340.769	1.53
341.141	1.66
341.512	1.57
341.883	1.69
342.254	1.55
342.625	1.59
342.996	1.56
343.367	1.5
343.738	1.5
344.108	1.44
344.479	1.73
344.85	1.33
345.221	1.62
345.591	1.43
345.962	1.39
346.333	1.51
346.703	1.3
347.074	1.43
347.444	1.38
347.815	1.48
348.185	1.53
348.556	1.42
348.926	1.35
349.296	1.34
349.666	1.37
350.037	1.25
350.407	1.4
350.777	1.31
351.147	1.42
351.517	1.49
351.887	1.43
352.257	1.48
352.627	1.41
352.997	1.27
353.367	1.38
353.737	1.34
354.106	1.34
354.476	1.31
354.846	1.43
355.216	1.38
355.585	1.38
355.955	1.32
356.324	1.42
356.694	1.38
357.063	1.3
357.433	1.26
357.802	1.32
358.171	1.25
358.541	1.23
358.91	1.18
359.279	1.17
359.648	1.17
360.017	1.21
360.387	1.15
360.756	1.13
361.125	1.13
361.494	1.15
361.863	1.11
362.231	1.06
362.6	1.11
362.969	1.08
363.338	0.97
363.707	1.02
364.075	1.05
364.444	0.96
364.813	0.92
365.181	0.96
365.55	0.95
365.918	0.98
366.287	0.92
366.655	0.92
367.024	0.93
367.392	0.9
367.76	0.87
368.128	0.86
368.497	0.84
368.865	0.85
369.233	0.84
369.601	0.8
369.969	0.81
370.337	0.86
370.705	0.82
371.073	0.78
371.441	0.79
371.809	0.77
372.177	0.77
372.544	0.78
372.912	0.75
373.28	0.76
373.647	0.75
374.015	0.78
374.383	0.75
374.75	0.76
375.118	0.73
375.485	0.72
375.853	0.73
376.22	0.7
376.587	0.71
376.955	0.72
377.322	0.68
377.689	0.72
378.056	0.71
378.423	0.71
378.79	0.72
379.157	0.73
379.524	0.7
379.891	0.7
380.258	0.69
380.625	0.69
380.992	0.7
381.359	0.7
381.726	0.73
382.092	0.69
382.459	0.7
382.826	0.7
383.192	0.7
383.559	0.68
383.925	0.69
384.292	0.72
384.658	0.7
385.025	0.72
385.391	0.68
385.757	0.71
386.123	0.71
386.49	0.72
386.856	0.71
387.222	0.72
387.588	0.71
387.954	0.73
388.32	0.72
388.686	0.72
389.052	0.71
389.418	0.72
389.784	0.72
390.15	0.73
390.515	0.7
390.881	0.73
391.247	0.68
391.613	0.73
391.978	0.7
392.344	0.72
392.709	0.72
393.075	0.74
393.44	0.71
393.806	0.73
394.171	0.69
394.536	0.7
394.902	0.7
395.267	0.69
395.632	0.68
395.997	0.69
396.362	0.67
396.727	0.69
397.092	0.68
397.457	0.67
397.822	0.67
398.187	0.69
398.552	0.66
398.917	0.66
399.282	0.67
399.646	0.65
400.011	0.66
400.376	0.65
400.74	0.64
401.105	0.64
401.47	0.64
401.834	0.63
402.199	0.63
402.563	0.64
402.927	0.6
403.292	0.62
403.656	0.61
404.02	0.62
404.384	0.62
404.749	0.61
405.113	0.6
405.477	0.59
405.841	0.58
406.205	0.58
406.569	0.59
406.933	0.57
407.296	0.55
407.66	0.59
408.024	0.56
408.388	0.59
408.752	0.54
409.115	0.55
409.479	0.55
409.842	0.53
410.206	0.54
410.569	0.54
410.933	0.53
411.296	0.53
411.66	0.53
412.023	0.5
412.386	0.53
412.749	0.5
413.113	0.51
413.476	0.49
413.839	0.5
414.202	0.49
414.565	0.5
414.928	0.5
415.291	0.48
415.654	0.49
416.017	0.48
416.38	0.48
416.742	0.48
417.105	0.46
417.468	0.49
417.83	0.48
418.193	0.47
418.556	0.47
418.918	0.45
419.281	0.48
419.643	0.46
420.005	0.47
420.368	0.47
420.73	0.47
421.092	0.47
421.455	0.46
421.817	0.43
422.179	0.44
422.541	0.46
422.903	0.44
423.265	0.45
423.627	0.43
423.989	0.43
424.351	0.44
424.713	0.42
425.075	0.43
425.436	0.44
425.798	0.43
426.16	0.43
426.521	0.43
426.883	0.44
427.245	0.44
427.606	0.42
427.967	0.42
428.329	0.42
428.69	0.42
429.052	0.43
429.413	0.44
429.774	0.42
430.135	0.41
430.497	0.42
430.858	0.4
431.219	0.4
431.58	0.41
431.941	0.39
432.302	0.41
432.663	0.4
433.024	0.43
433.384	0.41
433.745	0.39
434.106	0.41
434.467	0.4
434.827	0.4
435.188	0.41
435.548	0.41
435.909	0.39
436.269	0.41
436.63	0.4
436.99	0.4
437.351	0.39
437.711	0.38
438.071	0.38
438.431	0.38
438.792	0.37
439.152	0.37
439.512	0.38
439.872	0.38
440.232	0.39
440.592	0.38
440.952	0.36
441.312	0.37
441.671	0.37
442.031	0.37
442.391	0.37
442.751	0.38
443.11	0.36
443.47	0.34
443.83	0.35
444.189	0.35
444.549	0.35
444.908	0.35
445.267	0.35
445.627	0.34
445.986	0.34
446.345	0.33
446.705	0.34
447.064	0.35
447.423	0.34
447.782	0.33
448.141	0.33
448.5	0.32
448.859	0.34
449.218	0.32
449.577	0.33
449.936	0.34
450.295	0.32
450.653	0.31
451.012	0.33
451.371	0.31
451.729	0.33
452.088	0.32
452.447	0.32
452.805	0.31
453.163	0.33
453.522	0.33
453.88	0.3
454.239	0.31
454.597	0.3
454.955	0.3
455.313	0.29
455.671	0.3
456.029	0.29
456.388	0.3
456.746	0.3
457.104	0.28
457.461	0.28
457.819	0.29
458.177	0.28
458.535	0.27
458.893	0.26
459.25	0.27
459.608	0.27
459.966	0.26
460.323	0.26
460.681	0.25
461.038	0.25
461.396	0.25
461.753	0.25
462.111	0.25
462.468	0.24
462.825	0.24
463.182	0.24
463.54	0.23
463.897	0.24
464.254	0.24
464.611	0.24
464.968	0.24
465.325	0.24
465.682	0.23
466.039	0.23
466.395	0.22
466.752	0.22
467.109	0.22
467.466	0.23
467.822	0.23
468.179	0.21
468.535	0.21
468.892	0.21
469.248	0.21
469.605	0.2
469.961	0.2
470.318	0.21
470.674	0.2
471.03	0.2
471.386	0.2
471.743	0.19
472.099	0.18
472.455	0.19
472.811	0.19
473.167	0.19
473.523	0.18
473.879	0.19
474.235	0.19
474.59	0.18
474.946	0.18
475.302	0.18
475.657	0.18
476.013	0.18
476.369	0.17
476.724	0.18
477.08	0.17
477.435	0.17
477.791	0.16
478.146	0.17
478.501	0.17
478.857	0.17
479.212	0.16
479.567	0.15
479.922	0.15
480.277	0.15
480.632	0.14
480.987	0.15
481.342	0.14
481.697	0.14
482.052	0.14
482.407	0.14
482.762	0.14
483.116	0.14
483.471	0.13
483.826	0.13
484.18	0.13
484.535	0.13
484.89	0.12
485.244	0.13
485.598	0.13
485.953	0.12
486.307	0.13
486.661	0.13
487.016	0.12
487.37	0.12
487.724	0.12
488.078	0.12
488.432	0.12
488.786	0.12
489.14	0.12
489.494	0.11
489.848	0.12
490.202	0.12
490.556	0.12
490.91	0.11
491.263	0.11
491.617	0.11
491.971	0.11
492.324	0.11
492.678	0.11
493.031	0.12
493.385	0.11
493.738	0.11
494.091	0.11
494.445	0.11
494.798	0.1
495.151	0.11
495.504	0.11
495.857	0.1
496.21	0.11
496.564	0.11
496.916	0.11
497.269	0.1
497.622	0.11
497.975	0.1
498.328	0.11
498.681	0.1
499.033	0.1
499.386	0.1
499.739	0.1
500.091	0.1
500.444	0.09
500.796	0.1
501.149	0.09
501.501	0.09
501.854	0.1
502.206	0.09
502.558	0.1
502.91	0.09
503.263	0.09
503.615	0.09
503.967	0.09
504.319	0.09
504.671	0.08
505.023	0.09
505.375	0.09
505.726	0.09
506.078	0.09
506.43	0.09
506.782	0.09
507.133	0.09
507.485	0.09
507.837	0.1
508.188	0.09
508.54	0.09
508.891	0.1
509.243	0.1
509.594	0.09
509.945	0.09
510.296	0.09
510.648	0.09
510.999	0.09
511.35	0.09
511.701	0.09
512.052	0.09
512.403	0.09
512.754	0.09
513.105	0.08
513.456	0.09
513.807	0.09
514.157	0.09
514.508	0.08
514.859	0.08
515.209	0.09
515.56	0.1
515.91	0.08
516.261	0.09
516.611	0.08
516.962	0.09
517.312	0.09
517.662	0.09
518.013	0.09
518.363	0.1
518.713	0.09
519.063	0.1
519.413	0.09
519.763	0.09
520.113	0.09
520.463	0.09
520.813	0.1
521.163	0.1
521.512	0.1
521.862	0.1
522.212	0.09
522.562	0.09
522.911	0.09
523.261	0.09
523.61	0.09
523.96	0.09
524.309	0.1
524.658	0.1
525.008	0.09
525.357	0.09
525.706	0.09
526.056	0.09
526.405	0.1
526.754	0.09
527.103	0.09
527.452	0.09
527.801	0.09
528.15	0.1
528.499	0.1
528.847	0.1
529.196	0.1
529.545	0.1
529.893	0.1
530.242	0.1
530.591	0.1
530.939	0.11
531.288	0.1
531.636	0.1
531.985	0.1
532.333	0.1
532.681	0.1
533.029	0.1
533.378	0.1
533.726	0.1
534.074	0.11
534.422	0.09
534.77	0.1
535.118	0.09
535.466	0.09
535.814	0.09
536.162	0.1
536.509	0.1
536.857	0.1
537.205	0.1
537.552	0.1
537.9	0.1
538.248	0.1
538.595	0.11
538.943	0.1
539.29	0.1
539.637	0.09
539.985	0.09
540.332	0.09
540.679	0.09
541.026	0.1
541.373	0.1
541.721	0.1
542.068	0.1
542.415	0.1
542.762	0.09
543.108	0.09
543.455	0.09
543.802	0.09
544.149	0.09
544.496	0.1
544.842	0.09
545.189	0.09
545.535	0.09
545.882	0.09
546.228	0.09
546.575	0.09
546.921	0.09
547.267	0.08
547.614	0.09
547.96	0.09
548.306	0.09
548.652	0.08
548.998	0.09
549.344	0.09
549.69	0.09
550.036	0.09
550.382	0.09
550.728	0.09
551.074	0.1
551.42	0.1
551.765	0.1
552.111	0.1
552.457	0.1
552.802	0.1
553.148	0.09
553.493	0.1
553.839	0.1
554.184	0.09
554.529	0.09
554.875	0.1
555.22	0.1
555.565	0.1
555.91	0.09
556.255	0.09
556.6	0.1
556.945	0.09
557.29	0.1
557.635	0.1
557.98	0.1
558.325	0.1
558.67	0.1
559.014	0.09
559.359	0.09
559.704	0.1
560.048	0.09
560.393	0.09
560.737	0.08
561.082	0.09
561.426	0.09
561.77	0.08
562.115	0.09
562.459	0.09
562.803	0.1
563.147	0.09
563.491	0.09
563.835	0.1
564.179	0.09
564.523	0.09
564.867	0.08
565.211	0.09
565.555	0.09
565.899	0.11
566.242	0.09
566.586	0.08
566.93	0.1
567.273	0.1
567.617	0.09
567.96	0.1
568.304	0.1
568.647	0.1
568.99	0.1
569.334	0.1
569.677	0.1
570.02	0.1
570.363	0.1
570.706	0.1
571.049	0.09
571.392	0.09
571.735	0.1
572.078	0.1
572.421	0.11
572.764	0.1
573.106	0.11
573.449	0.1
573.792	0.09
574.134	0.1
574.477	0.1
574.819	0.09
575.162	0.1
575.504	0.1
575.847	0.1
576.189	0.09
576.531	0.1
576.873	0.09
577.215	0.09
577.558	0.09
577.9	0.08
578.242	0.09
578.584	0.1
578.926	0.09
579.267	0.09
579.609	0.09
579.951	0.09
580.293	0.09
580.634	0.1
580.976	0.1
581.318	0.1
581.659	0.09
582.001	0.1
582.342	0.09
582.683	0.09
583.025	0.1
583.366	0.09
583.707	0.1
584.049	0.1
584.39	0.09
584.731	0.09
585.072	0.09
585.413	0.1
585.754	0.1
586.095	0.1
586.435	0.1
586.776	0.1
587.117	0.09
587.458	0.09
587.798	0.09
588.139	0.09
588.48	0.09
588.82	0.09
589.161	0.09
589.501	0.09
589.841	0.09
590.182	0.08
590.522	0.09
590.862	0.09
591.202	0.09
591.542	0.09
591.882	0.09
592.222	0.09
592.562	0.09
592.902	0.09
593.242	0.09
593.582	0.09
593.922	0.08
594.261	0.09
594.601	0.09
594.941	0.09
595.28	0.09
595.62	0.09
595.959	0.09
596.299	0.09
596.638	0.09
596.977	0.09
597.317	0.1
597.656	0.09
597.995	0.1
598.334	0.1
598.673	0.1
599.012	0.09
599.351	0.1
599.69	0.1
600.029	0.1
600.368	0.1
600.707	0.1
601.046	0.1
601.384	0.1
601.723	0.1
602.061	0.1
602.4	0.09
602.738	0.1
603.077	0.09
603.415	0.09
603.754	0.09
604.092	0.1
604.43	0.09
604.768	0.1
605.107	0.1
605.445	0.09
605.783	0.09
606.121	0.09
606.459	0.09
606.796	0.1
607.134	0.09
607.472	0.09
607.81	0.1
608.148	0.1
608.485	0.1
608.823	0.09
609.16	0.09
609.498	0.09
609.835	0.09
610.173	0.09
610.51	0.09
610.847	0.1
611.185	0.09
611.522	0.1
611.859	0.1
612.196	0.1
612.533	0.1
612.87	0.09
613.207	0.1
613.544	0.1
613.881	0.11
614.217	0.1
614.554	0.1
614.891	0.1
615.228	0.09
615.564	0.1
615.901	0.1
616.237	0.1
616.574	0.1
616.91	0.11
617.246	0.11
617.583	0.11
617.919	0.1
618.255	0.11
618.591	0.1
618.927	0.1
619.263	0.11
619.599	0.11
619.935	0.1
620.271	0.11
620.607	0.11
620.943	0.1
621.279	0.11
621.614	0.1
621.95	0.11
622.286	0.1
622.621	0.1
622.957	0.1
623.292	0.1
623.627	0.1
623.963	0.1
624.298	0.1
624.633	0.1
624.968	0.09
625.304	0.09
625.639	0.09
625.974	0.1
626.309	0.09
626.644	0.09
626.979	0.11
627.313	0.1
627.648	0.1
627.983	0.1
628.318	0.1
628.652	0.09
628.987	0.1
629.321	0.09
629.656	0.09
629.99	0.09
630.325	0.09
630.659	0.09
630.993	0.09
631.327	0.09
631.662	0.08
631.996	0.08
632.33	0.09
632.664	0.09
632.998	0.08
633.332	0.08
633.666	0.08
633.999	0.08
634.333	0.08
634.667	0.08
635.001	0.07
635.334	0.08
635.668	0.08
636.001	0.08
636.335	0.08
636.668	0.08
637.001	0.07
637.335	0.08
637.668	0.08
638.001	0.08
638.334	0.08
638.668	0.08
639.001	0.08
639.334	0.08
639.667	0.08
639.999	0.07
640.332	0.09
640.665	0.08
640.998	0.08
641.331	0.09
641.663	0.08
641.996	0.08
642.328	0.09
642.661	0.08
642.993	0.09
643.326	0.09
643.658	0.08
643.99	0.08
644.323	0.09
644.655	0.08
644.987	0.09
645.319	0.09
645.651	0.09
645.983	0.09
646.315	0.08
646.647	0.09
646.979	0.1
647.31	0.1
647.642	0.09
647.974	0.09
648.305	0.09
648.637	0.09
648.968	0.09
649.3	0.09
649.631	0.1
649.963	0.08
650.294	0.09
650.625	0.09
650.957	0.09
651.288	0.09
651.619	0.09
651.95	0.09
652.281	0.09
652.612	0.09
652.943	0.09
653.274	0.1
653.604	0.09
653.935	0.09
654.266	0.09
654.596	0.08
654.927	0.09
655.258	0.09
655.588	0.09
655.918	0.09
656.249	0.07
656.579	0.08
656.909	0.08
657.24	0.08
657.57	0.09
657.9	0.09
658.23	0.08
658.56	0.09
658.89	0.09
659.22	0.08
659.55	0.08
659.88	0.09
660.209	0.08
660.539	0.09
660.869	0.08
661.198	0.09
661.528	0.08
661.857	0.08
662.187	0.09
662.516	0.08
662.846	0.08
663.175	0.08
663.504	0.09
663.833	0.08
664.163	0.09
664.492	0.08
664.821	0.08
665.15	0.08
665.479	0.08
665.807	0.08
666.136	0.08
666.465	0.08
666.794	0.09
667.122	0.08
667.451	0.09
667.78	0.09
668.108	0.09
668.437	0.09
668.765	0.09
669.093	0.09
669.422	0.09
669.75	0.09
670.078	0.09
670.406	0.09
670.734	0.09
671.062	0.09
671.39	0.09
671.718	0.09
672.046	0.09
672.374	0.08
672.702	0.08
673.029	0.09
673.357	0.09
673.685	0.09
674.012	0.09
674.34	0.08
674.667	0.09
674.995	0.09
675.322	0.09
675.649	0.08
675.977	0.09
676.304	0.09
676.631	0.09
676.958	0.08
677.285	0.08
677.612	0.08
677.939	0.08
678.266	0.09
678.593	0.08
678.92	0.08
679.246	0.08
679.573	0.08
679.9	0.08
680.226	0.08
680.553	0.07
680.879	0.08
681.206	0.09
681.532	0.08
681.858	0.08
682.184	0.08
682.511	0.09
682.837	0.09
683.163	0.09
683.489	0.08
683.815	0.09
684.141	0.09
684.467	0.09
684.793	0.08
685.118	0.09
685.444	0.09
685.77	0.08
686.095	0.09
686.421	0.08
686.746	0.08
687.072	0.08
687.397	0.08
687.723	0.08
688.048	0.08
688.373	0.08
688.698	0.08
689.023	0.08
689.349	0.08
689.674	0.08
689.999	0.07
690.323	0.07
690.648	0.07
690.973	0.06
691.298	0.07
691.623	0.07
691.947	0.07
692.272	0.07
692.596	0.07
692.921	0.08
693.245	0.07
693.57	0.08
693.894	0.07
694.218	0.08
694.543	0.08
694.867	0.07
695.191	0.07
695.515	0.08
695.839	0.07
696.163	0.08
696.487	0.08
696.811	0.07
697.135	0.08
697.458	0.08
697.782	0.08
698.106	0.07
698.429	0.08
698.753	0.08
699.076	0.08
699.4	0.07
699.723	0.08
700.046	0.07
700.37	0.08
700.693	0.08
701.016	0.07
701.339	0.08
701.662	0.08
701.985	0.08
702.308	0.07
702.631	0.08
702.954	0.07
703.277	0.07
703.599	0.07
703.922	0.07
704.245	0.07
704.567	0.06
704.89	0.07
705.212	0.07
705.535	0.06
705.857	0.06
706.179	0.06
706.502	0.07
706.824	0.07
707.146	0.06
707.468	0.06
707.79	0.06
708.112	0.07
708.434	0.07
708.756	0.07
709.078	0.07
709.399	0.07
709.721	0.06
710.043	0.07
710.364	0.07
710.686	0.07
711.007	0.07
711.329	0.07
711.65	0.07
711.972	0.07
712.293	0.07
712.614	0.08
712.935	0.07
713.256	0.07
713.577	0.08
713.898	0.07
714.219	0.07
714.54	0.07
714.861	0.07
715.182	0.07
715.503	0.07
715.823	0.07
716.144	0.06
716.464	0.07
716.785	0.06
717.105	0.07
717.426	0.07
717.746	0.06
718.066	0.07
718.387	0.07
718.707	0.06
719.027	0.07
719.347	0.06
719.667	0.07
719.987	0.06
720.307	0.06
720.627	0.06
720.947	0.06
721.266	0.06
721.586	0.05
721.906	0.05
722.225	0.05
722.545	0.06
722.864	0.05
723.184	0.06
723.503	0.06
723.823	0.06
724.142	0.06
724.461	0.06
724.78	0.06
725.099	0.06
725.418	0.06
725.737	0.06
726.056	0.06
726.375	0.07
726.694	0.07
727.013	0.07
727.331	0.06
727.65	0.07
727.969	0.06
728.287	0.06
728.606	0.06
728.924	0.05
729.242	0.06
729.561	0.05
729.879	0.06
730.197	0.06
730.515	0.05
730.834	0.06
731.152	0.06
731.47	0.06
731.788	0.06
732.105	0.06
732.423	0.06
732.741	0.07
733.059	0.07
733.376	0.07
733.694	0.06
734.012	0.06
734.329	0.06
734.647	0.06
734.964	0.07
735.281	0.06
735.599	0.07
735.916	0.07
736.233	0.07
736.55	0.07
736.867	0.07
737.184	0.07
737.501	0.07
737.818	0.07
738.135	0.08
738.452	0.08
738.768	0.07
739.085	0.07
739.402	0.06
739.718	0.07
740.035	0.06
740.351	0.07
740.668	0.07
740.984	0.06
741.3	0.06
741.617	0.07
741.933	0.05
742.249	0.07
742.565	0.06
742.881	0.07
743.197	0.06
743.513	0.06
743.829	0.05
744.144	0.06
744.46	0.06
744.776	0.06
745.091	0.06
745.407	0.06
745.722	0.06
746.038	0.06
746.353	0.05
746.669	0.07
746.984	0.05
747.299	0.06
747.614	0.06
747.93	0.06
748.245	0.05
748.56	0.05
748.875	0.06
749.189	0.05
749.504	0.06
749.819	0.06
750.134	0.05
750.448	0.05
750.763	0.05
751.078	0.05
751.392	0.05
751.707	0.06
752.021	0.06
752.335	0.06
752.65	0.06
752.964	0.05
753.278	0.06
753.592	0.06
753.906	0.05
754.22	0.05
754.534	0.06
754.848	0.06
755.162	0.05
755.476	0.07
755.789	0.06
756.103	0.05
756.417	0.06
756.73	0.06
757.044	0.06
757.357	0.06
757.671	0.05
757.984	0.05
758.297	0.05
758.61	0.06
758.924	0.05
759.237	0.05
759.55	0.05
759.863	0.05
760.176	0.05
760.488	0.05
760.801	0.05
761.114	0.05
761.427	0.05
761.739	0.05
762.052	0.04
762.365	0.05
762.677	0.05
762.99	0.05
763.302	0.05
763.614	0.05
763.926	0.06
764.239	0.06
764.551	0.05
764.863	0.05
765.175	0.06
765.487	0.05
765.799	0.05
766.111	0.05
766.423	0.05
766.734	0.06
767.046	0.05
767.358	0.05
767.669	0.05
767.981	0.05
768.292	0.04
768.604	0.05
768.915	0.05
769.226	0.05
769.537	0.04
769.849	0.06
770.16	0.05
770.471	0.04
770.782	0.04
771.093	0.04
771.404	0.04
771.715	0.04
772.025	0.04
772.336	0.04
772.647	0.04
772.957	0.04
773.268	0.05
773.578	0.05
773.889	0.05
774.199	0.05
774.51	0.05
774.82	0.04
775.13	0.05
775.44	0.05
775.75	0.05
776.06	0.05
776.37	0.05
776.68	0.06
776.99	0.05
777.3	0.05
777.61	0.06
777.92	0.05
778.229	0.06
778.539	0.06
778.848	0.05
779.158	0.06
779.467	0.06
779.777	0.05
780.086	0.07
780.395	0.05
780.704	0.05
781.013	0.04
781.323	0.05
781.632	0.05
781.941	0.05
782.249	0.05
782.558	0.05
782.867	0.05
783.176	0.04
783.485	0.05
783.793	0.05
784.102	0.04
784.41	0.05
784.719	0.05
785.027	0.04
785.335	0.05
785.644	0.05
785.952	0.05
786.26	0.04
786.568	0.05
786.876	0.04
787.184	0.05
787.492	0.05
787.8	0.05
788.108	0.05
788.416	0.05
788.723	0.05
789.031	0.04
789.338	0.05
789.646	0.05
789.953	0.06
790.261	0.06
790.568	0.05
790.876	0.05
791.183	0.06
791.49	0.05
791.797	0.06
792.104	0.05
792.411	0.06
792.718	0.05
793.025	0.05
793.332	0.05
793.639	0.06
793.945	0.06
794.252	0.06
794.559	0.06
794.865	0.05
795.172	0.06
795.478	0.05
795.784	0.06
796.091	0.05
796.397	0.05
796.703	0.06
797.009	0.07
797.315	0.06
797.622	0.06
797.927	0.06
798.233	0.05
798.539	0.06
798.845	0.06
799.151	0.06
799.456	0.06
799.762	0.06
800.068	0.05
800.373	0.06
800.679	0.06
800.984	0.06
801.289	0.05
801.595	0.06
801.9	0.05
802.205	0.05
802.51	0.05
802.815	0.06
803.12	0.06
803.425	0.05
803.73	0.05
804.035	0.05
804.339	0.05
804.644	0.05
804.949	0.05
805.253	0.05
805.558	0.05
805.862	0.05
806.167	0.05
806.471	0.05
806.775	0.05
807.08	0.06
807.384	0.05
807.688	0.05
807.992	0.06
808.296	0.05
808.6	0.05
808.904	0.06
809.207	0.06
809.511	0.06
809.815	0.06
810.119	0.06
810.422	0.06
810.726	0.06
811.029	0.07
811.332	0.06
811.636	0.07
811.939	0.05
812.242	0.06
812.546	0.06
812.849	0.06
813.152	0.06
813.455	0.06
813.758	0.06
814.06	0.06
814.363	0.06
814.666	0.06
814.969	0.06
815.271	0.06
815.574	0.05
815.877	0.05
816.179	0.05
816.481	0.05
816.784	0.06
817.086	0.04
817.388	0.04
817.69	0.05
817.993	0.04
818.295	0.04
818.597	0.04
818.899	0.04
819.2	0.04
819.502	0.04
819.804	0.05
820.106	0.04
820.407	0.04
820.709	0.04
821.01	0.04
821.312	0.05
821.613	0.04
821.915	0.04
822.216	0.04
822.517	0.03
822.818	0.04
823.119	0.04
823.42	0.04
823.721	0.03
824.022	0.03
824.323	0.04
824.624	0.03
824.925	0.04
825.226	0.05
825.526	0.04
825.827	0.04
826.127	0.04
826.428	0.04
826.728	0.03
827.028	0.04
827.329	0.04
827.629	0.02
827.929	0.03
828.229	0.04
828.529	0.04
828.829	0.04
829.129	0.03
829.429	0.03
829.729	0.03
830.029	0.03
830.328	0.03
830.628	0.03
830.927	0.03
831.227	0.02
831.526	0.03
831.826	0.03
832.125	0.04
832.424	0.02
832.724	0.03
833.023	0.03
833.322	0.03
833.621	0.02
833.92	0.01
834.219	0.03
834.518	0.02
834.816	0.01
835.115	0.02
835.414	0.02
835.712	0.02
836.011	0.01
836.309	0.01
836.608	0.01
836.906	0
837.205	0
837.503	0.01
837.801	0.01
838.099	-0
838.397	-0.02
838.695	-0.01
838.993	-0.01
839.291	-0.01
839.589	-0.01
839.887	-0.01
840.184	-0.01
840.482	-0.01
840.78	-0
841.077	-0.01
841.375	-0.01
841.672	-0.01
841.969	-0.02
842.267	-0.02
842.564	-0.01
842.861	-0
843.158	-0.01
843.455	-0.03
843.752	-0.02
844.049	-0.02
844.346	-0.02
844.643	-0.03
844.94	-0.02
845.236	-0.01
845.533	-0.01
845.83	-0.02
846.126	-0.02
846.423	-0.02
846.719	-0.03
847.015	-0.03
847.312	-0.03
847.608	-0.04
847.904	-0.04
848.2	-0.04
848.496	-0.04
848.792	-0.04
849.088	-0.04
849.384	-0.04
849.68	-0.05
849.975	-0.04
850.271	-0.05
850.567	-0.05
850.862	-0.06
851.158	-0.05
851.453	-0.05
851.748	-0.07
852.044	-0.06
852.339	-0.05
852.634	-0.07
852.929	-0.06
853.224	-0.07
853.519	-0.06
853.814	-0.05
854.109	-0.07
854.404	-0.06
854.699	-0.06
854.994	-0.05
855.288	-0.06
855.583	-0.06
855.877	-0.05
856.172	-0.06
856.466	-0.07
856.76	-0.06
857.055	-0.06
857.349	-0.08
857.643	-0.08
857.937	-0.08
858.231	-0.08
858.525	-0.08
858.819	-0.08
859.113	-0.09
859.407	-0.09
859.701	-0.1
859.994	-0.1
860.288	-0.08
860.581	-0.09
860.875	-0.1
861.168	-0.11
861.462	-0.1
861.755	-0.1
862.048	-0.1
862.341	-0.1
862.634	-0.11
862.928	-0.11
863.221	-0.11
863.513	-0.12
863.806	-0.12
864.099	-0.11
864.392	-0.11
864.685	-0.11
864.977	-0.12
865.27	-0.12
865.562	-0.11
865.855	-0.12
866.147	-0.12
866.44	-0.11
866.732	-0.12
867.024	-0.12
867.316	-0.13
867.608	-0.12
867.9	-0.13
868.192	-0.13
868.484	-0.13
868.776	-0.13
869.068	-0.13
869.359	-0.12
869.651	-0.14
869.943	-0.14
870.234	-0.14
870.526	-0.14
870.817	-0.14
871.108	-0.13
871.4	-0.14
871.691	-0.15
871.982	-0.15
872.273	-0.16
872.564	-0.14
872.855	-0.15
873.146	-0.16
873.437	-0.14
873.728	-0.16
874.019	-0.15
874.309	-0.15
874.6	-0.16
874.89	-0.16
875.181	-0.16
875.471	-0.15
875.762	-0.16
876.052	-0.16
876.342	-0.15
876.632	-0.16
876.922	-0.17
877.213	-0.16
877.503	-0.16
877.792	-0.16
878.082	-0.18
878.372	-0.16
878.662	-0.19
878.952	-0.16
879.241	-0.17
879.531	-0.16
879.82	-0.16
880.11	-0.17
880.399	-0.17
880.688	-0.16
880.978	-0.16
881.267	-0.16
