Data from 12-12-AQDScycling_Absorbance__982__00982.txt Node

Date: Tue Dec 12 15:02:14 EST 2023
User: kyuminlee
Spectrometer: FLMS00943
Trigger mode: 0
Integration Time (sec): 1.000000E-1
Scans to average: 1
Electric dark correction enabled: true
Nonlinearity correction enabled: false
Boxcar width: 0
XAxis mode: Wavelengths
Number of Pixels in Spectrum: 2048
>>>>>Begin Spectral Data<<<<<
179.651	-0.23
180.037	-0.23
180.424	-0.23
180.81	-0.19
181.197	0.22
181.583	-0.47
181.97	-0.19
182.356	-0
182.743	-0
183.129	0.12
183.515	0.64
183.901	-2.54
184.288	0.02
184.674	-0
185.06	-0
185.446	-0
185.832	-0
186.218	0.23
186.604	0.26
186.99	0.15
187.376	-0
187.762	0.63
188.148	0.44
188.534	-0.12
188.92	-0
189.305	0
189.691	0.23
190.077	0.07
190.463	0.05
190.848	0.14
191.234	0.03
191.619	0.11
192.005	0.05
192.391	0.13
192.776	0.15
193.161	0.12
193.547	0.11
193.932	0.09
194.318	-0
194.703	0.14
195.088	0.26
195.473	0.28
195.859	0.34
196.244	0.17
196.629	0.14
197.014	0.1
197.399	0.27
197.784	0.14
198.169	0.11
198.554	0.2
198.939	0.15
199.324	0.07
199.709	0.12
200.094	-0.02
200.478	0.06
200.863	0.22
201.248	0.12
201.633	0.07
202.017	0.07
202.402	0.28
202.787	0.12
203.171	0.31
203.556	0.15
203.94	0.13
204.325	0.2
204.709	0.31
205.093	0.16
205.478	0.18
205.862	0.04
206.246	0.07
206.631	0.2
207.015	0.11
207.399	0.12
207.783	0.13
208.167	0.1
208.551	0.19
208.935	0.19
209.319	0.21
209.703	0.28
210.087	0.22
210.471	0.05
210.855	0.24
211.239	0.19
211.623	0.3
212.007	0.35
212.39	0.4
212.774	0.22
213.158	0.11
213.541	0.2
213.925	0.26
214.309	0.41
214.692	0.37
215.076	0.25
215.459	0.22
215.842	0.15
216.226	0.19
216.609	0.23
216.993	0.19
217.376	0.63
217.759	0.2
218.142	0.27
218.525	0.48
218.909	0.32
219.292	0.39
219.675	0.54
220.058	0.43
220.441	0.44
220.824	0.46
221.207	0.67
221.59	0.42
221.973	0.54
222.355	0.61
222.738	0.8
223.121	0.62
223.504	0.56
223.886	0.78
224.269	0.62
224.652	0.6
225.034	0.78
225.417	0.8
225.799	0.89
226.182	0.92
226.564	0.8
226.947	0.79
227.329	0.77
227.711	0.9
228.094	0.84
228.476	1
228.858	0.81
229.24	0.81
229.623	0.86
230.005	0.82
230.387	0.93
230.769	0.79
231.151	1.01
231.533	0.94
231.915	0.95
232.297	1.06
232.679	0.91
233.061	1.06
233.442	1.07
233.824	1.11
234.206	1.2
234.588	1.12
234.969	1.07
235.351	0.97
235.733	1.05
236.114	1.23
236.496	0.99
236.877	1.1
237.259	1
237.64	1.06
238.022	1.11
238.403	1.01
238.784	1.01
239.165	0.95
239.547	0.97
239.928	1.22
240.309	0.97
240.69	1.09
241.071	1.04
241.452	1.2
241.834	0.98
242.215	1.04
242.595	1.23
242.976	1.19
243.357	1.24
243.738	1.01
244.119	1.05
244.5	1.18
244.881	1.47
245.261	1.27
245.642	1.18
246.023	1.19
246.403	1.14
246.784	1.2
247.164	1.33
247.545	1.29
247.925	1.22
248.306	1.12
248.686	1.29
249.067	1.28
249.447	1.35
249.827	1.68
250.207	1.44
250.588	1.28
250.968	1.52
251.348	1.36
251.728	1.52
252.108	1.36
252.488	1.36
252.868	1.38
253.248	1.28
253.628	1.37
254.008	1.48
254.388	1.29
254.768	1.4
255.147	1.36
255.527	1.41
255.907	1.31
256.287	1.25
256.666	1.37
257.046	1.49
257.425	1.43
257.805	1.27
258.184	1.33
258.564	1.34
258.943	1.4
259.323	1.68
259.702	1.4
260.081	1.51
260.461	1.52
260.84	1.45
261.219	1.59
261.598	1.39
261.977	1.59
262.356	1.53
262.736	1.47
263.115	1.57
263.494	1.45
263.873	1.48
264.251	1.55
264.63	1.53
265.009	1.37
265.388	1.37
265.767	1.33
266.145	1.45
266.524	1.48
266.903	1.38
267.281	1.34
267.66	1.5
268.039	1.42
268.417	1.32
268.796	1.42
269.174	1.49
269.552	1.34
269.931	1.53
270.309	1.52
270.687	1.51
271.066	1.5
271.444	1.37
271.822	1.48
272.2	1.41
272.578	1.46
272.956	1.35
273.334	1.45
273.712	1.53
274.09	1.55
274.468	1.33
274.846	1.32
275.224	1.38
275.602	1.51
275.98	1.59
276.357	1.23
276.735	1.34
277.113	1.39
277.49	1.3
277.868	1.32
278.246	1.38
278.623	1.29
279.001	1.35
279.378	1.38
279.756	1.45
280.133	1.72
280.51	1.37
280.888	1.44
281.265	1.28
281.642	1.43
282.019	1.57
282.396	1.51
282.773	1.44
283.151	1.44
283.528	1.58
283.905	1.39
284.282	1.53
284.659	1.65
285.035	1.32
285.412	1.3
285.789	1.47
286.166	1.46
286.543	1.44
286.919	1.54
287.296	1.34
287.673	1.79
288.049	1.58
288.426	1.78
288.802	1.47
289.179	1.47
289.555	1.59
289.932	1.55
290.308	1.32
290.684	1.34
291.061	1.34
291.437	1.62
291.813	1.3
292.189	1.33
292.565	1.35
292.942	1.31
293.318	1.32
293.694	1.52
294.07	1.35
294.446	1.37
294.822	1.5
295.197	1.53
295.573	1.51
295.949	1.47
296.325	1.51
296.701	1.64
297.076	1.6
297.452	1.54
297.828	1.56
298.203	1.59
298.579	1.4
298.954	1.46
299.33	1.38
299.705	1.42
300.081	1.57
300.456	1.47
300.831	1.48
301.206	1.54
301.582	1.62
301.957	1.45
302.332	1.56
302.707	1.54
303.082	1.42
303.457	1.62
303.832	1.53
304.207	1.4
304.582	1.48
304.957	1.52
305.332	1.59
305.707	1.54
306.082	1.46
306.456	1.64
306.831	1.36
307.206	1.65
307.58	1.56
307.955	1.47
308.33	1.53
308.704	1.47
309.079	1.44
309.453	1.62
309.828	1.53
310.202	1.55
310.576	1.46
310.951	1.57
311.325	1.49
311.699	1.42
312.073	1.43
312.447	1.5
312.821	1.43
313.196	1.49
313.57	1.37
313.944	1.43
314.317	1.36
314.691	1.49
315.065	1.49
315.439	1.57
315.813	1.45
316.187	1.38
316.56	1.59
316.934	1.6
317.308	1.42
317.681	1.57
318.055	1.48
318.428	1.52
318.802	1.49
319.175	1.55
319.549	1.57
319.922	1.37
320.295	1.43
320.669	1.65
321.042	1.44
321.415	1.67
321.788	1.45
322.162	1.47
322.535	1.64
322.908	1.51
323.281	1.46
323.654	1.61
324.027	1.49
324.4	1.58
324.773	1.64
325.145	1.45
325.518	1.41
325.891	1.52
326.264	1.53
326.636	1.36
327.009	1.49
327.382	1.52
327.754	1.71
328.127	1.46
328.499	1.52
328.872	1.55
329.244	1.54
329.616	1.55
329.989	1.5
330.361	1.61
330.733	1.5
331.106	1.42
331.478	1.7
331.85	1.47
332.222	1.49
332.594	1.45
332.966	1.44
333.338	1.58
333.71	1.53
334.082	1.63
334.454	1.51
334.826	1.45
335.197	1.6
335.569	1.44
335.941	1.52
336.312	1.5
336.684	1.43
337.056	1.48
337.427	1.59
337.799	1.49
338.17	1.57
338.542	1.46
338.913	1.6
339.284	1.63
339.656	1.48
340.027	1.69
340.398	1.53
340.769	1.51
341.141	1.57
341.512	1.58
341.883	1.45
342.254	1.47
342.625	1.5
342.996	1.54
343.367	1.57
343.738	1.46
344.108	1.41
344.479	1.71
344.85	1.39
345.221	1.49
345.591	1.36
345.962	1.43
346.333	1.5
346.703	1.32
347.074	1.39
347.444	1.3
347.815	1.37
348.185	1.68
348.556	1.44
348.926	1.5
349.296	1.51
349.666	1.5
350.037	1.25
350.407	1.25
350.777	1.53
351.147	1.38
351.517	1.4
351.887	1.37
352.257	1.38
352.627	1.29
352.997	1.3
353.367	1.32
353.737	1.5
354.106	1.45
354.476	1.33
354.846	1.4
355.216	1.31
355.585	1.44
355.955	1.36
356.324	1.43
356.694	1.33
357.063	1.34
357.433	1.31
357.802	1.31
358.171	1.34
358.541	1.36
358.91	1.27
359.279	1.31
359.648	1.19
360.017	1.28
360.387	1.2
360.756	1.21
361.125	1.25
361.494	1.2
361.863	1.19
362.231	1.15
362.6	1.19
362.969	1.18
363.338	1.13
363.707	1.24
364.075	1.21
364.444	1.07
364.813	1.14
365.181	1.11
365.55	1.17
365.918	1.22
366.287	1.13
366.655	1.13
367.024	1.11
367.392	1.11
367.76	1.08
368.128	1.08
368.497	1.11
368.865	1.11
369.233	1.09
369.601	1.08
369.969	1.09
370.337	1.07
370.705	1.06
371.073	1.04
371.441	1.04
371.809	1.06
372.177	1.02
372.544	1.02
372.912	1.07
373.28	1
373.647	1.06
374.015	1.06
374.383	1.12
374.75	1.09
375.118	1.06
375.485	1.05
375.853	1.07
376.22	1.06
376.587	1.06
376.955	1.05
377.322	1.01
377.689	1.02
378.056	1
378.423	0.97
378.79	1.08
379.157	1.08
379.524	1.02
379.891	1.04
380.258	1.1
380.625	1.06
380.992	1.03
381.359	1.06
381.726	1.14
382.092	1.02
382.459	1.09
382.826	1.14
383.192	1.14
383.559	1.1
383.925	1.15
384.292	1.1
384.658	1.15
385.025	1.07
385.391	1.15
385.757	1.14
386.123	1.18
386.49	1.13
386.856	1.18
387.222	1.14
387.588	1.19
387.954	1.2
388.32	1.19
388.686	1.16
389.052	1.14
389.418	1.19
389.784	1.18
390.15	1.21
390.515	1.04
390.881	1.22
391.247	1.21
391.613	1.15
391.978	1.17
392.344	1.19
392.709	1.15
393.075	1.18
393.44	1.17
393.806	1.22
394.171	1.12
394.536	1.13
394.902	1.12
395.267	1.12
395.632	1.08
395.997	1.11
396.362	1.13
396.727	1.21
397.092	1.13
397.457	1.15
397.822	1.12
398.187	1.11
398.552	1.13
398.917	1.13
399.282	1.07
399.646	1.11
400.011	1.19
400.376	1.05
400.74	1.08
401.105	1.05
401.47	1.08
401.834	1.08
402.199	1.07
402.563	1.05
402.927	0.96
403.292	1.05
403.656	1.03
404.02	1.06
404.384	1.05
404.749	1.01
405.113	1.04
405.477	0.99
405.841	0.97
406.205	0.96
406.569	0.97
406.933	0.95
407.296	0.95
407.66	1
408.024	0.91
408.388	0.96
408.752	0.94
409.115	0.98
409.479	0.93
409.842	0.88
410.206	0.89
410.569	0.94
410.933	0.93
411.296	0.86
411.66	0.9
412.023	0.85
412.386	0.85
412.749	0.87
413.113	0.88
413.476	0.85
413.839	0.83
414.202	0.87
414.565	0.78
414.928	0.87
415.291	0.82
415.654	0.81
416.017	0.84
416.38	0.79
416.742	0.8
417.105	0.79
417.468	0.78
417.83	0.85
418.193	0.84
418.556	0.8
418.918	0.81
419.281	0.79
419.643	0.82
420.005	0.79
420.368	0.78
420.73	0.79
421.092	0.8
421.455	0.78
421.817	0.76
422.179	0.76
422.541	0.79
422.903	0.76
423.265	0.8
423.627	0.74
423.989	0.77
424.351	0.77
424.713	0.74
425.075	0.73
425.436	0.74
425.798	0.74
426.16	0.76
426.521	0.75
426.883	0.76
427.245	0.76
427.606	0.71
427.967	0.75
428.329	0.72
428.69	0.75
429.052	0.76
429.413	0.75
429.774	0.72
430.135	0.71
430.497	0.72
430.858	0.71
431.219	0.7
431.58	0.72
431.941	0.72
432.302	0.69
432.663	0.71
433.024	0.72
433.384	0.72
433.745	0.7
434.106	0.7
434.467	0.7
434.827	0.67
435.188	0.71
435.548	0.73
435.909	0.68
436.269	0.68
436.63	0.66
436.99	0.67
437.351	0.67
437.711	0.67
438.071	0.67
438.431	0.66
438.792	0.66
439.152	0.66
439.512	0.65
439.872	0.67
440.232	0.66
440.592	0.63
440.952	0.65
441.312	0.63
441.671	0.63
442.031	0.63
442.391	0.6
442.751	0.63
443.11	0.61
443.47	0.63
443.83	0.6
444.189	0.61
444.549	0.61
444.908	0.61
445.267	0.59
445.627	0.59
445.986	0.59
446.345	0.59
446.705	0.58
447.064	0.59
447.423	0.58
447.782	0.58
448.141	0.58
448.5	0.55
448.859	0.59
449.218	0.56
449.577	0.57
449.936	0.56
450.295	0.56
450.653	0.56
451.012	0.54
451.371	0.55
451.729	0.55
452.088	0.54
452.447	0.54
452.805	0.54
453.163	0.55
453.522	0.54
453.88	0.52
454.239	0.51
454.597	0.51
454.955	0.49
455.313	0.51
455.671	0.51
456.029	0.49
456.388	0.49
456.746	0.5
457.104	0.49
457.461	0.47
457.819	0.48
458.177	0.46
458.535	0.46
458.893	0.46
459.25	0.46
459.608	0.45
459.966	0.44
460.323	0.44
460.681	0.43
461.038	0.43
461.396	0.43
461.753	0.42
462.111	0.42
462.468	0.41
462.825	0.4
463.182	0.39
463.54	0.41
463.897	0.41
464.254	0.4
464.611	0.39
464.968	0.39
465.325	0.39
465.682	0.38
466.039	0.38
466.395	0.37
466.752	0.38
467.109	0.37
467.466	0.37
467.822	0.37
468.179	0.35
468.535	0.35
468.892	0.35
469.248	0.35
469.605	0.33
469.961	0.33
470.318	0.34
470.674	0.33
471.03	0.33
471.386	0.33
471.743	0.32
472.099	0.31
472.455	0.32
472.811	0.31
473.167	0.31
473.523	0.3
473.879	0.3
474.235	0.29
474.59	0.29
474.946	0.28
475.302	0.29
475.657	0.28
476.013	0.28
476.369	0.28
476.724	0.28
477.08	0.28
477.435	0.27
477.791	0.27
478.146	0.27
478.501	0.26
478.857	0.26
479.212	0.25
479.567	0.25
479.922	0.24
480.277	0.25
480.632	0.24
480.987	0.23
481.342	0.23
481.697	0.22
482.052	0.22
482.407	0.23
482.762	0.22
483.116	0.22
483.471	0.21
483.826	0.2
484.18	0.21
484.535	0.2
484.89	0.2
485.244	0.2
485.598	0.2
485.953	0.2
486.307	0.19
486.661	0.2
487.016	0.19
487.37	0.2
487.724	0.19
488.078	0.19
488.432	0.18
488.786	0.19
489.14	0.19
489.494	0.18
489.848	0.18
490.202	0.17
490.556	0.17
490.91	0.18
491.263	0.18
491.617	0.17
491.971	0.17
492.324	0.17
492.678	0.17
493.031	0.17
493.385	0.16
493.738	0.17
494.091	0.17
494.445	0.17
494.798	0.16
495.151	0.16
495.504	0.16
495.857	0.16
496.21	0.17
496.564	0.16
496.916	0.16
497.269	0.15
497.622	0.16
497.975	0.15
498.328	0.16
498.681	0.15
499.033	0.15
499.386	0.15
499.739	0.15
500.091	0.14
500.444	0.14
500.796	0.14
501.149	0.14
501.501	0.15
501.854	0.14
502.206	0.14
502.558	0.14
502.91	0.14
503.263	0.14
503.615	0.14
503.967	0.14
504.319	0.14
504.671	0.14
505.023	0.13
505.375	0.14
505.726	0.14
506.078	0.13
506.43	0.13
506.782	0.13
507.133	0.14
507.485	0.14
507.837	0.15
508.188	0.14
508.54	0.14
508.891	0.15
509.243	0.13
509.594	0.14
509.945	0.14
510.296	0.13
510.648	0.14
510.999	0.13
511.35	0.13
511.701	0.14
512.052	0.14
512.403	0.14
512.754	0.13
513.105	0.14
513.456	0.13
513.807	0.13
514.157	0.14
514.508	0.13
514.859	0.13
515.209	0.13
515.56	0.14
515.91	0.14
516.261	0.14
516.611	0.13
516.962	0.13
517.312	0.13
517.662	0.13
518.013	0.14
518.363	0.14
518.713	0.14
519.063	0.14
519.413	0.14
519.763	0.14
520.113	0.13
520.463	0.14
520.813	0.14
521.163	0.15
521.512	0.13
521.862	0.14
522.212	0.14
522.562	0.13
522.911	0.14
523.261	0.13
523.61	0.13
523.96	0.14
524.309	0.14
524.658	0.14
525.008	0.14
525.357	0.14
525.706	0.14
526.056	0.14
526.405	0.13
526.754	0.13
527.103	0.13
527.452	0.14
527.801	0.14
528.15	0.14
528.499	0.14
528.847	0.14
529.196	0.14
529.545	0.15
529.893	0.15
530.242	0.15
530.591	0.15
530.939	0.16
531.288	0.14
531.636	0.15
531.985	0.15
532.333	0.14
532.681	0.14
533.029	0.15
533.378	0.14
533.726	0.15
534.074	0.16
534.422	0.14
534.77	0.15
535.118	0.15
535.466	0.14
535.814	0.14
536.162	0.15
536.509	0.15
536.857	0.14
537.205	0.15
537.552	0.15
537.9	0.15
538.248	0.14
538.595	0.15
538.943	0.14
539.29	0.15
539.637	0.14
539.985	0.15
540.332	0.14
540.679	0.15
541.026	0.15
541.373	0.15
541.721	0.14
542.068	0.15
542.415	0.15
542.762	0.14
543.108	0.14
543.455	0.14
543.802	0.14
544.149	0.15
544.496	0.15
544.842	0.15
545.189	0.14
545.535	0.14
545.882	0.14
546.228	0.14
546.575	0.14
546.921	0.14
547.267	0.14
547.614	0.14
547.96	0.14
548.306	0.13
548.652	0.13
548.998	0.14
549.344	0.14
549.69	0.14
550.036	0.14
550.382	0.14
550.728	0.14
551.074	0.15
551.42	0.15
551.765	0.15
552.111	0.16
552.457	0.16
552.802	0.14
553.148	0.15
553.493	0.14
553.839	0.14
554.184	0.15
554.529	0.14
554.875	0.14
555.22	0.15
555.565	0.15
555.91	0.15
556.255	0.15
556.6	0.14
556.945	0.14
557.29	0.15
557.635	0.15
557.98	0.16
558.325	0.15
558.67	0.15
559.014	0.15
559.359	0.15
559.704	0.15
560.048	0.14
560.393	0.15
560.737	0.13
561.082	0.15
561.426	0.14
561.77	0.14
562.115	0.14
562.459	0.14
562.803	0.15
563.147	0.15
563.491	0.15
563.835	0.15
564.179	0.15
564.523	0.15
564.867	0.14
565.211	0.14
565.555	0.15
565.899	0.15
566.242	0.15
566.586	0.15
566.93	0.15
567.273	0.15
567.617	0.15
567.96	0.15
568.304	0.14
568.647	0.15
568.99	0.16
569.334	0.15
569.677	0.15
570.02	0.15
570.363	0.16
570.706	0.15
571.049	0.15
571.392	0.16
571.735	0.14
572.078	0.15
572.421	0.16
572.764	0.15
573.106	0.15
573.449	0.15
573.792	0.16
574.134	0.15
574.477	0.15
574.819	0.15
575.162	0.15
575.504	0.15
575.847	0.15
576.189	0.14
576.531	0.14
576.873	0.14
577.215	0.14
577.558	0.15
577.9	0.14
578.242	0.14
578.584	0.15
578.926	0.15
579.267	0.14
579.609	0.15
579.951	0.15
580.293	0.15
580.634	0.15
580.976	0.15
581.318	0.15
581.659	0.14
582.001	0.15
582.342	0.15
582.683	0.15
583.025	0.14
583.366	0.15
583.707	0.15
584.049	0.15
584.39	0.14
584.731	0.15
585.072	0.15
585.413	0.15
585.754	0.15
586.095	0.15
586.435	0.15
586.776	0.15
587.117	0.15
587.458	0.14
587.798	0.15
588.139	0.15
588.48	0.14
588.82	0.14
589.161	0.14
589.501	0.15
589.841	0.14
590.182	0.14
590.522	0.14
590.862	0.14
591.202	0.15
591.542	0.14
591.882	0.14
592.222	0.14
592.562	0.14
592.902	0.14
593.242	0.14
593.582	0.14
593.922	0.15
594.261	0.14
594.601	0.14
594.941	0.14
595.28	0.15
595.62	0.14
595.959	0.14
596.299	0.14
596.638	0.14
596.977	0.14
597.317	0.15
597.656	0.14
597.995	0.15
598.334	0.15
598.673	0.15
599.012	0.15
599.351	0.15
599.69	0.15
600.029	0.16
600.368	0.15
600.707	0.15
601.046	0.16
601.384	0.16
601.723	0.15
602.061	0.14
602.4	0.15
602.738	0.15
603.077	0.16
603.415	0.14
603.754	0.15
604.092	0.15
604.43	0.14
604.768	0.15
605.107	0.15
605.445	0.14
605.783	0.14
606.121	0.15
606.459	0.15
606.796	0.14
607.134	0.14
607.472	0.14
607.81	0.15
608.148	0.13
608.485	0.14
608.823	0.15
609.16	0.14
609.498	0.14
609.835	0.14
610.173	0.14
610.51	0.15
610.847	0.15
611.185	0.15
611.522	0.15
611.859	0.14
612.196	0.15
612.533	0.15
612.87	0.15
613.207	0.15
613.544	0.15
613.881	0.16
614.217	0.15
614.554	0.15
614.891	0.15
615.228	0.15
615.564	0.15
615.901	0.15
616.237	0.16
616.574	0.15
616.91	0.15
617.246	0.15
617.583	0.15
617.919	0.15
618.255	0.17
618.591	0.16
618.927	0.16
619.263	0.16
619.599	0.15
619.935	0.15
620.271	0.16
620.607	0.16
620.943	0.15
621.279	0.15
621.614	0.15
621.95	0.16
622.286	0.15
622.621	0.15
622.957	0.15
623.292	0.15
623.627	0.14
623.963	0.15
624.298	0.14
624.633	0.14
624.968	0.14
625.304	0.14
625.639	0.14
625.974	0.14
626.309	0.13
626.644	0.14
626.979	0.15
627.313	0.14
627.648	0.15
627.983	0.14
628.318	0.14
628.652	0.14
628.987	0.14
629.321	0.15
629.656	0.14
629.99	0.13
630.325	0.14
630.659	0.14
630.993	0.14
631.327	0.13
631.662	0.12
631.996	0.13
632.33	0.13
632.664	0.13
632.998	0.13
633.332	0.13
633.666	0.13
633.999	0.13
634.333	0.12
634.667	0.12
635.001	0.12
635.334	0.12
635.668	0.12
636.001	0.12
636.335	0.12
636.668	0.13
637.001	0.12
637.335	0.13
637.668	0.12
638.001	0.12
638.334	0.12
638.668	0.12
639.001	0.12
639.334	0.12
639.667	0.13
639.999	0.12
640.332	0.12
640.665	0.12
640.998	0.13
641.331	0.13
641.663	0.12
641.996	0.13
642.328	0.13
642.661	0.13
642.993	0.13
643.326	0.13
643.658	0.12
643.99	0.12
644.323	0.12
644.655	0.13
644.987	0.13
645.319	0.13
645.651	0.14
645.983	0.13
646.315	0.13
646.647	0.13
646.979	0.14
647.31	0.14
647.642	0.13
647.974	0.13
648.305	0.14
648.637	0.13
648.968	0.13
649.3	0.14
649.631	0.14
649.963	0.13
650.294	0.13
650.625	0.12
650.957	0.13
651.288	0.13
651.619	0.13
651.95	0.13
652.281	0.13
652.612	0.13
652.943	0.13
653.274	0.14
653.604	0.13
653.935	0.13
654.266	0.13
654.596	0.13
654.927	0.13
655.258	0.13
655.588	0.13
655.918	0.13
656.249	0.11
656.579	0.12
656.909	0.12
657.24	0.12
657.57	0.13
657.9	0.13
658.23	0.12
658.56	0.13
658.89	0.12
659.22	0.12
659.55	0.12
659.88	0.11
660.209	0.12
660.539	0.13
660.869	0.12
661.198	0.13
661.528	0.12
661.857	0.13
662.187	0.12
662.516	0.12
662.846	0.12
663.175	0.12
663.504	0.13
663.833	0.12
664.163	0.12
664.492	0.12
664.821	0.12
665.15	0.12
665.479	0.12
665.807	0.12
666.136	0.12
666.465	0.12
666.794	0.12
667.122	0.12
667.451	0.12
667.78	0.13
668.108	0.13
668.437	0.12
668.765	0.12
669.093	0.13
669.422	0.12
669.75	0.12
670.078	0.13
670.406	0.13
670.734	0.13
671.062	0.13
671.39	0.13
671.718	0.13
672.046	0.12
672.374	0.12
672.702	0.12
673.029	0.12
673.357	0.12
673.685	0.13
674.012	0.12
674.34	0.12
674.667	0.12
674.995	0.12
675.322	0.12
675.649	0.11
675.977	0.12
676.304	0.12
676.631	0.12
676.958	0.12
677.285	0.11
677.612	0.11
677.939	0.12
678.266	0.12
678.593	0.12
678.92	0.12
679.246	0.11
679.573	0.11
679.9	0.11
680.226	0.12
680.553	0.11
680.879	0.11
681.206	0.12
681.532	0.11
681.858	0.12
682.184	0.12
682.511	0.12
682.837	0.12
683.163	0.12
683.489	0.12
683.815	0.11
684.141	0.12
684.467	0.12
684.793	0.11
685.118	0.11
685.444	0.11
685.77	0.11
686.095	0.12
686.421	0.11
686.746	0.12
687.072	0.11
687.397	0.11
687.723	0.12
688.048	0.11
688.373	0.11
688.698	0.11
689.023	0.1
689.349	0.11
689.674	0.11
689.999	0.1
690.323	0.1
690.648	0.1
690.973	0.1
691.298	0.1
691.623	0.1
691.947	0.1
692.272	0.09
692.596	0.1
692.921	0.1
693.245	0.1
693.57	0.11
693.894	0.1
694.218	0.11
694.543	0.11
694.867	0.1
695.191	0.1
695.515	0.11
695.839	0.1
696.163	0.1
696.487	0.1
696.811	0.1
697.135	0.11
697.458	0.11
697.782	0.1
698.106	0.1
698.429	0.11
698.753	0.1
699.076	0.1
699.4	0.1
699.723	0.1
700.046	0.1
700.37	0.11
700.693	0.11
701.016	0.1
701.339	0.1
701.662	0.11
701.985	0.11
702.308	0.09
702.631	0.1
702.954	0.11
703.277	0.1
703.599	0.1
703.922	0.09
704.245	0.09
704.567	0.08
704.89	0.09
705.212	0.09
705.535	0.08
705.857	0.09
706.179	0.08
706.502	0.08
706.824	0.08
707.146	0.08
707.468	0.09
707.79	0.09
708.112	0.09
708.434	0.1
708.756	0.09
709.078	0.08
709.399	0.09
709.721	0.09
710.043	0.09
710.364	0.09
710.686	0.09
711.007	0.1
711.329	0.1
711.65	0.1
711.972	0.09
712.293	0.1
712.614	0.1
712.935	0.1
713.256	0.1
713.577	0.1
713.898	0.1
714.219	0.1
714.54	0.1
714.861	0.09
715.182	0.1
715.503	0.1
715.823	0.1
716.144	0.1
716.464	0.09
716.785	0.09
717.105	0.09
717.426	0.09
717.746	0.09
718.066	0.09
718.387	0.09
718.707	0.08
719.027	0.09
719.347	0.09
719.667	0.09
719.987	0.08
720.307	0.08
720.627	0.08
720.947	0.08
721.266	0.08
721.586	0.07
721.906	0.08
722.225	0.07
722.545	0.08
722.864	0.08
723.184	0.08
723.503	0.08
723.823	0.09
724.142	0.08
724.461	0.08
724.78	0.08
725.099	0.08
725.418	0.08
725.737	0.08
726.056	0.08
726.375	0.09
726.694	0.08
727.013	0.08
727.331	0.07
727.65	0.08
727.969	0.09
728.287	0.08
728.606	0.08
728.924	0.07
729.242	0.08
729.561	0.07
729.879	0.08
730.197	0.08
730.515	0.08
730.834	0.07
731.152	0.08
731.47	0.08
731.788	0.08
732.105	0.07
732.423	0.08
732.741	0.07
733.059	0.08
733.376	0.08
733.694	0.08
734.012	0.08
734.329	0.09
734.647	0.08
734.964	0.08
735.281	0.09
735.599	0.09
735.916	0.09
736.233	0.09
736.55	0.08
736.867	0.09
737.184	0.09
737.501	0.08
737.818	0.09
738.135	0.09
738.452	0.08
738.768	0.09
739.085	0.09
739.402	0.07
739.718	0.09
740.035	0.08
740.351	0.09
740.668	0.09
740.984	0.08
741.3	0.08
741.617	0.08
741.933	0.08
742.249	0.08
742.565	0.08
742.881	0.08
743.197	0.08
743.513	0.07
743.829	0.08
744.144	0.07
744.46	0.07
744.776	0.07
745.091	0.07
745.407	0.08
745.722	0.07
746.038	0.07
746.353	0.07
746.669	0.08
746.984	0.07
747.299	0.08
747.614	0.07
747.93	0.08
748.245	0.07
748.56	0.07
748.875	0.06
749.189	0.06
749.504	0.07
749.819	0.07
750.134	0.06
750.448	0.07
750.763	0.06
751.078	0.07
751.392	0.06
751.707	0.07
752.021	0.08
752.335	0.07
752.65	0.08
752.964	0.07
753.278	0.07
753.592	0.08
753.906	0.06
754.22	0.07
754.534	0.07
754.848	0.06
755.162	0.07
755.476	0.06
755.789	0.07
756.103	0.07
756.417	0.07
756.73	0.07
757.044	0.07
757.357	0.07
757.671	0.07
757.984	0.06
758.297	0.07
758.61	0.07
758.924	0.07
759.237	0.06
759.55	0.06
759.863	0.07
760.176	0.06
760.488	0.06
760.801	0.06
761.114	0.07
761.427	0.06
761.739	0.06
762.052	0.06
762.365	0.06
762.677	0.06
762.99	0.06
763.302	0.06
763.614	0.06
763.926	0.07
764.239	0.06
764.551	0.07
764.863	0.07
765.175	0.07
765.487	0.07
765.799	0.06
766.111	0.06
766.423	0.06
766.734	0.06
767.046	0.06
767.358	0.07
767.669	0.07
767.981	0.06
768.292	0.06
768.604	0.06
768.915	0.06
769.226	0.06
769.537	0.05
769.849	0.06
770.16	0.05
770.471	0.05
770.782	0.05
771.093	0.05
771.404	0.05
771.715	0.05
772.025	0.05
772.336	0.05
772.647	0.04
772.957	0.05
773.268	0.06
773.578	0.05
773.889	0.06
774.199	0.06
774.51	0.05
774.82	0.05
775.13	0.07
775.44	0.06
775.75	0.07
776.06	0.06
776.37	0.06
776.68	0.06
776.99	0.06
777.3	0.07
777.61	0.07
777.92	0.07
778.229	0.06
778.539	0.07
778.848	0.07
779.158	0.07
779.467	0.07
779.777	0.07
780.086	0.07
780.395	0.05
780.704	0.06
781.013	0.06
781.323	0.06
781.632	0.06
781.941	0.06
782.249	0.06
782.558	0.06
782.867	0.06
783.176	0.06
783.485	0.06
783.793	0.06
784.102	0.06
784.41	0.06
784.719	0.06
785.027	0.06
785.335	0.05
785.644	0.06
785.952	0.06
786.26	0.07
786.568	0.05
786.876	0.06
787.184	0.06
787.492	0.06
787.8	0.06
788.108	0.06
788.416	0.05
788.723	0.06
789.031	0.06
789.338	0.06
789.646	0.06
789.953	0.07
790.261	0.06
790.568	0.07
790.876	0.06
791.183	0.06
791.49	0.06
791.797	0.06
792.104	0.05
792.411	0.07
792.718	0.06
793.025	0.06
793.332	0.06
793.639	0.07
793.945	0.07
794.252	0.07
794.559	0.07
794.865	0.06
795.172	0.06
795.478	0.06
795.784	0.06
796.091	0.06
796.397	0.06
796.703	0.06
797.009	0.07
797.315	0.06
797.622	0.07
797.927	0.06
798.233	0.06
798.539	0.07
798.845	0.07
799.151	0.07
799.456	0.07
799.762	0.06
800.068	0.07
800.373	0.07
800.679	0.06
800.984	0.06
801.289	0.06
801.595	0.06
801.9	0.06
802.205	0.06
802.51	0.06
802.815	0.06
803.12	0.06
803.425	0.07
803.73	0.06
804.035	0.06
804.339	0.05
804.644	0.06
804.949	0.07
805.253	0.06
805.558	0.06
805.862	0.06
806.167	0.06
806.471	0.06
806.775	0.06
807.08	0.05
807.384	0.06
807.688	0.06
807.992	0.06
808.296	0.06
808.6	0.06
808.904	0.07
809.207	0.07
809.511	0.07
809.815	0.07
810.119	0.06
810.422	0.07
810.726	0.08
811.029	0.08
811.332	0.06
811.636	0.07
811.939	0.06
812.242	0.06
812.546	0.07
812.849	0.06
813.152	0.07
813.455	0.07
813.758	0.07
814.06	0.06
814.363	0.06
814.666	0.06
814.969	0.06
815.271	0.07
815.574	0.06
815.877	0.06
816.179	0.06
816.481	0.05
816.784	0.06
817.086	0.05
817.388	0.05
817.69	0.05
817.993	0.05
818.295	0.05
818.597	0.04
818.899	0.04
819.2	0.04
819.502	0.04
819.804	0.05
820.106	0.04
820.407	0.04
820.709	0.05
821.01	0.05
821.312	0.05
821.613	0.04
821.915	0.04
822.216	0.05
822.517	0.04
822.818	0.05
823.119	0.04
823.42	0.04
823.721	0.03
824.022	0.04
824.323	0.04
824.624	0.05
824.925	0.05
825.226	0.05
825.526	0.05
825.827	0.05
826.127	0.05
826.428	0.05
826.728	0.04
827.028	0.04
827.329	0.04
827.629	0.04
827.929	0.04
828.229	0.04
828.529	0.04
828.829	0.03
829.129	0.04
829.429	0.04
829.729	0.04
830.029	0.03
830.328	0.04
830.628	0.03
830.927	0.02
831.227	0.03
831.526	0.03
831.826	0.03
832.125	0.03
832.424	0.02
832.724	0.04
833.023	0.04
833.322	0.03
833.621	0.03
833.92	0.01
834.219	0.03
834.518	0.03
834.816	0.03
835.115	0.03
835.414	0.02
835.712	0.02
836.011	0.01
836.309	0.02
836.608	0.01
836.906	0.01
837.205	0.01
837.503	0.01
837.801	0
838.099	0.01
838.397	-0.01
838.695	-0
838.993	-0
839.291	-0
839.589	-0
839.887	-0.01
840.184	-0.01
840.482	-0.01
840.78	-0.01
841.077	-0.02
841.375	-0.01
841.672	-0.01
841.969	-0.01
842.267	-0.01
842.564	-0.01
842.861	-0
843.158	-0.01
843.455	-0.03
843.752	-0.01
844.049	-0.01
844.346	-0.01
844.643	-0.02
844.94	-0.02
845.236	-0.01
845.533	-0.01
845.83	-0.02
846.126	-0.03
846.423	-0.02
846.719	-0.03
847.015	-0.02
847.312	-0.03
847.608	-0.03
847.904	-0.04
848.2	-0.04
848.496	-0.03
848.792	-0.03
849.088	-0.03
849.384	-0.04
849.68	-0.04
849.975	-0.04
850.271	-0.05
850.567	-0.05
850.862	-0.05
851.158	-0.06
851.453	-0.05
851.748	-0.06
852.044	-0.05
852.339	-0.06
852.634	-0.07
852.929	-0.06
853.224	-0.07
853.519	-0.07
853.814	-0.06
854.109	-0.07
854.404	-0.06
854.699	-0.07
854.994	-0.06
855.288	-0.06
855.583	-0.06
855.877	-0.07
856.172	-0.06
856.466	-0.07
856.76	-0.06
857.055	-0.06
857.349	-0.07
857.643	-0.07
857.937	-0.09
858.231	-0.07
858.525	-0.08
858.819	-0.08
859.113	-0.1
859.407	-0.09
859.701	-0.09
859.994	-0.09
860.288	-0.09
860.581	-0.1
860.875	-0.1
861.168	-0.1
861.462	-0.1
861.755	-0.09
862.048	-0.1
862.341	-0.1
862.634	-0.11
862.928	-0.1
863.221	-0.1
863.513	-0.11
863.806	-0.11
864.099	-0.11
864.392	-0.11
864.685	-0.11
864.977	-0.11
865.27	-0.11
865.562	-0.12
865.855	-0.11
866.147	-0.12
866.44	-0.1
866.732	-0.12
867.024	-0.12
867.316	-0.12
867.608	-0.12
867.9	-0.12
868.192	-0.12
868.484	-0.13
868.776	-0.12
869.068	-0.13
869.359	-0.12
869.651	-0.14
869.943	-0.14
870.234	-0.13
870.526	-0.14
870.817	-0.15
871.108	-0.13
871.4	-0.14
871.691	-0.15
871.982	-0.16
872.273	-0.16
872.564	-0.14
872.855	-0.15
873.146	-0.16
873.437	-0.15
873.728	-0.16
874.019	-0.15
874.309	-0.15
874.6	-0.15
874.89	-0.16
875.181	-0.16
875.471	-0.15
875.762	-0.15
876.052	-0.15
876.342	-0.14
876.632	-0.15
876.922	-0.16
877.213	-0.16
877.503	-0.18
877.792	-0.17
878.082	-0.17
878.372	-0.15
878.662	-0.18
878.952	-0.17
879.241	-0.16
879.531	-0.16
879.82	-0.16
880.11	-0.18
880.399	-0.16
880.688	-0.15
880.978	-0.15
881.267	-0.15
