Data from 12-12-AQDScycling_Absorbance__455__00455.txt Node

Date: Tue Dec 12 12:50:29 EST 2023
User: kyuminlee
Spectrometer: FLMS00943
Trigger mode: 0
Integration Time (sec): 1.000000E-1
Scans to average: 1
Electric dark correction enabled: true
Nonlinearity correction enabled: false
Boxcar width: 0
XAxis mode: Wavelengths
Number of Pixels in Spectrum: 2048
>>>>>Begin Spectral Data<<<<<
179.651	0.14
180.037	0.14
180.424	0.14
180.81	0.49
181.197	0.13
181.583	-0.61
181.97	-0.19
182.356	-0
182.743	-0
183.129	0.1
183.515	-0
183.901	-2.43
184.288	0.26
184.674	-0
185.06	-1.34
185.446	-0.42
185.832	-0
186.218	-0.23
186.604	-0
186.99	-0.01
187.376	-0
187.762	-0
188.148	0.35
188.534	-0.19
188.92	-0.01
189.305	-0.02
189.691	0.07
190.077	0.19
190.463	0.27
190.848	0.14
191.234	0.14
191.619	0.12
192.005	0.19
192.391	0.09
192.776	0.11
193.161	0.05
193.547	0.08
193.932	-0.02
194.318	0.09
194.703	0.15
195.088	0.03
195.473	0.06
195.859	0.09
196.244	0.14
196.629	0.12
197.014	0.01
197.399	0.13
197.784	0.15
198.169	0.16
198.554	0.09
198.939	0
199.324	0.08
199.709	0.08
200.094	0.08
200.478	0.02
200.863	0.1
201.248	0.1
201.633	0.03
202.017	-0.02
202.402	0.2
202.787	0.04
203.171	0.14
203.556	0.2
203.94	0.11
204.325	0.25
204.709	0.14
205.093	0.06
205.478	0.07
205.862	0.1
206.246	0.24
206.631	0.1
207.015	0.23
207.399	0.15
207.783	0.01
208.167	0.09
208.551	0.23
208.935	0.16
209.319	0.13
209.703	0.11
210.087	0.21
210.471	0.05
210.855	0.16
211.239	0.12
211.623	0.29
212.007	0.11
212.39	0.25
212.774	0.1
213.158	0.11
213.541	0.25
213.925	0.17
214.309	0.25
214.692	0.3
215.076	0.23
215.459	0.22
215.842	0.11
216.226	0.25
216.609	0.35
216.993	0.17
217.376	0.34
217.759	0.2
218.142	0.26
218.525	0.46
218.909	0.28
219.292	0.43
219.675	0.44
220.058	0.36
220.441	0.47
220.824	0.4
221.207	0.46
221.59	0.44
221.973	0.46
222.355	0.54
222.738	0.66
223.121	0.65
223.504	0.59
223.886	0.52
224.269	0.71
224.652	0.61
225.034	0.83
225.417	0.65
225.799	0.78
226.182	1.04
226.564	0.73
226.947	0.7
227.329	0.8
227.711	0.96
228.094	0.94
228.476	0.74
228.858	0.8
229.24	0.77
229.623	0.81
230.005	0.81
230.387	0.84
230.769	0.78
231.151	0.98
231.533	0.92
231.915	0.96
232.297	1.04
232.679	0.95
233.061	0.88
233.442	1.03
233.824	1.07
234.206	1.11
234.588	1.08
234.969	1.02
235.351	0.99
235.733	1.17
236.114	1.2
236.496	0.9
236.877	1.09
237.259	1.03
237.64	1.02
238.022	1.01
238.403	0.94
238.784	1
239.165	0.98
239.547	1.08
239.928	1.01
240.309	1
240.69	1.1
241.071	1.09
241.452	1.09
241.834	1.01
242.215	1.09
242.595	0.99
242.976	1.04
243.357	1.16
243.738	1
244.119	1.12
244.5	1.01
244.881	1.34
245.261	1.17
245.642	1.08
246.023	1.13
246.403	1.29
246.784	1.24
247.164	1.25
247.545	1.25
247.925	1.38
248.306	1.16
248.686	1.34
249.067	1.17
249.447	1.38
249.827	1.48
250.207	1.4
250.588	1.33
250.968	1.3
251.348	1.27
251.728	1.3
252.108	1.28
252.488	1.33
252.868	1.39
253.248	1.38
253.628	1.46
254.008	1.45
254.388	1.22
254.768	1.29
255.147	1.44
255.527	1.49
255.907	1.45
256.287	1.37
256.666	1.25
257.046	1.39
257.425	1.47
257.805	1.32
258.184	1.26
258.564	1.4
258.943	1.31
259.323	1.31
259.702	1.41
260.081	1.46
260.461	1.49
260.84	1.47
261.219	1.61
261.598	1.39
261.977	1.4
262.356	1.57
262.736	1.48
263.115	1.46
263.494	1.35
263.873	1.53
264.251	1.47
264.63	1.58
265.009	1.31
265.388	1.53
265.767	1.43
266.145	1.41
266.524	1.4
266.903	1.43
267.281	1.29
267.66	1.45
268.039	1.41
268.417	1.35
268.796	1.35
269.174	1.32
269.552	1.48
269.931	1.36
270.309	1.5
270.687	1.52
271.066	1.57
271.444	1.27
271.822	1.35
272.2	1.47
272.578	1.37
272.956	1.31
273.334	1.42
273.712	1.47
274.09	1.37
274.468	1.38
274.846	1.31
275.224	1.21
275.602	1.39
275.98	1.61
276.357	1.58
276.735	1.42
277.113	1.39
277.49	1.22
277.868	1.29
278.246	1.4
278.623	1.27
279.001	1.29
279.378	1.41
279.756	1.41
280.133	1.61
280.51	1.34
280.888	1.48
281.265	1.25
281.642	1.65
282.019	1.53
282.396	1.59
282.773	1.42
283.151	1.57
283.528	1.58
283.905	1.35
284.282	1.45
284.659	1.64
285.035	1.32
285.412	1.28
285.789	1.45
286.166	1.42
286.543	1.51
286.919	1.37
287.296	1.29
287.673	1.6
288.049	1.43
288.426	1.53
288.802	1.54
289.179	1.47
289.555	1.62
289.932	1.47
290.308	1.29
290.684	1.29
291.061	1.38
291.437	1.8
291.813	1.37
292.189	1.2
292.565	1.26
292.942	1.36
293.318	1.35
293.694	1.49
294.07	1.31
294.446	1.38
294.822	1.47
295.197	1.32
295.573	1.55
295.949	1.44
296.325	1.6
296.701	1.51
297.076	1.5
297.452	1.41
297.828	1.42
298.203	1.47
298.579	1.34
298.954	1.47
299.33	1.4
299.705	1.45
300.081	1.46
300.456	1.59
300.831	1.42
301.206	1.44
301.582	1.78
301.957	1.54
302.332	1.55
302.707	1.45
303.082	1.46
303.457	1.5
303.832	1.55
304.207	1.43
304.582	1.56
304.957	1.48
305.332	1.55
305.707	1.57
306.082	1.51
306.456	1.63
306.831	1.43
307.206	1.37
307.58	1.41
307.955	1.47
308.33	1.46
308.704	1.47
309.079	1.42
309.453	1.78
309.828	1.5
310.202	1.46
310.576	1.52
310.951	1.5
311.325	1.43
311.699	1.58
312.073	1.4
312.447	1.48
312.821	1.45
313.196	1.54
313.57	1.47
313.944	1.51
314.317	1.38
314.691	1.55
315.065	1.48
315.439	1.52
315.813	1.47
316.187	1.48
316.56	1.64
316.934	1.53
317.308	1.64
317.681	1.55
318.055	1.36
318.428	1.41
318.802	1.46
319.175	1.46
319.549	1.45
319.922	1.45
320.295	1.5
320.669	1.6
321.042	1.41
321.415	1.64
321.788	1.48
322.162	1.42
322.535	1.57
322.908	1.53
323.281	1.43
323.654	1.63
324.027	1.37
324.4	1.53
324.773	1.46
325.145	1.58
325.518	1.46
325.891	1.46
326.264	1.73
326.636	1.41
327.009	1.43
327.382	1.25
327.754	1.47
328.127	1.47
328.499	1.49
328.872	1.54
329.244	1.41
329.616	1.42
329.989	1.43
330.361	1.57
330.733	1.38
331.106	1.39
331.478	1.64
331.85	1.43
332.222	1.42
332.594	1.39
332.966	1.43
333.338	1.74
333.71	1.66
334.082	1.64
334.454	1.52
334.826	1.41
335.197	1.49
335.569	1.41
335.941	1.41
336.312	1.5
336.684	1.39
337.056	1.43
337.427	1.53
337.799	1.52
338.17	1.59
338.542	1.4
338.913	1.43
339.284	1.56
339.656	1.53
340.027	1.54
340.398	1.52
340.769	1.51
341.141	1.7
341.512	1.62
341.883	1.52
342.254	1.58
342.625	1.6
342.996	1.43
343.367	1.42
343.738	1.5
344.108	1.58
344.479	1.61
344.85	1.4
345.221	1.51
345.591	1.39
345.962	1.53
346.333	1.54
346.703	1.3
347.074	1.32
347.444	1.3
347.815	1.32
348.185	1.4
348.556	1.38
348.926	1.4
349.296	1.39
349.666	1.24
350.037	1.25
350.407	1.34
350.777	1.37
351.147	1.3
351.517	1.37
351.887	1.28
352.257	1.49
352.627	1.32
352.997	1.26
353.367	1.35
353.737	1.39
354.106	1.35
354.476	1.34
354.846	1.39
355.216	1.35
355.585	1.33
355.955	1.4
356.324	1.32
356.694	1.27
357.063	1.24
357.433	1.19
357.802	1.29
358.171	1.29
358.541	1.18
358.91	1.16
359.279	1.15
359.648	1.14
360.017	1.15
360.387	1.1
360.756	1.08
361.125	1.09
361.494	1.09
361.863	1.01
362.231	1.01
362.6	1.01
362.969	1.03
363.338	0.97
363.707	0.97
364.075	0.96
364.444	0.88
364.813	0.91
365.181	0.89
365.55	0.89
365.918	0.94
366.287	0.86
366.655	0.88
367.024	0.85
367.392	0.83
367.76	0.81
368.128	0.83
368.497	0.79
368.865	0.8
369.233	0.78
369.601	0.76
369.969	0.76
370.337	0.74
370.705	0.74
371.073	0.75
371.441	0.71
371.809	0.69
372.177	0.72
372.544	0.69
372.912	0.68
373.28	0.7
373.647	0.68
374.015	0.71
374.383	0.7
374.75	0.69
375.118	0.64
375.485	0.66
375.853	0.66
376.22	0.65
376.587	0.65
376.955	0.62
377.322	0.61
377.689	0.64
378.056	0.59
378.423	0.62
378.79	0.62
379.157	0.63
379.524	0.61
379.891	0.61
380.258	0.62
380.625	0.58
380.992	0.61
381.359	0.61
381.726	0.61
382.092	0.61
382.459	0.58
382.826	0.6
383.192	0.6
383.559	0.61
383.925	0.61
384.292	0.6
384.658	0.61
385.025	0.58
385.391	0.61
385.757	0.61
386.123	0.61
386.49	0.62
386.856	0.62
387.222	0.61
387.588	0.6
387.954	0.62
388.32	0.62
388.686	0.59
389.052	0.6
389.418	0.61
389.784	0.6
390.15	0.6
390.515	0.6
390.881	0.6
391.247	0.6
391.613	0.6
391.978	0.6
392.344	0.6
392.709	0.63
393.075	0.6
393.44	0.6
393.806	0.62
394.171	0.59
394.536	0.59
394.902	0.58
395.267	0.59
395.632	0.57
395.997	0.6
396.362	0.59
396.727	0.59
397.092	0.59
397.457	0.58
397.822	0.6
398.187	0.55
398.552	0.56
398.917	0.56
399.282	0.56
399.646	0.55
400.011	0.57
400.376	0.54
400.74	0.55
401.105	0.54
401.47	0.55
401.834	0.53
402.199	0.52
402.563	0.5
402.927	0.51
403.292	0.52
403.656	0.51
404.02	0.53
404.384	0.53
404.749	0.52
405.113	0.5
405.477	0.5
405.841	0.47
406.205	0.49
406.569	0.48
406.933	0.48
407.296	0.49
407.66	0.48
408.024	0.48
408.388	0.48
408.752	0.47
409.115	0.46
409.479	0.46
409.842	0.46
410.206	0.45
410.569	0.44
410.933	0.45
411.296	0.45
411.66	0.45
412.023	0.43
412.386	0.43
412.749	0.43
413.113	0.43
413.476	0.4
413.839	0.42
414.202	0.41
414.565	0.41
414.928	0.42
415.291	0.4
415.654	0.41
416.017	0.43
416.38	0.39
416.742	0.39
417.105	0.37
417.468	0.39
417.83	0.39
418.193	0.41
418.556	0.41
418.918	0.39
419.281	0.39
419.643	0.4
420.005	0.39
420.368	0.38
420.73	0.38
421.092	0.4
421.455	0.38
421.817	0.35
422.179	0.36
422.541	0.38
422.903	0.37
423.265	0.36
423.627	0.37
423.989	0.37
424.351	0.35
424.713	0.35
425.075	0.35
425.436	0.35
425.798	0.35
426.16	0.35
426.521	0.37
426.883	0.37
427.245	0.36
427.606	0.34
427.967	0.35
428.329	0.35
428.69	0.36
429.052	0.36
429.413	0.35
429.774	0.34
430.135	0.34
430.497	0.33
430.858	0.33
431.219	0.33
431.58	0.34
431.941	0.34
432.302	0.34
432.663	0.34
433.024	0.34
433.384	0.34
433.745	0.32
434.106	0.33
434.467	0.33
434.827	0.33
435.188	0.35
435.548	0.34
435.909	0.32
436.269	0.34
436.63	0.31
436.99	0.32
437.351	0.32
437.711	0.33
438.071	0.32
438.431	0.31
438.792	0.3
439.152	0.31
439.512	0.32
439.872	0.31
440.232	0.31
440.592	0.32
440.952	0.31
441.312	0.3
441.671	0.29
442.031	0.31
442.391	0.3
442.751	0.31
443.11	0.29
443.47	0.29
443.83	0.29
444.189	0.29
444.549	0.29
444.908	0.29
445.267	0.29
445.627	0.28
445.986	0.28
446.345	0.27
446.705	0.28
447.064	0.28
447.423	0.28
447.782	0.27
448.141	0.28
448.5	0.26
448.859	0.28
449.218	0.27
449.577	0.28
449.936	0.28
450.295	0.26
450.653	0.26
451.012	0.27
451.371	0.27
451.729	0.27
452.088	0.27
452.447	0.27
452.805	0.27
453.163	0.27
453.522	0.27
453.88	0.25
454.239	0.25
454.597	0.25
454.955	0.26
455.313	0.25
455.671	0.25
456.029	0.25
456.388	0.24
456.746	0.24
457.104	0.24
457.461	0.23
457.819	0.24
458.177	0.22
458.535	0.22
458.893	0.22
459.25	0.23
459.608	0.22
459.966	0.22
460.323	0.22
460.681	0.21
461.038	0.22
461.396	0.2
461.753	0.21
462.111	0.21
462.468	0.21
462.825	0.2
463.182	0.2
463.54	0.19
463.897	0.2
464.254	0.2
464.611	0.2
464.968	0.19
465.325	0.2
465.682	0.19
466.039	0.2
466.395	0.19
466.752	0.18
467.109	0.18
467.466	0.19
467.822	0.19
468.179	0.18
468.535	0.18
468.892	0.17
469.248	0.17
469.605	0.17
469.961	0.17
470.318	0.18
470.674	0.17
471.03	0.16
471.386	0.17
471.743	0.17
472.099	0.16
472.455	0.17
472.811	0.16
473.167	0.16
473.523	0.16
473.879	0.15
474.235	0.15
474.59	0.15
474.946	0.15
475.302	0.15
475.657	0.14
476.013	0.14
476.369	0.13
476.724	0.15
477.08	0.14
477.435	0.14
477.791	0.14
478.146	0.14
478.501	0.14
478.857	0.14
479.212	0.13
479.567	0.14
479.922	0.13
480.277	0.13
480.632	0.13
480.987	0.12
481.342	0.12
481.697	0.11
482.052	0.12
482.407	0.12
482.762	0.12
483.116	0.12
483.471	0.11
483.826	0.11
484.18	0.11
484.535	0.11
484.89	0.11
485.244	0.11
485.598	0.11
485.953	0.11
486.307	0.11
486.661	0.11
487.016	0.11
487.37	0.11
487.724	0.11
488.078	0.1
488.432	0.11
488.786	0.1
489.14	0.1
489.494	0.1
489.848	0.09
490.202	0.1
490.556	0.1
490.91	0.1
491.263	0.1
491.617	0.1
491.971	0.1
492.324	0.1
492.678	0.1
493.031	0.1
493.385	0.1
493.738	0.1
494.091	0.1
494.445	0.09
494.798	0.1
495.151	0.09
495.504	0.09
495.857	0.09
496.21	0.09
496.564	0.09
496.916	0.09
497.269	0.08
497.622	0.09
497.975	0.09
498.328	0.09
498.681	0.09
499.033	0.09
499.386	0.09
499.739	0.08
500.091	0.08
500.444	0.08
500.796	0.08
501.149	0.08
501.501	0.09
501.854	0.08
502.206	0.09
502.558	0.08
502.91	0.09
503.263	0.08
503.615	0.08
503.967	0.08
504.319	0.08
504.671	0.08
505.023	0.08
505.375	0.08
505.726	0.08
506.078	0.08
506.43	0.07
506.782	0.08
507.133	0.08
507.485	0.08
507.837	0.08
508.188	0.07
508.54	0.08
508.891	0.09
509.243	0.07
509.594	0.08
509.945	0.08
510.296	0.07
510.648	0.08
510.999	0.07
511.35	0.07
511.701	0.07
512.052	0.08
512.403	0.08
512.754	0.07
513.105	0.07
513.456	0.07
513.807	0.07
514.157	0.08
514.508	0.08
514.859	0.07
515.209	0.07
515.56	0.08
515.91	0.07
516.261	0.08
516.611	0.07
516.962	0.08
517.312	0.08
517.662	0.07
518.013	0.07
518.363	0.08
518.713	0.08
519.063	0.08
519.413	0.08
519.763	0.07
520.113	0.08
520.463	0.08
520.813	0.08
521.163	0.08
521.512	0.08
521.862	0.07
522.212	0.08
522.562	0.08
522.911	0.08
523.261	0.07
523.61	0.07
523.96	0.08
524.309	0.08
524.658	0.08
525.008	0.07
525.357	0.08
525.706	0.09
526.056	0.08
526.405	0.08
526.754	0.07
527.103	0.07
527.452	0.07
527.801	0.08
528.15	0.08
528.499	0.08
528.847	0.08
529.196	0.08
529.545	0.08
529.893	0.08
530.242	0.08
530.591	0.08
530.939	0.08
531.288	0.08
531.636	0.08
531.985	0.07
532.333	0.08
532.681	0.08
533.029	0.08
533.378	0.09
533.726	0.08
534.074	0.08
534.422	0.08
534.77	0.09
535.118	0.08
535.466	0.08
535.814	0.08
536.162	0.08
536.509	0.09
536.857	0.08
537.205	0.08
537.552	0.08
537.9	0.08
538.248	0.08
538.595	0.08
538.943	0.08
539.29	0.08
539.637	0.08
539.985	0.08
540.332	0.08
540.679	0.08
541.026	0.07
541.373	0.08
541.721	0.07
542.068	0.08
542.415	0.08
542.762	0.07
543.108	0.07
543.455	0.07
543.802	0.06
544.149	0.07
544.496	0.07
544.842	0.06
545.189	0.06
545.535	0.07
545.882	0.06
546.228	0.07
546.575	0.07
546.921	0.06
547.267	0.06
547.614	0.07
547.96	0.07
548.306	0.07
548.652	0.07
548.998	0.08
549.344	0.07
549.69	0.08
550.036	0.07
550.382	0.07
550.728	0.07
551.074	0.07
551.42	0.07
551.765	0.07
552.111	0.07
552.457	0.08
552.802	0.07
553.148	0.07
553.493	0.07
553.839	0.08
554.184	0.08
554.529	0.07
554.875	0.07
555.22	0.08
555.565	0.07
555.91	0.08
556.255	0.08
556.6	0.08
556.945	0.07
557.29	0.07
557.635	0.08
557.98	0.07
558.325	0.08
558.67	0.07
559.014	0.08
559.359	0.07
559.704	0.07
560.048	0.07
560.393	0.07
560.737	0.07
561.082	0.08
561.426	0.07
561.77	0.08
562.115	0.07
562.459	0.08
562.803	0.07
563.147	0.07
563.491	0.07
563.835	0.08
564.179	0.07
564.523	0.07
564.867	0.07
565.211	0.07
565.555	0.07
565.899	0.08
566.242	0.07
566.586	0.07
566.93	0.07
567.273	0.08
567.617	0.08
567.96	0.08
568.304	0.08
568.647	0.08
568.99	0.09
569.334	0.08
569.677	0.08
570.02	0.08
570.363	0.07
570.706	0.08
571.049	0.07
571.392	0.08
571.735	0.07
572.078	0.08
572.421	0.08
572.764	0.08
573.106	0.07
573.449	0.07
573.792	0.07
574.134	0.07
574.477	0.08
574.819	0.07
575.162	0.07
575.504	0.07
575.847	0.07
576.189	0.07
576.531	0.07
576.873	0.07
577.215	0.07
577.558	0.08
577.9	0.07
578.242	0.07
578.584	0.07
578.926	0.08
579.267	0.07
579.609	0.08
579.951	0.08
580.293	0.07
580.634	0.08
580.976	0.08
581.318	0.07
581.659	0.07
582.001	0.07
582.342	0.07
582.683	0.08
583.025	0.07
583.366	0.07
583.707	0.07
584.049	0.07
584.39	0.07
584.731	0.06
585.072	0.07
585.413	0.08
585.754	0.07
586.095	0.07
586.435	0.08
586.776	0.07
587.117	0.07
587.458	0.07
587.798	0.07
588.139	0.08
588.48	0.07
588.82	0.07
589.161	0.06
589.501	0.08
589.841	0.07
590.182	0.07
590.522	0.07
590.862	0.07
591.202	0.07
591.542	0.07
591.882	0.07
592.222	0.07
592.562	0.07
592.902	0.07
593.242	0.07
593.582	0.08
593.922	0.07
594.261	0.07
594.601	0.07
594.941	0.07
595.28	0.07
595.62	0.07
595.959	0.06
596.299	0.07
596.638	0.07
596.977	0.07
597.317	0.08
597.656	0.08
597.995	0.08
598.334	0.08
598.673	0.07
599.012	0.07
599.351	0.08
599.69	0.07
600.029	0.08
600.368	0.08
600.707	0.08
601.046	0.08
601.384	0.08
601.723	0.08
602.061	0.07
602.4	0.08
602.738	0.08
603.077	0.07
603.415	0.07
603.754	0.08
604.092	0.07
604.43	0.07
604.768	0.07
605.107	0.08
605.445	0.06
605.783	0.07
606.121	0.07
606.459	0.07
606.796	0.08
607.134	0.07
607.472	0.07
607.81	0.07
608.148	0.07
608.485	0.07
608.823	0.07
609.16	0.07
609.498	0.07
609.835	0.07
610.173	0.07
610.51	0.08
610.847	0.08
611.185	0.07
611.522	0.08
611.859	0.07
612.196	0.08
612.533	0.08
612.87	0.08
613.207	0.08
613.544	0.08
613.881	0.09
614.217	0.09
614.554	0.08
614.891	0.08
615.228	0.08
615.564	0.08
615.901	0.08
616.237	0.08
616.574	0.08
616.91	0.08
617.246	0.08
617.583	0.08
617.919	0.09
618.255	0.09
618.591	0.08
618.927	0.09
619.263	0.09
619.599	0.09
619.935	0.09
620.271	0.09
620.607	0.09
620.943	0.08
621.279	0.08
621.614	0.08
621.95	0.09
622.286	0.08
622.621	0.08
622.957	0.08
623.292	0.08
623.627	0.08
623.963	0.08
624.298	0.08
624.633	0.07
624.968	0.08
625.304	0.07
625.639	0.07
625.974	0.07
626.309	0.07
626.644	0.07
626.979	0.08
627.313	0.08
627.648	0.08
627.983	0.07
628.318	0.07
628.652	0.06
628.987	0.07
629.321	0.08
629.656	0.06
629.99	0.06
630.325	0.07
630.659	0.07
630.993	0.06
631.327	0.07
631.662	0.06
631.996	0.06
632.33	0.07
632.664	0.07
632.998	0.07
633.332	0.07
633.666	0.07
633.999	0.07
634.333	0.07
634.667	0.07
635.001	0.07
635.334	0.07
635.668	0.07
636.001	0.06
636.335	0.07
636.668	0.07
637.001	0.06
637.335	0.07
637.668	0.06
638.001	0.06
638.334	0.07
638.668	0.06
639.001	0.06
639.334	0.06
639.667	0.06
639.999	0.06
640.332	0.07
640.665	0.06
640.998	0.07
641.331	0.06
641.663	0.06
641.996	0.06
642.328	0.07
642.661	0.06
642.993	0.07
643.326	0.07
643.658	0.06
643.99	0.06
644.323	0.06
644.655	0.06
644.987	0.06
645.319	0.06
645.651	0.07
645.983	0.06
646.315	0.06
646.647	0.06
646.979	0.08
647.31	0.07
647.642	0.06
647.974	0.06
648.305	0.07
648.637	0.06
648.968	0.07
649.3	0.07
649.631	0.07
649.963	0.07
650.294	0.07
650.625	0.07
650.957	0.07
651.288	0.07
651.619	0.07
651.95	0.07
652.281	0.07
652.612	0.07
652.943	0.07
653.274	0.08
653.604	0.06
653.935	0.07
654.266	0.07
654.596	0.06
654.927	0.06
655.258	0.07
655.588	0.07
655.918	0.07
656.249	0.05
656.579	0.06
656.909	0.07
657.24	0.07
657.57	0.07
657.9	0.07
658.23	0.07
658.56	0.07
658.89	0.08
659.22	0.07
659.55	0.07
659.88	0.07
660.209	0.07
660.539	0.08
660.869	0.08
661.198	0.08
661.528	0.07
661.857	0.07
662.187	0.07
662.516	0.07
662.846	0.07
663.175	0.07
663.504	0.07
663.833	0.07
664.163	0.07
664.492	0.07
664.821	0.07
665.15	0.07
665.479	0.07
665.807	0.07
666.136	0.07
666.465	0.07
666.794	0.07
667.122	0.07
667.451	0.07
667.78	0.07
668.108	0.07
668.437	0.06
668.765	0.07
669.093	0.08
669.422	0.07
669.75	0.06
670.078	0.07
670.406	0.07
670.734	0.07
671.062	0.07
671.39	0.06
671.718	0.07
672.046	0.07
672.374	0.06
672.702	0.07
673.029	0.07
673.357	0.07
673.685	0.08
674.012	0.07
674.34	0.07
674.667	0.08
674.995	0.07
675.322	0.07
675.649	0.06
675.977	0.07
676.304	0.07
676.631	0.07
676.958	0.07
677.285	0.06
677.612	0.06
677.939	0.07
678.266	0.07
678.593	0.07
678.92	0.07
679.246	0.07
679.573	0.07
679.9	0.07
680.226	0.06
680.553	0.07
680.879	0.06
681.206	0.07
681.532	0.06
681.858	0.07
682.184	0.06
682.511	0.06
682.837	0.07
683.163	0.07
683.489	0.06
683.815	0.05
684.141	0.06
684.467	0.06
684.793	0.06
685.118	0.07
685.444	0.06
685.77	0.06
686.095	0.06
686.421	0.06
686.746	0.06
687.072	0.07
687.397	0.06
687.723	0.07
688.048	0.07
688.373	0.07
688.698	0.07
689.023	0.07
689.349	0.07
689.674	0.07
689.999	0.07
690.323	0.06
690.648	0.06
690.973	0.06
691.298	0.06
691.623	0.07
691.947	0.07
692.272	0.07
692.596	0.07
692.921	0.07
693.245	0.06
693.57	0.06
693.894	0.07
694.218	0.07
694.543	0.06
694.867	0.06
695.191	0.06
695.515	0.07
695.839	0.06
696.163	0.06
696.487	0.06
696.811	0.07
697.135	0.06
697.458	0.06
697.782	0.06
698.106	0.06
698.429	0.06
698.753	0.06
699.076	0.07
699.4	0.05
699.723	0.06
700.046	0.06
700.37	0.07
700.693	0.06
701.016	0.06
701.339	0.06
701.662	0.08
701.985	0.06
702.308	0.06
702.631	0.06
702.954	0.07
703.277	0.06
703.599	0.07
703.922	0.06
704.245	0.05
704.567	0.05
704.89	0.06
705.212	0.06
705.535	0.05
705.857	0.05
706.179	0.05
706.502	0.06
706.824	0.05
707.146	0.05
707.468	0.06
707.79	0.05
708.112	0.06
708.434	0.06
708.756	0.06
709.078	0.06
709.399	0.05
709.721	0.05
710.043	0.06
710.364	0.06
710.686	0.06
711.007	0.06
711.329	0.06
711.65	0.06
711.972	0.06
712.293	0.07
712.614	0.07
712.935	0.06
713.256	0.06
713.577	0.06
713.898	0.06
714.219	0.05
714.54	0.05
714.861	0.05
715.182	0.06
715.503	0.06
715.823	0.06
716.144	0.04
716.464	0.05
716.785	0.05
717.105	0.05
717.426	0.06
717.746	0.05
718.066	0.04
718.387	0.05
718.707	0.04
719.027	0.05
719.347	0.04
719.667	0.05
719.987	0.04
720.307	0.05
720.627	0.05
720.947	0.04
721.266	0.05
721.586	0.04
721.906	0.04
722.225	0.04
722.545	0.04
722.864	0.04
723.184	0.05
723.503	0.05
723.823	0.05
724.142	0.04
724.461	0.05
724.78	0.04
725.099	0.05
725.418	0.05
725.737	0.04
726.056	0.05
726.375	0.05
726.694	0.05
727.013	0.04
727.331	0.04
727.65	0.05
727.969	0.05
728.287	0.06
728.606	0.05
728.924	0.05
729.242	0.05
729.561	0.05
729.879	0.05
730.197	0.05
730.515	0.05
730.834	0.05
731.152	0.05
731.47	0.05
731.788	0.05
732.105	0.04
732.423	0.05
732.741	0.05
733.059	0.05
733.376	0.06
733.694	0.05
734.012	0.04
734.329	0.06
734.647	0.05
734.964	0.05
735.281	0.05
735.599	0.05
735.916	0.05
736.233	0.04
736.55	0.05
736.867	0.04
737.184	0.05
737.501	0.05
737.818	0.05
738.135	0.05
738.452	0.05
738.768	0.05
739.085	0.05
739.402	0.04
739.718	0.05
740.035	0.05
740.351	0.05
740.668	0.06
740.984	0.05
741.3	0.04
741.617	0.05
741.933	0.05
742.249	0.05
742.565	0.05
742.881	0.06
743.197	0.05
743.513	0.05
743.829	0.04
744.144	0.05
744.46	0.04
744.776	0.05
745.091	0.04
745.407	0.05
745.722	0.04
746.038	0.04
746.353	0.03
746.669	0.04
746.984	0.03
747.299	0.04
747.614	0.05
747.93	0.05
748.245	0.04
748.56	0.04
748.875	0.04
749.189	0.04
749.504	0.04
749.819	0.04
750.134	0.04
750.448	0.05
750.763	0.05
751.078	0.04
751.392	0.05
751.707	0.06
752.021	0.05
752.335	0.06
752.65	0.06
752.964	0.05
753.278	0.05
753.592	0.05
753.906	0.04
754.22	0.05
754.534	0.05
754.848	0.05
755.162	0.05
755.476	0.05
755.789	0.06
756.103	0.05
756.417	0.06
756.73	0.05
757.044	0.05
757.357	0.04
757.671	0.05
757.984	0.05
758.297	0.05
758.61	0.05
758.924	0.06
759.237	0.04
759.55	0.05
759.863	0.05
760.176	0.05
760.488	0.05
760.801	0.04
761.114	0.04
761.427	0.04
761.739	0.04
762.052	0.05
762.365	0.04
762.677	0.04
762.99	0.04
763.302	0.05
763.614	0.04
763.926	0.06
764.239	0.04
764.551	0.04
764.863	0.05
765.175	0.05
765.487	0.04
765.799	0.04
766.111	0.03
766.423	0.04
766.734	0.04
767.046	0.03
767.358	0.04
767.669	0.04
767.981	0.05
768.292	0.05
768.604	0.04
768.915	0.04
769.226	0.04
769.537	0.04
769.849	0.05
770.16	0.04
770.471	0.04
770.782	0.04
771.093	0.04
771.404	0.02
771.715	0.03
772.025	0.04
772.336	0.04
772.647	0.03
772.957	0.04
773.268	0.04
773.578	0.04
773.889	0.04
774.199	0.04
774.51	0.04
774.82	0.04
775.13	0.05
775.44	0.04
775.75	0.04
776.06	0.04
776.37	0.04
776.68	0.05
776.99	0.04
777.3	0.04
777.61	0.05
777.92	0.04
778.229	0.04
778.539	0.05
778.848	0.04
779.158	0.05
779.467	0.05
779.777	0.04
780.086	0.05
780.395	0.04
780.704	0.04
781.013	0.03
781.323	0.04
781.632	0.04
781.941	0.05
782.249	0.04
782.558	0.03
782.867	0.03
783.176	0.03
783.485	0.04
783.793	0.04
784.102	0.04
784.41	0.03
784.719	0.03
785.027	0.03
785.335	0.03
785.644	0.05
785.952	0.03
786.26	0.04
786.568	0.03
786.876	0.03
787.184	0.03
787.492	0.04
787.8	0.03
788.108	0.04
788.416	0.03
788.723	0.04
789.031	0.03
789.338	0.03
789.646	0.03
789.953	0.04
790.261	0.05
790.568	0.04
790.876	0.04
791.183	0.03
791.49	0.04
791.797	0.04
792.104	0.04
792.411	0.04
792.718	0.04
793.025	0.04
793.332	0.05
793.639	0.05
793.945	0.05
794.252	0.05
794.559	0.05
794.865	0.05
795.172	0.04
795.478	0.04
795.784	0.05
796.091	0.05
796.397	0.05
796.703	0.05
797.009	0.06
797.315	0.06
797.622	0.05
797.927	0.06
798.233	0.05
798.539	0.05
798.845	0.05
799.151	0.05
799.456	0.05
799.762	0.05
800.068	0.05
800.373	0.05
800.679	0.04
800.984	0.05
801.289	0.05
801.595	0.05
801.9	0.05
802.205	0.05
802.51	0.05
802.815	0.05
803.12	0.04
803.425	0.05
803.73	0.04
804.035	0.05
804.339	0.04
804.644	0.04
804.949	0.05
805.253	0.04
805.558	0.05
805.862	0.04
806.167	0.04
806.471	0.03
806.775	0.05
807.08	0.05
807.384	0.04
807.688	0.04
807.992	0.04
808.296	0.04
808.6	0.04
808.904	0.05
809.207	0.04
809.511	0.05
809.815	0.06
810.119	0.06
810.422	0.06
810.726	0.06
811.029	0.06
811.332	0.06
811.636	0.06
811.939	0.06
812.242	0.06
812.546	0.06
812.849	0.06
813.152	0.06
813.455	0.06
813.758	0.07
814.06	0.06
814.363	0.06
814.666	0.06
814.969	0.06
815.271	0.06
815.574	0.06
815.877	0.06
816.179	0.05
816.481	0.06
816.784	0.05
817.086	0.05
817.388	0.04
817.69	0.04
817.993	0.04
818.295	0.04
818.597	0.04
818.899	0.04
819.2	0.04
819.502	0.04
819.804	0.04
820.106	0.03
820.407	0.03
820.709	0.04
821.01	0.04
821.312	0.04
821.613	0.03
821.915	0.03
822.216	0.03
822.517	0.03
822.818	0.03
823.119	0.03
823.42	0.04
823.721	0.03
824.022	0.03
824.323	0.03
824.624	0.03
824.925	0.04
825.226	0.03
825.526	0.03
825.827	0.03
826.127	0.04
826.428	0.04
826.728	0.03
827.028	0.03
827.329	0.03
827.629	0.03
827.929	0.03
828.229	0.04
828.529	0.04
828.829	0.03
829.129	0.03
829.429	0.03
829.729	0.04
830.029	0.02
830.328	0.03
830.628	0.02
830.927	0.02
831.227	0.02
831.526	0.02
831.826	0.03
832.125	0.03
832.424	0.02
832.724	0.03
833.023	0.03
833.322	0.03
833.621	0.02
833.92	0.01
834.219	0.01
834.518	0.02
834.816	0.01
835.115	0.02
835.414	0.02
835.712	0.01
836.011	0.01
836.309	0.01
836.608	0.01
836.906	0.01
837.205	-0
837.503	0
837.801	0.01
838.099	0
838.397	-0.01
838.695	-0.01
838.993	0
839.291	-0.01
839.589	-0.01
839.887	-0.01
840.184	-0.01
840.482	-0.01
840.78	-0.01
841.077	-0.01
841.375	-0.01
841.672	-0.01
841.969	-0.01
842.267	-0.01
842.564	-0.02
842.861	-0.01
843.158	-0.02
843.455	-0.03
843.752	-0.03
844.049	-0.02
844.346	-0.02
844.643	-0.04
844.94	-0.03
845.236	-0.03
845.533	-0.04
845.83	-0.04
846.126	-0.03
846.423	-0.03
846.719	-0.04
847.015	-0.04
847.312	-0.03
847.608	-0.05
847.904	-0.04
848.2	-0.05
848.496	-0.05
848.792	-0.04
849.088	-0.03
849.384	-0.05
849.68	-0.05
849.975	-0.04
850.271	-0.05
850.567	-0.05
850.862	-0.05
851.158	-0.06
851.453	-0.05
851.748	-0.07
852.044	-0.05
852.339	-0.06
852.634	-0.07
852.929	-0.06
853.224	-0.07
853.519	-0.07
853.814	-0.07
854.109	-0.07
854.404	-0.07
854.699	-0.07
854.994	-0.07
855.288	-0.06
855.583	-0.06
855.877	-0.07
856.172	-0.07
856.466	-0.08
856.76	-0.08
857.055	-0.07
857.349	-0.09
857.643	-0.08
857.937	-0.09
858.231	-0.1
858.525	-0.1
858.819	-0.1
859.113	-0.1
859.407	-0.11
859.701	-0.11
859.994	-0.11
860.288	-0.1
860.581	-0.1
860.875	-0.11
861.168	-0.12
861.462	-0.1
861.755	-0.11
862.048	-0.11
862.341	-0.1
862.634	-0.11
862.928	-0.11
863.221	-0.1
863.513	-0.11
863.806	-0.11
864.099	-0.12
864.392	-0.12
864.685	-0.11
864.977	-0.12
865.27	-0.12
865.562	-0.12
865.855	-0.11
866.147	-0.13
866.44	-0.12
866.732	-0.12
867.024	-0.12
867.316	-0.12
867.608	-0.14
867.9	-0.13
868.192	-0.13
868.484	-0.13
868.776	-0.14
869.068	-0.14
869.359	-0.14
869.651	-0.13
869.943	-0.14
870.234	-0.15
870.526	-0.15
870.817	-0.16
871.108	-0.14
871.4	-0.15
871.691	-0.16
871.982	-0.16
872.273	-0.17
872.564	-0.16
872.855	-0.16
873.146	-0.17
873.437	-0.17
873.728	-0.18
874.019	-0.16
874.309	-0.17
874.6	-0.17
874.89	-0.16
875.181	-0.18
875.471	-0.17
875.762	-0.17
876.052	-0.16
876.342	-0.15
876.632	-0.15
876.922	-0.18
877.213	-0.16
877.503	-0.18
877.792	-0.17
878.082	-0.18
878.372	-0.16
878.662	-0.19
878.952	-0.18
879.241	-0.18
879.531	-0.17
879.82	-0.17
880.11	-0.16
880.399	-0.16
880.688	-0.15
880.978	-0.15
881.267	-0.15
