Data from 12-12-AQDScycling_Absorbance__931__00931.txt Node

Date: Tue Dec 12 14:49:29 EST 2023
User: kyuminlee
Spectrometer: FLMS00943
Trigger mode: 0
Integration Time (sec): 1.000000E-1
Scans to average: 1
Electric dark correction enabled: true
Nonlinearity correction enabled: false
Boxcar width: 0
XAxis mode: Wavelengths
Number of Pixels in Spectrum: 2048
>>>>>Begin Spectral Data<<<<<
179.651	0.07
180.037	0.07
180.424	0.07
180.81	-0.12
181.197	0.44
181.583	-0
181.97	-0.45
182.356	-0
182.743	-1.15
183.129	-0.22
183.515	-0
183.901	-0
184.288	1.19
184.674	-0.15
185.06	-1.1
185.446	-0
185.832	0.7
186.218	0.07
186.604	-0
186.99	-0
187.376	-0
187.762	1.07
188.148	1.62
188.534	-0.25
188.92	0.1
189.305	0.06
189.691	0.33
190.077	0.15
190.463	0.12
190.848	0.08
191.234	0.07
191.619	-0.04
192.005	0.05
192.391	0.16
192.776	0.1
193.161	0.09
193.547	0.19
193.932	0.03
194.318	0
194.703	0.14
195.088	0.31
195.473	0.14
195.859	0.31
196.244	0.24
196.629	0.18
197.014	0.1
197.399	0.16
197.784	0.06
198.169	0.13
198.554	0.23
198.939	0.19
199.324	0.13
199.709	0.07
200.094	0.12
200.478	0.03
200.863	0.12
201.248	0.15
201.633	0.17
202.017	0.22
202.402	0.22
202.787	0.19
203.171	0.11
203.556	0.25
203.94	0.12
204.325	0.21
204.709	0.17
205.093	0.04
205.478	0.13
205.862	0.2
206.246	0.32
206.631	0.24
207.015	0.04
207.399	0.23
207.783	0.16
208.167	0.18
208.551	0.21
208.935	0.21
209.319	0.08
209.703	0.16
210.087	0.16
210.471	0.11
210.855	0.19
211.239	0.32
211.623	0.13
212.007	0.21
212.39	0.27
212.774	0.18
213.158	0.12
213.541	0.42
213.925	0.22
214.309	0.55
214.692	0.33
215.076	0.19
215.459	0.33
215.842	0.14
216.226	0.2
216.609	0.37
216.993	0.19
217.376	0.49
217.759	0.23
218.142	0.36
218.525	0.44
218.909	0.28
219.292	0.48
219.675	0.62
220.058	0.36
220.441	0.69
220.824	0.43
221.207	0.57
221.59	0.48
221.973	0.54
222.355	0.62
222.738	0.8
223.121	0.56
223.504	0.62
223.886	0.67
224.269	0.69
224.652	0.67
225.034	0.92
225.417	0.81
225.799	0.74
226.182	0.83
226.564	1.03
226.947	0.82
227.329	0.83
227.711	1
228.094	1
228.476	0.87
228.858	0.81
229.24	0.78
229.623	0.78
230.005	0.95
230.387	0.87
230.769	0.83
231.151	0.91
231.533	1
231.915	0.83
232.297	1.1
232.679	0.93
233.061	1.04
233.442	0.97
233.824	0.94
234.206	1.02
234.588	0.99
234.969	1.1
235.351	1
235.733	1.07
236.114	1.32
236.496	1.14
236.877	1.04
237.259	1.11
237.64	1.01
238.022	1
238.403	0.99
238.784	1.07
239.165	0.96
239.547	1.2
239.928	1.31
240.309	1
240.69	1.05
241.071	1.19
241.452	1.05
241.834	1.06
242.215	1.16
242.595	1.08
242.976	1.08
243.357	1.1
243.738	1.08
244.119	1.21
244.5	1.1
244.881	1.24
245.261	1.31
245.642	1.21
246.023	1.17
246.403	1.11
246.784	1.26
247.164	1.25
247.545	1.29
247.925	1.23
248.306	1.17
248.686	1.56
249.067	1.27
249.447	1.4
249.827	1.4
250.207	1.38
250.588	1.33
250.968	1.51
251.348	1.45
251.728	1.4
252.108	1.32
252.488	1.33
252.868	1.33
253.248	1.37
253.628	1.3
254.008	1.4
254.388	1.37
254.768	1.27
255.147	1.34
255.527	1.41
255.907	1.38
256.287	1.39
256.666	1.43
257.046	1.54
257.425	1.49
257.805	1.44
258.184	1.35
258.564	1.38
258.943	1.37
259.323	1.64
259.702	1.53
260.081	1.58
260.461	1.48
260.84	1.4
261.219	1.52
261.598	1.56
261.977	1.42
262.356	1.5
262.736	1.56
263.115	1.45
263.494	1.45
263.873	1.41
264.251	1.57
264.63	1.53
265.009	1.44
265.388	1.44
265.767	1.41
266.145	1.37
266.524	1.35
266.903	1.4
267.281	1.33
267.66	1.56
268.039	1.49
268.417	1.36
268.796	1.52
269.174	1.36
269.552	1.35
269.931	1.48
270.309	1.31
270.687	1.5
271.066	1.63
271.444	1.36
271.822	1.53
272.2	1.4
272.578	1.32
272.956	1.55
273.334	1.35
273.712	1.46
274.09	1.66
274.468	1.3
274.846	1.21
275.224	1.3
275.602	1.53
275.98	1.61
276.357	1.35
276.735	1.5
277.113	1.38
277.49	1.37
277.868	1.37
278.246	1.51
278.623	1.32
279.001	1.36
279.378	1.44
279.756	1.43
280.133	1.59
280.51	1.45
280.888	1.46
281.265	1.34
281.642	1.46
282.019	1.61
282.396	1.48
282.773	1.58
283.151	1.68
283.528	1.67
283.905	1.52
284.282	1.52
284.659	1.47
285.035	1.34
285.412	1.33
285.789	1.5
286.166	1.42
286.543	1.4
286.919	1.49
287.296	1.39
287.673	1.61
288.049	1.58
288.426	1.69
288.802	1.54
289.179	1.37
289.555	1.66
289.932	1.44
290.308	1.26
290.684	1.39
291.061	1.37
291.437	1.57
291.813	1.29
292.189	1.27
292.565	1.27
292.942	1.32
293.318	1.39
293.694	1.43
294.07	1.39
294.446	1.41
294.822	1.53
295.197	1.46
295.573	1.6
295.949	1.44
296.325	1.49
296.701	1.56
297.076	1.47
297.452	1.65
297.828	1.5
298.203	1.48
298.579	1.42
298.954	1.62
299.33	1.53
299.705	1.46
300.081	1.61
300.456	1.56
300.831	1.47
301.206	1.43
301.582	1.67
301.957	1.43
302.332	1.72
302.707	1.5
303.082	1.53
303.457	1.59
303.832	1.54
304.207	1.51
304.582	1.49
304.957	1.54
305.332	1.58
305.707	1.64
306.082	1.63
306.456	1.55
306.831	1.49
307.206	1.52
307.58	1.58
307.955	1.48
308.33	1.43
308.704	1.6
309.079	1.41
309.453	1.86
309.828	1.57
310.202	1.46
310.576	1.42
310.951	1.66
311.325	1.62
311.699	1.5
312.073	1.42
312.447	1.5
312.821	1.46
313.196	1.53
313.57	1.51
313.944	1.54
314.317	1.36
314.691	1.48
315.065	1.49
315.439	1.55
315.813	1.52
316.187	1.47
316.56	1.58
316.934	1.7
317.308	1.48
317.681	1.54
318.055	1.59
318.428	1.53
318.802	1.52
319.175	1.53
319.549	1.53
319.922	1.41
320.295	1.55
320.669	1.73
321.042	1.53
321.415	1.75
321.788	1.54
322.162	1.4
322.535	1.53
322.908	1.57
323.281	1.54
323.654	1.62
324.027	1.38
324.4	1.6
324.773	1.51
325.145	1.53
325.518	1.49
325.891	1.64
326.264	1.6
326.636	1.69
327.009	1.67
327.382	1.47
327.754	1.71
328.127	1.4
328.499	1.53
328.872	1.49
329.244	1.64
329.616	1.49
329.989	1.43
330.361	1.56
330.733	1.43
331.106	1.45
331.478	1.65
331.85	1.52
332.222	1.43
332.594	1.53
332.966	1.48
333.338	1.49
333.71	1.6
334.082	1.72
334.454	1.43
334.826	1.61
335.197	1.52
335.569	1.47
335.941	1.54
336.312	1.63
336.684	1.43
337.056	1.49
337.427	1.68
337.799	1.58
338.17	1.59
338.542	1.54
338.913	1.7
339.284	1.66
339.656	1.61
340.027	1.61
340.398	1.5
340.769	1.54
341.141	1.73
341.512	1.6
341.883	1.58
342.254	1.5
342.625	1.71
342.996	1.49
343.367	1.57
343.738	1.46
344.108	1.43
344.479	1.78
344.85	1.53
345.221	1.56
345.591	1.51
345.962	1.43
346.333	1.47
346.703	1.38
347.074	1.35
347.444	1.41
347.815	1.46
348.185	1.36
348.556	1.43
348.926	1.34
349.296	1.47
349.666	1.41
350.037	1.24
350.407	1.21
350.777	1.36
351.147	1.43
351.517	1.37
351.887	1.35
352.257	1.42
352.627	1.29
352.997	1.42
353.367	1.48
353.737	1.53
354.106	1.37
354.476	1.32
354.846	1.36
355.216	1.38
355.585	1.48
355.955	1.41
356.324	1.3
356.694	1.29
357.063	1.31
357.433	1.25
357.802	1.29
358.171	1.34
358.541	1.29
358.91	1.34
359.279	1.31
359.648	1.16
360.017	1.26
360.387	1.2
360.756	1.17
361.125	1.21
361.494	1.23
361.863	1.13
362.231	1.15
362.6	1.11
362.969	1.18
363.338	1.1
363.707	1.12
364.075	1.13
364.444	1.04
364.813	1.04
365.181	1.04
365.55	1.01
365.918	1.06
366.287	1.06
366.655	1.04
367.024	1.04
367.392	1
367.76	0.99
368.128	1
368.497	0.98
368.865	0.97
369.233	0.94
369.601	0.96
369.969	0.96
370.337	0.95
370.705	0.92
371.073	0.97
371.441	0.91
371.809	0.9
372.177	0.91
372.544	0.91
372.912	0.91
373.28	0.95
373.647	0.91
374.015	0.95
374.383	0.97
374.75	0.95
375.118	0.92
375.485	0.92
375.853	0.94
376.22	0.89
376.587	0.88
376.955	0.94
377.322	0.94
377.689	0.89
378.056	0.86
378.423	0.89
378.79	0.92
379.157	0.96
379.524	0.91
379.891	0.86
380.258	0.88
380.625	0.89
380.992	0.94
381.359	0.91
381.726	0.93
382.092	0.88
382.459	0.91
382.826	0.9
383.192	0.93
383.559	0.94
383.925	0.9
384.292	0.92
384.658	0.96
385.025	0.92
385.391	0.94
385.757	0.97
386.123	0.99
386.49	0.98
386.856	0.97
387.222	0.97
387.588	0.97
387.954	0.97
388.32	1
388.686	0.96
389.052	0.99
389.418	0.96
389.784	0.96
390.15	1
390.515	0.96
390.881	1.05
391.247	0.96
391.613	1
391.978	0.96
392.344	1.05
392.709	0.99
393.075	0.99
393.44	1
393.806	0.98
394.171	0.93
394.536	1.01
394.902	0.95
395.267	0.93
395.632	0.94
395.997	0.99
396.362	0.93
396.727	0.93
397.092	0.98
397.457	0.89
397.822	0.95
398.187	0.93
398.552	0.92
398.917	0.91
399.282	0.9
399.646	0.9
400.011	0.93
400.376	0.9
400.74	0.91
401.105	0.89
401.47	0.88
401.834	0.9
402.199	0.86
402.563	0.84
402.927	0.88
403.292	0.89
403.656	0.87
404.02	0.86
404.384	0.87
404.749	0.86
405.113	0.89
405.477	0.83
405.841	0.82
406.205	0.8
406.569	0.79
406.933	0.81
407.296	0.8
407.66	0.79
408.024	0.82
408.388	0.82
408.752	0.78
409.115	0.77
409.479	0.74
409.842	0.74
410.206	0.74
410.569	0.75
410.933	0.75
411.296	0.7
411.66	0.75
412.023	0.7
412.386	0.74
412.749	0.71
413.113	0.72
413.476	0.69
413.839	0.69
414.202	0.68
414.565	0.67
414.928	0.69
415.291	0.68
415.654	0.67
416.017	0.67
416.38	0.69
416.742	0.67
417.105	0.65
417.468	0.67
417.83	0.69
418.193	0.65
418.556	0.67
418.918	0.64
419.281	0.67
419.643	0.65
420.005	0.65
420.368	0.63
420.73	0.64
421.092	0.67
421.455	0.63
421.817	0.63
422.179	0.62
422.541	0.64
422.903	0.65
423.265	0.61
423.627	0.62
423.989	0.63
424.351	0.61
424.713	0.63
425.075	0.61
425.436	0.59
425.798	0.61
426.16	0.61
426.521	0.61
426.883	0.62
427.245	0.61
427.606	0.6
427.967	0.59
428.329	0.59
428.69	0.62
429.052	0.59
429.413	0.6
429.774	0.59
430.135	0.6
430.497	0.57
430.858	0.6
431.219	0.57
431.58	0.57
431.941	0.57
432.302	0.59
432.663	0.57
433.024	0.58
433.384	0.59
433.745	0.54
434.106	0.57
434.467	0.56
434.827	0.58
435.188	0.57
435.548	0.56
435.909	0.57
436.269	0.57
436.63	0.56
436.99	0.54
437.351	0.54
437.711	0.55
438.071	0.55
438.431	0.53
438.792	0.53
439.152	0.54
439.512	0.53
439.872	0.53
440.232	0.55
440.592	0.53
440.952	0.52
441.312	0.52
441.671	0.52
442.031	0.52
442.391	0.51
442.751	0.53
443.11	0.51
443.47	0.51
443.83	0.5
444.189	0.49
444.549	0.51
444.908	0.49
445.267	0.5
445.627	0.49
445.986	0.47
446.345	0.48
446.705	0.48
447.064	0.47
447.423	0.48
447.782	0.47
448.141	0.46
448.5	0.45
448.859	0.47
449.218	0.46
449.577	0.46
449.936	0.47
450.295	0.45
450.653	0.46
451.012	0.46
451.371	0.46
451.729	0.45
452.088	0.45
452.447	0.44
452.805	0.46
453.163	0.44
453.522	0.45
453.88	0.43
454.239	0.43
454.597	0.41
454.955	0.42
455.313	0.41
455.671	0.43
456.029	0.41
456.388	0.4
456.746	0.42
457.104	0.41
457.461	0.39
457.819	0.39
458.177	0.38
458.535	0.38
458.893	0.37
459.25	0.38
459.608	0.37
459.966	0.37
460.323	0.36
460.681	0.35
461.038	0.35
461.396	0.35
461.753	0.35
462.111	0.34
462.468	0.35
462.825	0.34
463.182	0.34
463.54	0.33
463.897	0.34
464.254	0.33
464.611	0.33
464.968	0.32
465.325	0.33
465.682	0.31
466.039	0.31
466.395	0.31
466.752	0.31
467.109	0.3
467.466	0.31
467.822	0.3
468.179	0.3
468.535	0.3
468.892	0.29
469.248	0.29
469.605	0.28
469.961	0.28
470.318	0.28
470.674	0.28
471.03	0.26
471.386	0.27
471.743	0.26
472.099	0.26
472.455	0.26
472.811	0.26
473.167	0.25
473.523	0.25
473.879	0.25
474.235	0.24
474.59	0.24
474.946	0.24
475.302	0.24
475.657	0.24
476.013	0.23
476.369	0.23
476.724	0.23
477.08	0.23
477.435	0.23
477.791	0.22
478.146	0.22
478.501	0.22
478.857	0.22
479.212	0.21
479.567	0.22
479.922	0.2
480.277	0.21
480.632	0.2
480.987	0.2
481.342	0.19
481.697	0.19
482.052	0.19
482.407	0.2
482.762	0.18
483.116	0.18
483.471	0.18
483.826	0.18
484.18	0.18
484.535	0.18
484.89	0.17
485.244	0.18
485.598	0.17
485.953	0.17
486.307	0.17
486.661	0.18
487.016	0.16
487.37	0.16
487.724	0.16
488.078	0.16
488.432	0.16
488.786	0.16
489.14	0.15
489.494	0.15
489.848	0.15
490.202	0.15
490.556	0.15
490.91	0.15
491.263	0.15
491.617	0.15
491.971	0.15
492.324	0.14
492.678	0.15
493.031	0.15
493.385	0.14
493.738	0.14
494.091	0.15
494.445	0.14
494.798	0.14
495.151	0.14
495.504	0.14
495.857	0.14
496.21	0.14
496.564	0.13
496.916	0.14
497.269	0.13
497.622	0.14
497.975	0.13
498.328	0.13
498.681	0.13
499.033	0.12
499.386	0.13
499.739	0.12
500.091	0.12
500.444	0.12
500.796	0.12
501.149	0.12
501.501	0.12
501.854	0.12
502.206	0.12
502.558	0.12
502.91	0.13
503.263	0.12
503.615	0.12
503.967	0.12
504.319	0.12
504.671	0.12
505.023	0.12
505.375	0.12
505.726	0.12
506.078	0.12
506.43	0.11
506.782	0.12
507.133	0.12
507.485	0.12
507.837	0.12
508.188	0.12
508.54	0.13
508.891	0.13
509.243	0.12
509.594	0.12
509.945	0.12
510.296	0.11
510.648	0.12
510.999	0.11
511.35	0.11
511.701	0.12
512.052	0.12
512.403	0.12
512.754	0.12
513.105	0.11
513.456	0.11
513.807	0.11
514.157	0.12
514.508	0.12
514.859	0.11
515.209	0.11
515.56	0.12
515.91	0.11
516.261	0.11
516.611	0.11
516.962	0.12
517.312	0.12
517.662	0.12
518.013	0.12
518.363	0.12
518.713	0.12
519.063	0.12
519.413	0.12
519.763	0.12
520.113	0.12
520.463	0.12
520.813	0.13
521.163	0.12
521.512	0.11
521.862	0.12
522.212	0.12
522.562	0.12
522.911	0.11
523.261	0.12
523.61	0.12
523.96	0.12
524.309	0.12
524.658	0.12
525.008	0.12
525.357	0.12
525.706	0.13
526.056	0.12
526.405	0.12
526.754	0.11
527.103	0.11
527.452	0.11
527.801	0.12
528.15	0.13
528.499	0.12
528.847	0.12
529.196	0.13
529.545	0.13
529.893	0.13
530.242	0.13
530.591	0.13
530.939	0.13
531.288	0.13
531.636	0.13
531.985	0.13
532.333	0.13
532.681	0.13
533.029	0.13
533.378	0.13
533.726	0.13
534.074	0.13
534.422	0.12
534.77	0.12
535.118	0.12
535.466	0.13
535.814	0.12
536.162	0.13
536.509	0.13
536.857	0.12
537.205	0.13
537.552	0.13
537.9	0.13
538.248	0.13
538.595	0.13
538.943	0.12
539.29	0.13
539.637	0.13
539.985	0.13
540.332	0.12
540.679	0.13
541.026	0.12
541.373	0.13
541.721	0.12
542.068	0.13
542.415	0.12
542.762	0.12
543.108	0.12
543.455	0.13
543.802	0.11
544.149	0.12
544.496	0.13
544.842	0.13
545.189	0.12
545.535	0.11
545.882	0.12
546.228	0.12
546.575	0.11
546.921	0.11
547.267	0.11
547.614	0.12
547.96	0.11
548.306	0.11
548.652	0.11
548.998	0.12
549.344	0.12
549.69	0.12
550.036	0.11
550.382	0.12
550.728	0.11
551.074	0.13
551.42	0.13
551.765	0.12
552.111	0.12
552.457	0.13
552.802	0.13
553.148	0.12
553.493	0.13
553.839	0.13
554.184	0.13
554.529	0.12
554.875	0.12
555.22	0.13
555.565	0.13
555.91	0.13
556.255	0.14
556.6	0.13
556.945	0.12
557.29	0.12
557.635	0.12
557.98	0.13
558.325	0.13
558.67	0.13
559.014	0.13
559.359	0.13
559.704	0.13
560.048	0.12
560.393	0.12
560.737	0.12
561.082	0.12
561.426	0.12
561.77	0.12
562.115	0.12
562.459	0.12
562.803	0.12
563.147	0.13
563.491	0.12
563.835	0.13
564.179	0.12
564.523	0.12
564.867	0.13
565.211	0.12
565.555	0.12
565.899	0.12
566.242	0.13
566.586	0.12
566.93	0.13
567.273	0.13
567.617	0.13
567.96	0.13
568.304	0.13
568.647	0.13
568.99	0.13
569.334	0.13
569.677	0.13
570.02	0.13
570.363	0.13
570.706	0.13
571.049	0.13
571.392	0.14
571.735	0.13
572.078	0.12
572.421	0.14
572.764	0.13
573.106	0.13
573.449	0.13
573.792	0.13
574.134	0.13
574.477	0.14
574.819	0.13
575.162	0.12
575.504	0.12
575.847	0.13
576.189	0.13
576.531	0.12
576.873	0.13
577.215	0.12
577.558	0.12
577.9	0.12
578.242	0.12
578.584	0.11
578.926	0.13
579.267	0.12
579.609	0.13
579.951	0.12
580.293	0.12
580.634	0.13
580.976	0.13
581.318	0.13
581.659	0.12
582.001	0.13
582.342	0.13
582.683	0.13
583.025	0.13
583.366	0.12
583.707	0.13
584.049	0.12
584.39	0.13
584.731	0.12
585.072	0.13
585.413	0.13
585.754	0.13
586.095	0.13
586.435	0.14
586.776	0.13
587.117	0.12
587.458	0.12
587.798	0.12
588.139	0.13
588.48	0.12
588.82	0.12
589.161	0.12
589.501	0.12
589.841	0.12
590.182	0.12
590.522	0.12
590.862	0.13
591.202	0.12
591.542	0.12
591.882	0.12
592.222	0.12
592.562	0.12
592.902	0.12
593.242	0.13
593.582	0.12
593.922	0.13
594.261	0.13
594.601	0.12
594.941	0.12
595.28	0.13
595.62	0.12
595.959	0.12
596.299	0.13
596.638	0.12
596.977	0.12
597.317	0.13
597.656	0.12
597.995	0.12
598.334	0.13
598.673	0.12
599.012	0.13
599.351	0.13
599.69	0.13
600.029	0.14
600.368	0.14
600.707	0.14
601.046	0.13
601.384	0.13
601.723	0.14
602.061	0.12
602.4	0.13
602.738	0.13
603.077	0.13
603.415	0.12
603.754	0.12
604.092	0.12
604.43	0.12
604.768	0.12
605.107	0.13
605.445	0.12
605.783	0.12
606.121	0.12
606.459	0.12
606.796	0.13
607.134	0.12
607.472	0.12
607.81	0.12
608.148	0.12
608.485	0.12
608.823	0.12
609.16	0.12
609.498	0.12
609.835	0.13
610.173	0.12
610.51	0.13
610.847	0.13
611.185	0.13
611.522	0.13
611.859	0.13
612.196	0.13
612.533	0.13
612.87	0.13
613.207	0.13
613.544	0.12
613.881	0.14
614.217	0.13
614.554	0.13
614.891	0.13
615.228	0.13
615.564	0.13
615.901	0.13
616.237	0.13
616.574	0.13
616.91	0.14
617.246	0.13
617.583	0.13
617.919	0.13
618.255	0.13
618.591	0.13
618.927	0.13
619.263	0.14
619.599	0.14
619.935	0.13
620.271	0.14
620.607	0.13
620.943	0.13
621.279	0.13
621.614	0.14
621.95	0.13
622.286	0.13
622.621	0.13
622.957	0.12
623.292	0.12
623.627	0.13
623.963	0.12
624.298	0.12
624.633	0.13
624.968	0.12
625.304	0.12
625.639	0.12
625.974	0.12
626.309	0.12
626.644	0.12
626.979	0.13
627.313	0.13
627.648	0.13
627.983	0.13
628.318	0.12
628.652	0.12
628.987	0.12
629.321	0.12
629.656	0.12
629.99	0.12
630.325	0.11
630.659	0.12
630.993	0.11
631.327	0.12
631.662	0.11
631.996	0.11
632.33	0.12
632.664	0.12
632.998	0.11
633.332	0.11
633.666	0.11
633.999	0.11
634.333	0.1
634.667	0.11
635.001	0.11
635.334	0.11
635.668	0.1
636.001	0.11
636.335	0.1
636.668	0.11
637.001	0.1
637.335	0.11
637.668	0.11
638.001	0.1
638.334	0.11
638.668	0.1
639.001	0.11
639.334	0.11
639.667	0.1
639.999	0.1
640.332	0.11
640.665	0.1
640.998	0.1
641.331	0.11
641.663	0.11
641.996	0.11
642.328	0.11
642.661	0.12
642.993	0.11
643.326	0.11
643.658	0.11
643.99	0.1
644.323	0.11
644.655	0.11
644.987	0.12
645.319	0.12
645.651	0.12
645.983	0.12
646.315	0.11
646.647	0.12
646.979	0.12
647.31	0.12
647.642	0.12
647.974	0.11
648.305	0.12
648.637	0.11
648.968	0.12
649.3	0.11
649.631	0.12
649.963	0.11
650.294	0.11
650.625	0.11
650.957	0.12
651.288	0.11
651.619	0.11
651.95	0.11
652.281	0.11
652.612	0.11
652.943	0.12
653.274	0.12
653.604	0.11
653.935	0.11
654.266	0.11
654.596	0.11
654.927	0.11
655.258	0.11
655.588	0.13
655.918	0.12
656.249	0.1
656.579	0.11
656.909	0.11
657.24	0.11
657.57	0.11
657.9	0.11
658.23	0.11
658.56	0.11
658.89	0.11
659.22	0.11
659.55	0.11
659.88	0.11
660.209	0.11
660.539	0.12
660.869	0.11
661.198	0.11
661.528	0.12
661.857	0.11
662.187	0.11
662.516	0.11
662.846	0.11
663.175	0.11
663.504	0.11
663.833	0.11
664.163	0.11
664.492	0.1
664.821	0.1
665.15	0.11
665.479	0.1
665.807	0.1
666.136	0.1
666.465	0.1
666.794	0.1
667.122	0.1
667.451	0.11
667.78	0.11
668.108	0.1
668.437	0.11
668.765	0.11
669.093	0.11
669.422	0.11
669.75	0.12
670.078	0.11
670.406	0.11
670.734	0.11
671.062	0.11
671.39	0.11
671.718	0.11
672.046	0.11
672.374	0.1
672.702	0.11
673.029	0.11
673.357	0.11
673.685	0.11
674.012	0.11
674.34	0.11
674.667	0.11
674.995	0.11
675.322	0.11
675.649	0.1
675.977	0.1
676.304	0.11
676.631	0.11
676.958	0.1
677.285	0.1
677.612	0.1
677.939	0.1
678.266	0.1
678.593	0.1
678.92	0.1
679.246	0.1
679.573	0.1
679.9	0.1
680.226	0.1
680.553	0.1
680.879	0.1
681.206	0.1
681.532	0.1
681.858	0.11
682.184	0.1
682.511	0.1
682.837	0.1
683.163	0.11
683.489	0.11
683.815	0.11
684.141	0.1
684.467	0.11
684.793	0.1
685.118	0.1
685.444	0.1
685.77	0.1
686.095	0.1
686.421	0.1
686.746	0.1
687.072	0.1
687.397	0.1
687.723	0.11
688.048	0.1
688.373	0.1
688.698	0.1
689.023	0.09
689.349	0.09
689.674	0.1
689.999	0.09
690.323	0.09
690.648	0.09
690.973	0.09
691.298	0.09
691.623	0.09
691.947	0.09
692.272	0.09
692.596	0.09
692.921	0.1
693.245	0.09
693.57	0.09
693.894	0.1
694.218	0.09
694.543	0.09
694.867	0.1
695.191	0.09
695.515	0.1
695.839	0.09
696.163	0.09
696.487	0.09
696.811	0.09
697.135	0.09
697.458	0.09
697.782	0.09
698.106	0.09
698.429	0.1
698.753	0.09
699.076	0.1
699.4	0.09
699.723	0.09
700.046	0.09
700.37	0.09
700.693	0.1
701.016	0.1
701.339	0.09
701.662	0.1
701.985	0.1
702.308	0.08
702.631	0.09
702.954	0.09
703.277	0.09
703.599	0.09
703.922	0.08
704.245	0.08
704.567	0.09
704.89	0.08
705.212	0.08
705.535	0.08
705.857	0.08
706.179	0.08
706.502	0.08
706.824	0.08
707.146	0.08
707.468	0.09
707.79	0.08
708.112	0.08
708.434	0.08
708.756	0.07
709.078	0.09
709.399	0.08
709.721	0.08
710.043	0.08
710.364	0.08
710.686	0.08
711.007	0.08
711.329	0.09
711.65	0.08
711.972	0.08
712.293	0.09
712.614	0.09
712.935	0.09
713.256	0.09
713.577	0.1
713.898	0.09
714.219	0.08
714.54	0.08
714.861	0.08
715.182	0.08
715.503	0.09
715.823	0.08
716.144	0.09
716.464	0.08
716.785	0.08
717.105	0.08
717.426	0.08
717.746	0.08
718.066	0.07
718.387	0.08
718.707	0.07
719.027	0.08
719.347	0.07
719.667	0.08
719.987	0.07
720.307	0.07
720.627	0.08
720.947	0.07
721.266	0.07
721.586	0.07
721.906	0.07
722.225	0.07
722.545	0.07
722.864	0.06
723.184	0.08
723.503	0.07
723.823	0.08
724.142	0.07
724.461	0.06
724.78	0.07
725.099	0.07
725.418	0.07
725.737	0.08
726.056	0.08
726.375	0.08
726.694	0.07
727.013	0.07
727.331	0.07
727.65	0.06
727.969	0.07
728.287	0.08
728.606	0.08
728.924	0.07
729.242	0.08
729.561	0.07
729.879	0.07
730.197	0.07
730.515	0.07
730.834	0.07
731.152	0.07
731.47	0.07
731.788	0.07
732.105	0.07
732.423	0.07
732.741	0.07
733.059	0.07
733.376	0.08
733.694	0.07
734.012	0.07
734.329	0.09
734.647	0.08
734.964	0.08
735.281	0.08
735.599	0.08
735.916	0.08
736.233	0.08
736.55	0.08
736.867	0.08
737.184	0.09
737.501	0.08
737.818	0.08
738.135	0.08
738.452	0.08
738.768	0.08
739.085	0.08
739.402	0.07
739.718	0.07
740.035	0.07
740.351	0.08
740.668	0.08
740.984	0.08
741.3	0.07
741.617	0.07
741.933	0.07
742.249	0.08
742.565	0.08
742.881	0.07
743.197	0.07
743.513	0.06
743.829	0.06
744.144	0.06
744.46	0.07
744.776	0.08
745.091	0.07
745.407	0.07
745.722	0.06
746.038	0.07
746.353	0.06
746.669	0.07
746.984	0.06
747.299	0.07
747.614	0.07
747.93	0.07
748.245	0.06
748.56	0.07
748.875	0.06
749.189	0.07
749.504	0.06
749.819	0.07
750.134	0.06
750.448	0.07
750.763	0.07
751.078	0.05
751.392	0.06
751.707	0.07
752.021	0.07
752.335	0.07
752.65	0.07
752.964	0.06
753.278	0.07
753.592	0.06
753.906	0.06
754.22	0.06
754.534	0.06
754.848	0.07
755.162	0.06
755.476	0.06
755.789	0.06
756.103	0.06
756.417	0.07
756.73	0.07
757.044	0.06
757.357	0.06
757.671	0.06
757.984	0.07
758.297	0.06
758.61	0.06
758.924	0.06
759.237	0.06
759.55	0.06
759.863	0.06
760.176	0.06
760.488	0.06
760.801	0.06
761.114	0.06
761.427	0.05
761.739	0.07
762.052	0.06
762.365	0.05
762.677	0.07
762.99	0.05
763.302	0.06
763.614	0.06
763.926	0.06
764.239	0.06
764.551	0.06
764.863	0.06
765.175	0.07
765.487	0.06
765.799	0.06
766.111	0.05
766.423	0.05
766.734	0.06
767.046	0.06
767.358	0.06
767.669	0.05
767.981	0.06
768.292	0.06
768.604	0.05
768.915	0.06
769.226	0.06
769.537	0.05
769.849	0.06
770.16	0.05
770.471	0.05
770.782	0.06
771.093	0.06
771.404	0.04
771.715	0.04
772.025	0.05
772.336	0.05
772.647	0.04
772.957	0.05
773.268	0.05
773.578	0.05
773.889	0.06
774.199	0.06
774.51	0.06
774.82	0.06
775.13	0.06
775.44	0.06
775.75	0.06
776.06	0.06
776.37	0.06
776.68	0.06
776.99	0.06
777.3	0.06
777.61	0.06
777.92	0.06
778.229	0.06
778.539	0.06
778.848	0.06
779.158	0.06
779.467	0.07
779.777	0.06
780.086	0.06
780.395	0.05
780.704	0.06
781.013	0.06
781.323	0.05
781.632	0.06
781.941	0.06
782.249	0.06
782.558	0.05
782.867	0.06
783.176	0.05
783.485	0.06
783.793	0.05
784.102	0.06
784.41	0.06
784.719	0.06
785.027	0.06
785.335	0.06
785.644	0.06
785.952	0.05
786.26	0.06
786.568	0.05
786.876	0.05
787.184	0.06
787.492	0.06
787.8	0.05
788.108	0.06
788.416	0.06
788.723	0.06
789.031	0.05
789.338	0.05
789.646	0.06
789.953	0.06
790.261	0.06
790.568	0.07
790.876	0.06
791.183	0.06
791.49	0.05
791.797	0.05
792.104	0.05
792.411	0.06
792.718	0.05
793.025	0.05
793.332	0.05
793.639	0.06
793.945	0.06
794.252	0.06
794.559	0.06
794.865	0.06
795.172	0.05
795.478	0.05
795.784	0.06
796.091	0.06
796.397	0.06
796.703	0.06
797.009	0.07
797.315	0.06
797.622	0.06
797.927	0.06
798.233	0.06
798.539	0.06
798.845	0.06
799.151	0.06
799.456	0.07
799.762	0.06
800.068	0.06
800.373	0.07
800.679	0.07
800.984	0.06
801.289	0.06
801.595	0.06
801.9	0.06
802.205	0.06
802.51	0.05
802.815	0.05
803.12	0.06
803.425	0.06
803.73	0.06
804.035	0.06
804.339	0.05
804.644	0.06
804.949	0.06
805.253	0.06
805.558	0.06
805.862	0.05
806.167	0.06
806.471	0.05
806.775	0.06
807.08	0.06
807.384	0.05
807.688	0.06
807.992	0.06
808.296	0.06
808.6	0.06
808.904	0.06
809.207	0.06
809.511	0.06
809.815	0.07
810.119	0.07
810.422	0.07
810.726	0.07
811.029	0.07
811.332	0.06
811.636	0.07
811.939	0.06
812.242	0.07
812.546	0.07
812.849	0.06
813.152	0.06
813.455	0.07
813.758	0.06
814.06	0.06
814.363	0.06
814.666	0.07
814.969	0.07
815.271	0.07
815.574	0.05
815.877	0.06
816.179	0.05
816.481	0.06
816.784	0.06
817.086	0.05
817.388	0.05
817.69	0.05
817.993	0.05
818.295	0.05
818.597	0.04
818.899	0.05
819.2	0.04
819.502	0.04
819.804	0.05
820.106	0.05
820.407	0.04
820.709	0.04
821.01	0.05
821.312	0.06
821.613	0.04
821.915	0.04
822.216	0.04
822.517	0.04
822.818	0.04
823.119	0.04
823.42	0.04
823.721	0.04
824.022	0.04
824.323	0.04
824.624	0.04
824.925	0.04
825.226	0.05
825.526	0.04
825.827	0.04
826.127	0.04
826.428	0.04
826.728	0.04
827.028	0.03
827.329	0.03
827.629	0.03
827.929	0.03
828.229	0.04
828.529	0.03
828.829	0.04
829.129	0.03
829.429	0.04
829.729	0.04
830.029	0.03
830.328	0.04
830.628	0.03
830.927	0.02
831.227	0.03
831.526	0.03
831.826	0.03
832.125	0.03
832.424	0.03
832.724	0.03
833.023	0.03
833.322	0.03
833.621	0.03
833.92	0.02
834.219	0.03
834.518	0.03
834.816	0.02
835.115	0.03
835.414	0.02
835.712	0.02
836.011	0.01
836.309	0.02
836.608	0.01
836.906	0.01
837.205	0.01
837.503	0
837.801	0.01
838.099	-0
838.397	-0.01
838.695	-0.01
838.993	-0.01
839.291	-0.01
839.589	-0.01
839.887	-0.01
840.184	-0.02
840.482	-0.01
840.78	-0.01
841.077	-0.02
841.375	-0.01
841.672	-0.01
841.969	-0.01
842.267	-0.01
842.564	-0.01
842.861	-0
843.158	-0.02
843.455	-0.03
843.752	-0.02
844.049	-0.02
844.346	-0.01
844.643	-0.02
844.94	-0.02
845.236	-0.02
845.533	-0.02
845.83	-0.02
846.126	-0.02
846.423	-0.03
846.719	-0.03
847.015	-0.02
847.312	-0.03
847.608	-0.03
847.904	-0.04
848.2	-0.04
848.496	-0.04
848.792	-0.04
849.088	-0.03
849.384	-0.04
849.68	-0.05
849.975	-0.04
850.271	-0.05
850.567	-0.05
850.862	-0.06
851.158	-0.06
851.453	-0.05
851.748	-0.06
852.044	-0.05
852.339	-0.06
852.634	-0.08
852.929	-0.05
853.224	-0.06
853.519	-0.06
853.814	-0.06
854.109	-0.06
854.404	-0.07
854.699	-0.06
854.994	-0.06
855.288	-0.06
855.583	-0.06
855.877	-0.06
856.172	-0.06
856.466	-0.06
856.76	-0.06
857.055	-0.06
857.349	-0.07
857.643	-0.07
857.937	-0.08
858.231	-0.07
858.525	-0.08
858.819	-0.08
859.113	-0.1
859.407	-0.09
859.701	-0.09
859.994	-0.1
860.288	-0.09
860.581	-0.09
860.875	-0.09
861.168	-0.1
861.462	-0.1
861.755	-0.09
862.048	-0.11
862.341	-0.1
862.634	-0.1
862.928	-0.11
863.221	-0.11
863.513	-0.12
863.806	-0.1
864.099	-0.11
864.392	-0.11
864.685	-0.11
864.977	-0.11
865.27	-0.12
865.562	-0.11
865.855	-0.11
866.147	-0.12
866.44	-0.11
866.732	-0.12
867.024	-0.12
867.316	-0.12
867.608	-0.13
867.9	-0.12
868.192	-0.13
868.484	-0.12
868.776	-0.12
869.068	-0.13
869.359	-0.13
869.651	-0.13
869.943	-0.14
870.234	-0.15
870.526	-0.14
870.817	-0.14
871.108	-0.13
871.4	-0.13
871.691	-0.15
871.982	-0.15
872.273	-0.16
872.564	-0.15
872.855	-0.15
873.146	-0.15
873.437	-0.15
873.728	-0.16
874.019	-0.15
874.309	-0.16
874.6	-0.15
874.89	-0.15
875.181	-0.16
875.471	-0.15
875.762	-0.16
876.052	-0.15
876.342	-0.14
876.632	-0.15
876.922	-0.16
877.213	-0.16
877.503	-0.17
877.792	-0.17
878.082	-0.17
878.372	-0.16
878.662	-0.18
878.952	-0.17
879.241	-0.18
879.531	-0.16
879.82	-0.16
880.11	-0.17
880.399	-0.17
880.688	-0.15
880.978	-0.15
881.267	-0.15
