Data from 12-12-AQDScycling_Absorbance__328__00328.txt Node

Date: Tue Dec 12 12:18:44 EST 2023
User: kyuminlee
Spectrometer: FLMS00943
Trigger mode: 0
Integration Time (sec): 1.000000E-1
Scans to average: 1
Electric dark correction enabled: true
Nonlinearity correction enabled: false
Boxcar width: 0
XAxis mode: Wavelengths
Number of Pixels in Spectrum: 2048
>>>>>Begin Spectral Data<<<<<
179.651	-0
180.037	-0
180.424	-0
180.81	-0.23
181.197	0.4
181.583	-0
181.97	-0.27
182.356	-0
182.743	-0
183.129	-0
183.515	1.13
183.901	-2.81
184.288	-0
184.674	-0
185.06	-0.97
185.446	0.61
185.832	-1.28
186.218	0.48
186.604	1.03
186.99	-0
187.376	-0
187.762	-0.17
188.148	-0
188.534	-0.16
188.92	0.11
189.305	0.01
189.691	0.06
190.077	0.12
190.463	0.05
190.848	0.04
191.234	0.02
191.619	0.16
192.005	0.12
192.391	0.17
192.776	0.15
193.161	0.06
193.547	0.24
193.932	0.02
194.318	0.13
194.703	0.25
195.088	0.28
195.473	0.18
195.859	0.26
196.244	0.15
196.629	0.12
197.014	-0.06
197.399	0.12
197.784	0.03
198.169	0.11
198.554	0.2
198.939	0.13
199.324	0.08
199.709	0.08
200.094	0.09
200.478	0.21
200.863	0.27
201.248	0.12
201.633	0.1
202.017	0.08
202.402	0.13
202.787	0.14
203.171	0.08
203.556	0.23
203.94	0.1
204.325	0.23
204.709	0.15
205.093	0.13
205.478	0.08
205.862	0.16
206.246	0.13
206.631	0.2
207.015	0.18
207.399	0.17
207.783	0.14
208.167	0.13
208.551	0.18
208.935	0.2
209.319	0.25
209.703	0.04
210.087	0.17
210.471	0.11
210.855	0.1
211.239	0.37
211.623	0.22
212.007	0.24
212.39	0.27
212.774	0.23
213.158	0.18
213.541	0.32
213.925	0.28
214.309	0.27
214.692	0.34
215.076	0.3
215.459	0.29
215.842	0.34
216.226	0.19
216.609	0.29
216.993	0.27
217.376	0.34
217.759	0.17
218.142	0.33
218.525	0.41
218.909	0.24
219.292	0.24
219.675	0.33
220.058	0.39
220.441	0.55
220.824	0.5
221.207	0.57
221.59	0.43
221.973	0.56
222.355	0.61
222.738	0.78
223.121	0.62
223.504	0.52
223.886	0.64
224.269	0.61
224.652	0.53
225.034	0.69
225.417	0.68
225.799	0.73
226.182	0.78
226.564	0.81
226.947	0.8
227.329	0.87
227.711	0.93
228.094	0.99
228.476	0.81
228.858	0.87
229.24	0.75
229.623	0.78
230.005	0.88
230.387	0.92
230.769	0.78
231.151	0.85
231.533	0.9
231.915	0.9
232.297	1.01
232.679	0.93
233.061	0.88
233.442	1.01
233.824	1.01
234.206	1.05
234.588	1.13
234.969	1.09
235.351	0.96
235.733	1.08
236.114	1.3
236.496	1.17
236.877	1.14
237.259	1.08
237.64	1.01
238.022	1.05
238.403	1.02
238.784	1.03
239.165	0.95
239.547	1.18
239.928	1.27
240.309	1.05
240.69	1.04
241.071	1.07
241.452	1.16
241.834	0.96
242.215	0.97
242.595	1.01
242.976	1.03
243.357	1.13
243.738	1.03
244.119	1.16
244.5	1.18
244.881	1.33
245.261	1.17
245.642	1.15
246.023	1.11
246.403	1.27
246.784	1.3
247.164	1.36
247.545	1.25
247.925	1.22
248.306	1.26
248.686	1.4
249.067	1.34
249.447	1.53
249.827	1.56
250.207	1.36
250.588	1.26
250.968	1.37
251.348	1.3
251.728	1.35
252.108	1.29
252.488	1.36
252.868	1.27
253.248	1.27
253.628	1.46
254.008	1.4
254.388	1.27
254.768	1.42
255.147	1.36
255.527	1.41
255.907	1.25
256.287	1.34
256.666	1.33
257.046	1.62
257.425	1.41
257.805	1.39
258.184	1.31
258.564	1.52
258.943	1.39
259.323	1.52
259.702	1.59
260.081	1.44
260.461	1.4
260.84	1.48
261.219	1.55
261.598	1.58
261.977	1.54
262.356	1.47
262.736	1.58
263.115	1.81
263.494	1.42
263.873	1.49
264.251	1.32
264.63	1.45
265.009	1.42
265.388	1.39
265.767	1.44
266.145	1.47
266.524	1.37
266.903	1.53
267.281	1.37
267.66	1.51
268.039	1.51
268.417	1.44
268.796	1.33
269.174	1.43
269.552	1.39
269.931	1.43
270.309	1.35
270.687	1.62
271.066	1.45
271.444	1.38
271.822	1.6
272.2	1.33
272.578	1.39
272.956	1.37
273.334	1.35
273.712	1.49
274.09	1.37
274.468	1.4
274.846	1.33
275.224	1.44
275.602	1.41
275.98	1.54
276.357	1.37
276.735	1.53
277.113	1.4
277.49	1.3
277.868	1.24
278.246	1.62
278.623	1.3
279.001	1.28
279.378	1.39
279.756	1.48
280.133	1.46
280.51	1.39
280.888	1.42
281.265	1.46
281.642	1.52
282.019	1.5
282.396	1.71
282.773	1.37
283.151	1.54
283.528	1.47
283.905	1.4
284.282	1.49
284.659	1.49
285.035	1.31
285.412	1.39
285.789	1.45
286.166	1.44
286.543	1.59
286.919	1.56
287.296	1.38
287.673	1.58
288.049	1.46
288.426	1.44
288.802	1.48
289.179	1.53
289.555	1.63
289.932	1.61
290.308	1.31
290.684	1.37
291.061	1.33
291.437	1.45
291.813	1.34
292.189	1.27
292.565	1.4
292.942	1.32
293.318	1.33
293.694	1.33
294.07	1.35
294.446	1.38
294.822	1.48
295.197	1.45
295.573	1.46
295.949	1.59
296.325	1.53
296.701	1.6
297.076	1.4
297.452	1.55
297.828	1.33
298.203	1.55
298.579	1.3
298.954	1.38
299.33	1.29
299.705	1.32
300.081	1.39
300.456	1.32
300.831	1.27
301.206	1.24
301.582	1.38
301.957	1.21
302.332	1.31
302.707	1.21
303.082	1.2
303.457	1.19
303.832	1.18
304.207	1.15
304.582	1.08
304.957	1.14
305.332	1.12
305.707	1.1
306.082	1.06
306.456	1.14
306.831	1.05
307.206	1.03
307.58	1.02
307.955	0.97
308.33	1
308.704	0.98
309.079	0.95
309.453	0.97
309.828	0.96
310.202	0.94
310.576	0.91
310.951	0.89
311.325	0.87
311.699	0.85
312.073	0.84
312.447	0.84
312.821	0.86
313.196	0.85
313.57	0.83
313.944	0.81
314.317	0.78
314.691	0.82
315.065	0.84
315.439	0.83
315.813	0.81
316.187	0.78
316.56	0.79
316.934	0.78
317.308	0.74
317.681	0.78
318.055	0.77
318.428	0.75
318.802	0.77
319.175	0.75
319.549	0.76
319.922	0.72
320.295	0.73
320.669	0.77
321.042	0.73
321.415	0.78
321.788	0.75
322.162	0.72
322.535	0.74
322.908	0.73
323.281	0.7
323.654	0.75
324.027	0.71
324.4	0.72
324.773	0.74
325.145	0.73
325.518	0.71
325.891	0.72
326.264	0.76
326.636	0.72
327.009	0.74
327.382	0.73
327.754	0.76
328.127	0.72
328.499	0.76
328.872	0.75
329.244	0.76
329.616	0.76
329.989	0.76
330.361	0.75
330.733	0.75
331.106	0.75
331.478	0.82
331.85	0.79
332.222	0.78
332.594	0.8
332.966	0.83
333.338	0.81
333.71	0.81
334.082	0.86
334.454	0.83
334.826	0.85
335.197	0.83
335.569	0.86
335.941	0.85
336.312	0.85
336.684	0.88
337.056	0.9
337.427	0.9
337.799	0.9
338.17	0.96
338.542	0.9
338.913	0.95
339.284	0.93
339.656	0.93
340.027	0.93
340.398	0.98
340.769	0.96
341.141	0.97
341.512	1.02
341.883	1
342.254	0.98
342.625	1
342.996	0.99
343.367	1
343.738	1.05
344.108	1.01
344.479	1.09
344.85	0.98
345.221	1.09
345.591	1.05
345.962	1.11
346.333	1.11
346.703	1.05
347.074	1.13
347.444	1.1
347.815	1.14
348.185	1.1
348.556	1.22
348.926	1.14
349.296	1.16
349.666	1.18
350.037	1.18
350.407	1.11
350.777	1.19
351.147	1.23
351.517	1.32
351.887	1.27
352.257	1.2
352.627	1.19
352.997	1.18
353.367	1.36
353.737	1.35
354.106	1.36
354.476	1.28
354.846	1.3
355.216	1.37
355.585	1.45
355.955	1.41
356.324	1.42
356.694	1.37
357.063	1.36
357.433	1.39
357.802	1.42
358.171	1.5
358.541	1.39
358.91	1.42
359.279	1.57
359.648	1.55
360.017	1.57
360.387	1.69
360.756	1.37
361.125	1.48
361.494	1.68
361.863	1.42
362.231	1.55
362.6	1.53
362.969	1.54
363.338	1.52
363.707	1.59
364.075	1.76
364.444	1.39
364.813	1.55
365.181	1.59
365.55	1.52
365.918	1.62
366.287	1.53
366.655	1.62
367.024	1.7
367.392	1.62
367.76	1.58
368.128	1.63
368.497	1.61
368.865	1.52
369.233	1.55
369.601	1.64
369.969	1.62
370.337	1.53
370.705	1.52
371.073	1.53
371.441	1.6
371.809	1.46
372.177	1.6
372.544	1.57
372.912	1.56
373.28	1.47
373.647	1.59
374.015	1.55
374.383	1.89
374.75	1.71
375.118	1.57
375.485	1.67
375.853	1.69
376.22	1.61
376.587	1.51
376.955	1.75
377.322	1.67
377.689	1.48
378.056	1.59
378.423	1.54
378.79	1.64
379.157	1.65
379.524	1.53
379.891	1.61
380.258	1.71
380.625	1.53
380.992	1.45
381.359	1.6
381.726	1.67
382.092	1.49
382.459	1.59
382.826	1.62
383.192	1.53
383.559	1.72
383.925	1.52
384.292	1.56
384.658	1.69
385.025	1.51
385.391	1.74
385.757	1.69
386.123	1.54
386.49	1.56
386.856	1.71
387.222	1.6
387.588	1.58
387.954	1.72
388.32	1.71
388.686	1.63
389.052	1.57
389.418	1.65
389.784	1.55
390.15	1.67
390.515	1.37
390.881	1.71
391.247	1.49
391.613	1.66
391.978	1.52
392.344	1.64
392.709	1.49
393.075	1.51
393.44	1.6
393.806	1.56
394.171	1.41
394.536	1.55
394.902	1.66
395.267	1.58
395.632	1.44
395.997	1.63
396.362	1.48
396.727	1.51
397.092	1.49
397.457	1.62
397.822	1.48
398.187	1.59
398.552	1.55
398.917	1.65
399.282	1.46
399.646	1.62
400.011	1.57
400.376	1.46
400.74	1.42
401.105	1.46
401.47	1.58
401.834	1.52
402.199	1.48
402.563	1.63
402.927	1.52
403.292	1.73
403.656	1.61
404.02	1.61
404.384	1.72
404.749	1.64
405.113	1.71
405.477	1.77
405.841	1.86
406.205	1.58
406.569	1.44
406.933	1.43
407.296	1.54
407.66	1.52
408.024	1.56
408.388	1.57
408.752	1.57
409.115	1.74
409.479	1.62
409.842	1.63
410.206	1.4
410.569	1.61
410.933	1.55
411.296	1.48
411.66	1.72
412.023	1.52
412.386	1.61
412.749	1.52
413.113	1.49
413.476	1.47
413.839	1.5
414.202	1.69
414.565	1.41
414.928	1.44
415.291	1.52
415.654	1.55
416.017	1.56
416.38	1.53
416.742	1.44
417.105	1.47
417.468	1.43
417.83	1.55
418.193	1.58
418.556	1.37
418.918	1.49
419.281	1.63
419.643	1.5
420.005	1.68
420.368	1.57
420.73	1.44
421.092	1.64
421.455	1.82
421.817	1.39
422.179	1.46
422.541	1.61
422.903	1.58
423.265	1.73
423.627	1.57
423.989	1.55
424.351	1.41
424.713	1.56
425.075	1.6
425.436	1.53
425.798	1.73
426.16	1.6
426.521	1.64
426.883	1.63
427.245	1.55
427.606	1.51
427.967	1.45
428.329	1.62
428.69	1.6
429.052	1.41
429.413	1.53
429.774	1.72
430.135	1.56
430.497	1.57
430.858	1.5
431.219	1.49
431.58	1.46
431.941	1.5
432.302	1.48
432.663	1.68
433.024	1.58
433.384	1.48
433.745	1.47
434.106	1.75
434.467	1.44
434.827	1.52
435.188	1.48
435.548	1.62
435.909	1.51
436.269	1.53
436.63	1.47
436.99	1.54
437.351	1.43
437.711	1.51
438.071	1.46
438.431	1.51
438.792	1.44
439.152	1.47
439.512	1.47
439.872	1.45
440.232	1.57
440.592	1.5
440.952	1.5
441.312	1.5
441.671	1.46
442.031	1.49
442.391	1.44
442.751	1.44
443.11	1.49
443.47	1.43
443.83	1.4
444.189	1.4
444.549	1.37
444.908	1.41
445.267	1.38
445.627	1.39
445.986	1.4
446.345	1.31
446.705	1.39
447.064	1.43
447.423	1.35
447.782	1.39
448.141	1.31
448.5	1.27
448.859	1.31
449.218	1.36
449.577	1.33
449.936	1.31
450.295	1.35
450.653	1.33
451.012	1.26
451.371	1.29
451.729	1.3
452.088	1.33
452.447	1.25
452.805	1.28
453.163	1.25
453.522	1.23
453.88	1.24
454.239	1.25
454.597	1.21
454.955	1.18
455.313	1.2
455.671	1.16
456.029	1.19
456.388	1.15
456.746	1.13
457.104	1.11
457.461	1.11
457.819	1.11
458.177	1.1
458.535	1.07
458.893	1.06
459.25	1.06
459.608	1.05
459.966	1.02
460.323	1.02
460.681	1
461.038	0.98
461.396	0.97
461.753	0.96
462.111	0.95
462.468	0.93
462.825	0.92
463.182	0.9
463.54	0.89
463.897	0.89
464.254	0.88
464.611	0.87
464.968	0.84
465.325	0.87
465.682	0.83
466.039	0.81
466.395	0.79
466.752	0.8
467.109	0.77
467.466	0.76
467.822	0.75
468.179	0.74
468.535	0.73
468.892	0.71
469.248	0.69
469.605	0.69
469.961	0.68
470.318	0.69
470.674	0.67
471.03	0.66
471.386	0.65
471.743	0.63
472.099	0.62
472.455	0.61
472.811	0.6
473.167	0.57
473.523	0.57
473.879	0.57
474.235	0.57
474.59	0.55
474.946	0.53
475.302	0.52
475.657	0.51
476.013	0.51
476.369	0.49
476.724	0.5
477.08	0.48
477.435	0.47
477.791	0.47
478.146	0.45
478.501	0.45
478.857	0.44
479.212	0.43
479.567	0.42
479.922	0.42
480.277	0.4
480.632	0.4
480.987	0.4
481.342	0.38
481.697	0.37
482.052	0.37
482.407	0.36
482.762	0.36
483.116	0.34
483.471	0.34
483.826	0.33
484.18	0.33
484.535	0.31
484.89	0.31
485.244	0.31
485.598	0.31
485.953	0.3
486.307	0.29
486.661	0.29
487.016	0.28
487.37	0.28
487.724	0.27
488.078	0.27
488.432	0.26
488.786	0.26
489.14	0.25
489.494	0.24
489.848	0.24
490.202	0.24
490.556	0.23
490.91	0.23
491.263	0.22
491.617	0.22
491.971	0.22
492.324	0.21
492.678	0.22
493.031	0.21
493.385	0.2
493.738	0.19
494.091	0.2
494.445	0.19
494.798	0.19
495.151	0.19
495.504	0.18
495.857	0.18
496.21	0.18
496.564	0.17
496.916	0.17
497.269	0.16
497.622	0.17
497.975	0.16
498.328	0.16
498.681	0.16
499.033	0.16
499.386	0.15
499.739	0.15
500.091	0.14
500.444	0.15
500.796	0.14
501.149	0.13
501.501	0.14
501.854	0.13
502.206	0.13
502.558	0.13
502.91	0.13
503.263	0.12
503.615	0.13
503.967	0.13
504.319	0.12
504.671	0.12
505.023	0.12
505.375	0.11
505.726	0.11
506.078	0.11
506.43	0.11
506.782	0.11
507.133	0.11
507.485	0.11
507.837	0.11
508.188	0.11
508.54	0.11
508.891	0.11
509.243	0.1
509.594	0.11
509.945	0.1
510.296	0.1
510.648	0.11
510.999	0.09
511.35	0.1
511.701	0.1
512.052	0.1
512.403	0.09
512.754	0.09
513.105	0.09
513.456	0.09
513.807	0.09
514.157	0.09
514.508	0.09
514.859	0.09
515.209	0.08
515.56	0.09
515.91	0.08
516.261	0.09
516.611	0.08
516.962	0.09
517.312	0.08
517.662	0.08
518.013	0.08
518.363	0.08
518.713	0.08
519.063	0.08
519.413	0.08
519.763	0.08
520.113	0.08
520.463	0.08
520.813	0.08
521.163	0.08
521.512	0.08
521.862	0.08
522.212	0.08
522.562	0.08
522.911	0.08
523.261	0.08
523.61	0.08
523.96	0.08
524.309	0.09
524.658	0.08
525.008	0.08
525.357	0.07
525.706	0.08
526.056	0.08
526.405	0.08
526.754	0.08
527.103	0.07
527.452	0.07
527.801	0.08
528.15	0.07
528.499	0.07
528.847	0.07
529.196	0.08
529.545	0.08
529.893	0.08
530.242	0.07
530.591	0.08
530.939	0.08
531.288	0.08
531.636	0.09
531.985	0.08
532.333	0.07
532.681	0.08
533.029	0.08
533.378	0.07
533.726	0.08
534.074	0.08
534.422	0.08
534.77	0.09
535.118	0.08
535.466	0.07
535.814	0.07
536.162	0.07
536.509	0.08
536.857	0.08
537.205	0.08
537.552	0.08
537.9	0.08
538.248	0.08
538.595	0.08
538.943	0.08
539.29	0.08
539.637	0.08
539.985	0.08
540.332	0.08
540.679	0.07
541.026	0.07
541.373	0.07
541.721	0.06
542.068	0.07
542.415	0.07
542.762	0.06
543.108	0.06
543.455	0.06
543.802	0.06
544.149	0.06
544.496	0.07
544.842	0.07
545.189	0.06
545.535	0.06
545.882	0.06
546.228	0.06
546.575	0.06
546.921	0.05
547.267	0.06
547.614	0.06
547.96	0.06
548.306	0.06
548.652	0.06
548.998	0.07
549.344	0.06
549.69	0.06
550.036	0.06
550.382	0.06
550.728	0.06
551.074	0.07
551.42	0.06
551.765	0.06
552.111	0.06
552.457	0.07
552.802	0.07
553.148	0.06
553.493	0.06
553.839	0.06
554.184	0.07
554.529	0.05
554.875	0.07
555.22	0.07
555.565	0.07
555.91	0.06
556.255	0.08
556.6	0.07
556.945	0.06
557.29	0.06
557.635	0.07
557.98	0.07
558.325	0.07
558.67	0.07
559.014	0.06
559.359	0.07
559.704	0.07
560.048	0.06
560.393	0.07
560.737	0.06
561.082	0.06
561.426	0.06
561.77	0.06
562.115	0.05
562.459	0.06
562.803	0.06
563.147	0.06
563.491	0.07
563.835	0.06
564.179	0.06
564.523	0.06
564.867	0.06
565.211	0.06
565.555	0.06
565.899	0.07
566.242	0.06
566.586	0.06
566.93	0.06
567.273	0.06
567.617	0.07
567.96	0.07
568.304	0.06
568.647	0.06
568.99	0.06
569.334	0.07
569.677	0.07
570.02	0.07
570.363	0.07
570.706	0.07
571.049	0.06
571.392	0.07
571.735	0.06
572.078	0.06
572.421	0.07
572.764	0.06
573.106	0.06
573.449	0.06
573.792	0.06
574.134	0.06
574.477	0.06
574.819	0.06
575.162	0.06
575.504	0.06
575.847	0.06
576.189	0.07
576.531	0.06
576.873	0.06
577.215	0.07
577.558	0.07
577.9	0.06
578.242	0.06
578.584	0.07
578.926	0.06
579.267	0.07
579.609	0.06
579.951	0.06
580.293	0.06
580.634	0.06
580.976	0.07
581.318	0.06
581.659	0.06
582.001	0.07
582.342	0.06
582.683	0.07
583.025	0.05
583.366	0.06
583.707	0.06
584.049	0.06
584.39	0.06
584.731	0.06
585.072	0.06
585.413	0.07
585.754	0.06
586.095	0.06
586.435	0.06
586.776	0.07
587.117	0.06
587.458	0.06
587.798	0.06
588.139	0.06
588.48	0.06
588.82	0.06
589.161	0.06
589.501	0.06
589.841	0.06
590.182	0.06
590.522	0.05
590.862	0.06
591.202	0.05
591.542	0.06
591.882	0.06
592.222	0.05
592.562	0.06
592.902	0.05
593.242	0.05
593.582	0.06
593.922	0.06
594.261	0.06
594.601	0.05
594.941	0.06
595.28	0.06
595.62	0.06
595.959	0.06
596.299	0.06
596.638	0.06
596.977	0.06
597.317	0.06
597.656	0.06
597.995	0.06
598.334	0.06
598.673	0.06
599.012	0.06
599.351	0.06
599.69	0.05
600.029	0.06
600.368	0.06
600.707	0.06
601.046	0.06
601.384	0.07
601.723	0.06
602.061	0.06
602.4	0.06
602.738	0.06
603.077	0.06
603.415	0.06
603.754	0.06
604.092	0.06
604.43	0.06
604.768	0.06
605.107	0.06
605.445	0.06
605.783	0.06
606.121	0.06
606.459	0.06
606.796	0.06
607.134	0.05
607.472	0.05
607.81	0.06
608.148	0.05
608.485	0.06
608.823	0.06
609.16	0.06
609.498	0.05
609.835	0.06
610.173	0.05
610.51	0.06
610.847	0.06
611.185	0.07
611.522	0.06
611.859	0.06
612.196	0.07
612.533	0.07
612.87	0.07
613.207	0.07
613.544	0.06
613.881	0.07
614.217	0.07
614.554	0.07
614.891	0.06
615.228	0.07
615.564	0.07
615.901	0.07
616.237	0.07
616.574	0.07
616.91	0.07
617.246	0.07
617.583	0.07
617.919	0.07
618.255	0.07
618.591	0.07
618.927	0.07
619.263	0.07
619.599	0.08
619.935	0.08
620.271	0.07
620.607	0.07
620.943	0.07
621.279	0.07
621.614	0.07
621.95	0.07
622.286	0.07
622.621	0.06
622.957	0.06
623.292	0.06
623.627	0.06
623.963	0.06
624.298	0.06
624.633	0.06
624.968	0.06
625.304	0.06
625.639	0.06
625.974	0.05
626.309	0.05
626.644	0.06
626.979	0.06
627.313	0.06
627.648	0.06
627.983	0.06
628.318	0.05
628.652	0.05
628.987	0.05
629.321	0.05
629.656	0.05
629.99	0.05
630.325	0.06
630.659	0.06
630.993	0.05
631.327	0.06
631.662	0.05
631.996	0.05
632.33	0.05
632.664	0.06
632.998	0.05
633.332	0.05
633.666	0.05
633.999	0.06
634.333	0.05
634.667	0.05
635.001	0.04
635.334	0.05
635.668	0.05
636.001	0.05
636.335	0.06
636.668	0.05
637.001	0.05
637.335	0.05
637.668	0.05
638.001	0.05
638.334	0.05
638.668	0.04
639.001	0.05
639.334	0.04
639.667	0.04
639.999	0.04
640.332	0.04
640.665	0.04
640.998	0.05
641.331	0.05
641.663	0.04
641.996	0.05
642.328	0.05
642.661	0.05
642.993	0.04
643.326	0.05
643.658	0.04
643.99	0.04
644.323	0.04
644.655	0.05
644.987	0.05
645.319	0.05
645.651	0.05
645.983	0.04
646.315	0.05
646.647	0.05
646.979	0.05
647.31	0.05
647.642	0.04
647.974	0.05
648.305	0.06
648.637	0.05
648.968	0.05
649.3	0.05
649.631	0.06
649.963	0.06
650.294	0.06
650.625	0.05
650.957	0.06
651.288	0.06
651.619	0.05
651.95	0.06
652.281	0.06
652.612	0.05
652.943	0.06
653.274	0.06
653.604	0.06
653.935	0.06
654.266	0.06
654.596	0.06
654.927	0.05
655.258	0.06
655.588	0.06
655.918	0.06
656.249	0.04
656.579	0.05
656.909	0.06
657.24	0.05
657.57	0.06
657.9	0.06
658.23	0.06
658.56	0.06
658.89	0.06
659.22	0.06
659.55	0.06
659.88	0.06
660.209	0.06
660.539	0.07
660.869	0.07
661.198	0.06
661.528	0.07
661.857	0.06
662.187	0.07
662.516	0.06
662.846	0.06
663.175	0.06
663.504	0.06
663.833	0.06
664.163	0.06
664.492	0.06
664.821	0.06
665.15	0.06
665.479	0.06
665.807	0.05
666.136	0.05
666.465	0.05
666.794	0.05
667.122	0.06
667.451	0.05
667.78	0.06
668.108	0.06
668.437	0.05
668.765	0.05
669.093	0.05
669.422	0.05
669.75	0.05
670.078	0.06
670.406	0.06
670.734	0.06
671.062	0.06
671.39	0.06
671.718	0.06
672.046	0.06
672.374	0.06
672.702	0.06
673.029	0.05
673.357	0.06
673.685	0.06
674.012	0.06
674.34	0.06
674.667	0.06
674.995	0.06
675.322	0.06
675.649	0.06
675.977	0.06
676.304	0.06
676.631	0.06
676.958	0.06
677.285	0.06
677.612	0.06
677.939	0.06
678.266	0.06
678.593	0.06
678.92	0.06
679.246	0.05
679.573	0.05
679.9	0.06
680.226	0.06
680.553	0.05
680.879	0.05
681.206	0.05
681.532	0.05
681.858	0.06
682.184	0.05
682.511	0.06
682.837	0.05
683.163	0.05
683.489	0.05
683.815	0.05
684.141	0.05
684.467	0.05
684.793	0.05
685.118	0.05
685.444	0.05
685.77	0.04
686.095	0.05
686.421	0.05
686.746	0.05
687.072	0.06
687.397	0.05
687.723	0.06
688.048	0.06
688.373	0.06
688.698	0.06
689.023	0.05
689.349	0.05
689.674	0.06
689.999	0.05
690.323	0.05
690.648	0.04
690.973	0.05
691.298	0.05
691.623	0.06
691.947	0.05
692.272	0.05
692.596	0.05
692.921	0.05
693.245	0.05
693.57	0.05
693.894	0.06
694.218	0.05
694.543	0.05
694.867	0.05
695.191	0.05
695.515	0.05
695.839	0.05
696.163	0.05
696.487	0.05
696.811	0.04
697.135	0.05
697.458	0.05
697.782	0.05
698.106	0.05
698.429	0.05
698.753	0.05
699.076	0.05
699.4	0.05
699.723	0.04
700.046	0.04
700.37	0.05
700.693	0.05
701.016	0.05
701.339	0.05
701.662	0.06
701.985	0.05
702.308	0.05
702.631	0.05
702.954	0.05
703.277	0.05
703.599	0.05
703.922	0.04
704.245	0.04
704.567	0.04
704.89	0.04
705.212	0.05
705.535	0.04
705.857	0.04
706.179	0.04
706.502	0.04
706.824	0.03
707.146	0.03
707.468	0.04
707.79	0.05
708.112	0.04
708.434	0.04
708.756	0.04
709.078	0.05
709.399	0.04
709.721	0.04
710.043	0.05
710.364	0.05
710.686	0.05
711.007	0.04
711.329	0.05
711.65	0.05
711.972	0.04
712.293	0.05
712.614	0.05
712.935	0.05
713.256	0.05
713.577	0.05
713.898	0.04
714.219	0.04
714.54	0.05
714.861	0.04
715.182	0.04
715.503	0.04
715.823	0.04
716.144	0.04
716.464	0.04
716.785	0.04
717.105	0.04
717.426	0.04
717.746	0.04
718.066	0.04
718.387	0.04
718.707	0.03
719.027	0.03
719.347	0.02
719.667	0.03
719.987	0.03
720.307	0.03
720.627	0.03
720.947	0.04
721.266	0.04
721.586	0.03
721.906	0.03
722.225	0.03
722.545	0.03
722.864	0.03
723.184	0.03
723.503	0.03
723.823	0.03
724.142	0.03
724.461	0.03
724.78	0.03
725.099	0.03
725.418	0.03
725.737	0.03
726.056	0.03
726.375	0.04
726.694	0.04
727.013	0.04
727.331	0.03
727.65	0.03
727.969	0.03
728.287	0.03
728.606	0.04
728.924	0.04
729.242	0.03
729.561	0.04
729.879	0.04
730.197	0.04
730.515	0.03
730.834	0.03
731.152	0.03
731.47	0.03
731.788	0.03
732.105	0.03
732.423	0.03
732.741	0.03
733.059	0.03
733.376	0.04
733.694	0.03
734.012	0.03
734.329	0.04
734.647	0.03
734.964	0.04
735.281	0.04
735.599	0.04
735.916	0.04
736.233	0.03
736.55	0.03
736.867	0.04
737.184	0.04
737.501	0.03
737.818	0.04
738.135	0.04
738.452	0.03
738.768	0.03
739.085	0.04
739.402	0.02
739.718	0.04
740.035	0.04
740.351	0.04
740.668	0.04
740.984	0.03
741.3	0.04
741.617	0.05
741.933	0.03
742.249	0.04
742.565	0.04
742.881	0.04
743.197	0.04
743.513	0.03
743.829	0.04
744.144	0.03
744.46	0.03
744.776	0.04
745.091	0.03
745.407	0.03
745.722	0.03
746.038	0.03
746.353	0.03
746.669	0.03
746.984	0.03
747.299	0.03
747.614	0.04
747.93	0.04
748.245	0.03
748.56	0.03
748.875	0.03
749.189	0.04
749.504	0.04
749.819	0.04
750.134	0.04
750.448	0.05
750.763	0.04
751.078	0.03
751.392	0.04
751.707	0.05
752.021	0.04
752.335	0.05
752.65	0.05
752.964	0.04
753.278	0.04
753.592	0.03
753.906	0.04
754.22	0.04
754.534	0.04
754.848	0.04
755.162	0.04
755.476	0.05
755.789	0.04
756.103	0.04
756.417	0.04
756.73	0.05
757.044	0.05
757.357	0.04
757.671	0.05
757.984	0.04
758.297	0.04
758.61	0.05
758.924	0.04
759.237	0.04
759.55	0.05
759.863	0.04
760.176	0.05
760.488	0.04
760.801	0.05
761.114	0.04
761.427	0.03
761.739	0.04
762.052	0.04
762.365	0.04
762.677	0.04
762.99	0.03
763.302	0.04
763.614	0.03
763.926	0.05
764.239	0.04
764.551	0.03
764.863	0.04
765.175	0.04
765.487	0.04
765.799	0.03
766.111	0.03
766.423	0.04
766.734	0.04
767.046	0.03
767.358	0.04
767.669	0.04
767.981	0.04
768.292	0.04
768.604	0.04
768.915	0.03
769.226	0.03
769.537	0.02
769.849	0.03
770.16	0.04
770.471	0.04
770.782	0.03
771.093	0.03
771.404	0.02
771.715	0.02
772.025	0.03
772.336	0.03
772.647	0.02
772.957	0.03
773.268	0.03
773.578	0.03
773.889	0.03
774.199	0.04
774.51	0.03
774.82	0.03
775.13	0.03
775.44	0.03
775.75	0.03
776.06	0.04
776.37	0.03
776.68	0.04
776.99	0.03
777.3	0.03
777.61	0.04
777.92	0.04
778.229	0.03
778.539	0.04
778.848	0.03
779.158	0.04
779.467	0.04
779.777	0.03
780.086	0.04
780.395	0.03
780.704	0.03
781.013	0.03
781.323	0.03
781.632	0.04
781.941	0.04
782.249	0.04
782.558	0.03
782.867	0.04
783.176	0.03
783.485	0.03
783.793	0.03
784.102	0.03
784.41	0.03
784.719	0.03
785.027	0.03
785.335	0.03
785.644	0.03
785.952	0.03
786.26	0.04
786.568	0.03
786.876	0.03
787.184	0.03
787.492	0.03
787.8	0.03
788.108	0.03
788.416	0.03
788.723	0.03
789.031	0.02
789.338	0.03
789.646	0.03
789.953	0.04
790.261	0.04
790.568	0.04
790.876	0.03
791.183	0.03
791.49	0.03
791.797	0.04
792.104	0.02
792.411	0.04
792.718	0.03
793.025	0.04
793.332	0.03
793.639	0.04
793.945	0.05
794.252	0.04
794.559	0.04
794.865	0.04
795.172	0.04
795.478	0.04
795.784	0.04
796.091	0.05
796.397	0.05
796.703	0.04
797.009	0.05
797.315	0.05
797.622	0.05
797.927	0.04
798.233	0.04
798.539	0.05
798.845	0.05
799.151	0.05
799.456	0.05
799.762	0.04
800.068	0.04
800.373	0.05
800.679	0.04
800.984	0.04
801.289	0.04
801.595	0.04
801.9	0.04
802.205	0.04
802.51	0.04
802.815	0.04
803.12	0.04
803.425	0.04
803.73	0.04
804.035	0.04
804.339	0.04
804.644	0.03
804.949	0.04
805.253	0.04
805.558	0.05
805.862	0.04
806.167	0.04
806.471	0.03
806.775	0.05
807.08	0.04
807.384	0.04
807.688	0.04
807.992	0.05
808.296	0.04
808.6	0.04
808.904	0.05
809.207	0.04
809.511	0.05
809.815	0.05
810.119	0.04
810.422	0.06
810.726	0.06
811.029	0.05
811.332	0.05
811.636	0.06
811.939	0.04
812.242	0.06
812.546	0.05
812.849	0.05
813.152	0.05
813.455	0.05
813.758	0.06
814.06	0.05
814.363	0.05
814.666	0.05
814.969	0.05
815.271	0.05
815.574	0.04
815.877	0.04
816.179	0.04
816.481	0.05
816.784	0.04
817.086	0.04
817.388	0.03
817.69	0.03
817.993	0.03
818.295	0.04
818.597	0.04
818.899	0.03
819.2	0.03
819.502	0.04
819.804	0.04
820.106	0.03
820.407	0.03
820.709	0.04
821.01	0.03
821.312	0.04
821.613	0.03
821.915	0.03
822.216	0.03
822.517	0.03
822.818	0.03
823.119	0.03
823.42	0.03
823.721	0.03
824.022	0.03
824.323	0.03
824.624	0.03
824.925	0.03
825.226	0.04
825.526	0.03
825.827	0.03
826.127	0.04
826.428	0.04
826.728	0.02
827.028	0.02
827.329	0.03
827.629	0.03
827.929	0.03
828.229	0.04
828.529	0.04
828.829	0.03
829.129	0.03
829.429	0.03
829.729	0.03
830.029	0.02
830.328	0.03
830.628	0.01
830.927	0.02
831.227	0.02
831.526	0.02
831.826	0.02
832.125	0.03
832.424	0.01
832.724	0.03
833.023	0.02
833.322	0.02
833.621	0.02
833.92	0.01
834.219	0.01
834.518	0.02
834.816	0.01
835.115	0.01
835.414	0.02
835.712	0.01
836.011	0.01
836.309	0.01
836.608	0.01
836.906	0.01
837.205	0
837.503	0.01
837.801	0
838.099	0
838.397	-0.01
838.695	0
838.993	-0
839.291	-0
839.589	0
839.887	-0.01
840.184	-0.01
840.482	-0.01
840.78	-0
841.077	-0.01
841.375	-0.02
841.672	-0.01
841.969	-0.02
842.267	-0.02
842.564	-0.02
842.861	-0.01
843.158	-0.03
843.455	-0.04
843.752	-0.03
844.049	-0.03
844.346	-0.03
844.643	-0.04
844.94	-0.04
845.236	-0.03
845.533	-0.03
845.83	-0.04
846.126	-0.04
846.423	-0.04
846.719	-0.06
847.015	-0.05
847.312	-0.05
847.608	-0.05
847.904	-0.05
848.2	-0.06
848.496	-0.06
848.792	-0.05
849.088	-0.05
849.384	-0.06
849.68	-0.06
849.975	-0.06
850.271	-0.06
850.567	-0.06
850.862	-0.07
851.158	-0.07
851.453	-0.06
851.748	-0.08
852.044	-0.07
852.339	-0.07
852.634	-0.08
852.929	-0.07
853.224	-0.08
853.519	-0.08
853.814	-0.07
854.109	-0.08
854.404	-0.08
854.699	-0.08
854.994	-0.07
855.288	-0.08
855.583	-0.07
855.877	-0.08
856.172	-0.08
856.466	-0.08
856.76	-0.09
857.055	-0.08
857.349	-0.1
857.643	-0.09
857.937	-0.1
858.231	-0.1
858.525	-0.1
858.819	-0.1
859.113	-0.11
859.407	-0.11
859.701	-0.11
859.994	-0.11
860.288	-0.1
860.581	-0.11
860.875	-0.1
861.168	-0.1
861.462	-0.11
861.755	-0.1
862.048	-0.12
862.341	-0.11
862.634	-0.12
862.928	-0.1
863.221	-0.12
863.513	-0.11
863.806	-0.12
864.099	-0.12
864.392	-0.12
864.685	-0.11
864.977	-0.12
865.27	-0.12
865.562	-0.12
865.855	-0.12
866.147	-0.13
866.44	-0.12
866.732	-0.13
867.024	-0.13
867.316	-0.13
867.608	-0.12
867.9	-0.14
868.192	-0.14
868.484	-0.14
868.776	-0.14
869.068	-0.14
869.359	-0.14
869.651	-0.14
869.943	-0.16
870.234	-0.16
870.526	-0.16
870.817	-0.15
871.108	-0.14
871.4	-0.15
871.691	-0.16
871.982	-0.16
872.273	-0.18
872.564	-0.17
872.855	-0.17
873.146	-0.17
873.437	-0.18
873.728	-0.18
874.019	-0.18
874.309	-0.18
874.6	-0.17
874.89	-0.17
875.181	-0.18
875.471	-0.16
875.762	-0.17
876.052	-0.17
876.342	-0.16
876.632	-0.17
876.922	-0.18
877.213	-0.17
877.503	-0.19
877.792	-0.16
878.082	-0.18
878.372	-0.17
878.662	-0.18
878.952	-0.18
879.241	-0.17
879.531	-0.18
879.82	-0.18
880.11	-0.18
880.399	-0.18
880.688	-0.17
880.978	-0.17
881.267	-0.17
