Data from 12-12-AQDScycling_Absorbance__92__00092.txt Node

Date: Tue Dec 12 11:19:44 EST 2023
User: kyuminlee
Spectrometer: FLMS00943
Trigger mode: 0
Integration Time (sec): 1.000000E-1
Scans to average: 1
Electric dark correction enabled: true
Nonlinearity correction enabled: false
Boxcar width: 0
XAxis mode: Wavelengths
Number of Pixels in Spectrum: 2048
>>>>>Begin Spectral Data<<<<<
179.651	1.34
180.037	1.34
180.424	1.34
180.81	-0.05
181.197	-0
181.583	-0.87
181.97	-0.36
182.356	-0
182.743	-1.45
183.129	0.46
183.515	-0
183.901	-0
184.288	0.16
184.674	0.63
185.06	-0.93
185.446	-0.02
185.832	-1.18
186.218	0.37
186.604	0.08
186.99	-0
187.376	-0
187.762	0.51
188.148	0.57
188.534	-0.23
188.92	0.04
189.305	0.03
189.691	0.2
190.077	0.19
190.463	0.11
190.848	0.17
191.234	-0.01
191.619	0.17
192.005	0.04
192.391	0.1
192.776	0.08
193.161	0.16
193.547	0.02
193.932	0.1
194.318	0.09
194.703	0.32
195.088	0.01
195.473	0.11
195.859	0.06
196.244	0.07
196.629	0.09
197.014	-0
197.399	0.15
197.784	0.11
198.169	0.11
198.554	0.07
198.939	0.08
199.324	0.09
199.709	0.14
200.094	0.08
200.478	0.12
200.863	0.2
201.248	0.09
201.633	0.09
202.017	0.07
202.402	0.09
202.787	0.07
203.171	0.03
203.556	0.17
203.94	0.11
204.325	0.3
204.709	0.19
205.093	0.07
205.478	0.19
205.862	0.21
206.246	0.33
206.631	0.05
207.015	0.25
207.399	0.19
207.783	0.15
208.167	0.09
208.551	0.29
208.935	0.07
209.319	0.26
209.703	0.14
210.087	0.36
210.471	-0.03
210.855	0.12
211.239	0.14
211.623	0.27
212.007	0.31
212.39	0.3
212.774	0.13
213.158	0.09
213.541	0.32
213.925	0.24
214.309	0.33
214.692	0.3
215.076	0.28
215.459	0.2
215.842	0.17
216.226	0.23
216.609	0.2
216.993	0.24
217.376	0.2
217.759	0.11
218.142	0.26
218.525	0.43
218.909	0.42
219.292	0.28
219.675	0.27
220.058	0.39
220.441	0.4
220.824	0.41
221.207	0.45
221.59	0.48
221.973	0.6
222.355	0.76
222.738	0.68
223.121	0.56
223.504	0.54
223.886	0.69
224.269	0.68
224.652	0.67
225.034	0.71
225.417	0.72
225.799	0.74
226.182	0.78
226.564	0.8
226.947	0.77
227.329	0.74
227.711	1.09
228.094	0.87
228.476	0.8
228.858	0.81
229.24	0.79
229.623	0.98
230.005	0.83
230.387	0.85
230.769	0.87
231.151	0.95
231.533	0.98
231.915	0.96
232.297	0.99
232.679	0.88
233.061	0.82
233.442	1.01
233.824	0.95
234.206	1.05
234.588	1.06
234.969	1
235.351	0.98
235.733	1.03
236.114	1.09
236.496	1.04
236.877	1.1
237.259	1.04
237.64	1.07
238.022	0.99
238.403	1
238.784	1.03
239.165	0.92
239.547	1.04
239.928	1.02
240.309	1.09
240.69	1.08
241.071	1.03
241.452	1.06
241.834	0.98
242.215	1.07
242.595	1.02
242.976	1.18
243.357	1.11
243.738	1.11
244.119	1.21
244.5	1.22
244.881	1.29
245.261	1.17
245.642	1.12
246.023	1.08
246.403	1.28
246.784	1.38
247.164	1.2
247.545	1.17
247.925	1.26
248.306	1.24
248.686	1.41
249.067	1.33
249.447	1.38
249.827	1.61
250.207	1.44
250.588	1.31
250.968	1.4
251.348	1.24
251.728	1.49
252.108	1.32
252.488	1.39
252.868	1.33
253.248	1.3
253.628	1.42
254.008	1.46
254.388	1.41
254.768	1.39
255.147	1.37
255.527	1.5
255.907	1.2
256.287	1.29
256.666	1.26
257.046	1.49
257.425	1.36
257.805	1.33
258.184	1.32
258.564	1.39
258.943	1.28
259.323	1.44
259.702	1.5
260.081	1.4
260.461	1.38
260.84	1.48
261.219	1.66
261.598	1.65
261.977	1.36
262.356	1.44
262.736	1.43
263.115	1.61
263.494	1.46
263.873	1.48
264.251	1.43
264.63	1.49
265.009	1.5
265.388	1.36
265.767	1.36
266.145	1.4
266.524	1.62
266.903	1.41
267.281	1.36
267.66	1.58
268.039	1.62
268.417	1.44
268.796	1.38
269.174	1.45
269.552	1.31
269.931	1.37
270.309	1.31
270.687	1.59
271.066	1.55
271.444	1.44
271.822	1.49
272.2	1.4
272.578	1.33
272.956	1.27
273.334	1.49
273.712	1.5
274.09	1.41
274.468	1.38
274.846	1.31
275.224	1.44
275.602	1.36
275.98	1.64
276.357	1.56
276.735	1.45
277.113	1.39
277.49	1.3
277.868	1.19
278.246	1.39
278.623	1.35
279.001	1.3
279.378	1.42
279.756	1.48
280.133	1.49
280.51	1.4
280.888	1.48
281.265	1.32
281.642	1.52
282.019	1.58
282.396	1.62
282.773	1.41
283.151	1.52
283.528	1.43
283.905	1.36
284.282	1.41
284.659	1.55
285.035	1.28
285.412	1.32
285.789	1.4
286.166	1.34
286.543	1.42
286.919	1.47
287.296	1.43
287.673	1.5
288.049	1.49
288.426	1.56
288.802	1.44
289.179	1.49
289.555	1.64
289.932	1.41
290.308	1.39
290.684	1.36
291.061	1.45
291.437	1.41
291.813	1.44
292.189	1.27
292.565	1.35
292.942	1.29
293.318	1.39
293.694	1.47
294.07	1.28
294.446	1.4
294.822	1.56
295.197	1.44
295.573	1.36
295.949	1.41
296.325	1.57
296.701	1.49
297.076	1.41
297.452	1.58
297.828	1.51
298.203	1.44
298.579	1.35
298.954	1.35
299.33	1.35
299.705	1.35
300.081	1.32
300.456	1.39
300.831	1.29
301.206	1.25
301.582	1.36
301.957	1.4
302.332	1.36
302.707	1.2
303.082	1.26
303.457	1.25
303.832	1.27
304.207	1.19
304.582	1.17
304.957	1.16
305.332	1.22
305.707	1.13
306.082	1.21
306.456	1.2
306.831	1.14
307.206	1.18
307.58	1.11
307.955	1.06
308.33	1.09
308.704	1.05
309.079	1.03
309.453	1.08
309.828	1.05
310.202	1
310.576	1
310.951	1
311.325	1.02
311.699	1
312.073	0.95
312.447	0.96
312.821	0.94
313.196	0.97
313.57	0.93
313.944	0.93
314.317	0.89
314.691	0.94
315.065	0.94
315.439	0.93
315.813	0.97
316.187	0.89
316.56	0.95
316.934	0.94
317.308	0.91
317.681	0.92
318.055	0.92
318.428	0.89
318.802	0.87
319.175	0.9
319.549	0.93
319.922	0.89
320.295	0.92
320.669	0.89
321.042	0.94
321.415	0.94
321.788	0.9
322.162	0.88
322.535	0.9
322.908	0.92
323.281	0.88
323.654	0.92
324.027	0.9
324.4	0.93
324.773	0.9
325.145	0.86
325.518	0.9
325.891	0.88
326.264	0.91
326.636	0.88
327.009	0.88
327.382	0.91
327.754	0.92
328.127	0.89
328.499	0.94
328.872	0.89
329.244	0.94
329.616	0.95
329.989	0.95
330.361	0.93
330.733	0.95
331.106	0.92
331.478	0.95
331.85	0.93
332.222	0.94
332.594	0.99
332.966	0.98
333.338	1
333.71	0.99
334.082	0.99
334.454	0.99
334.826	0.95
335.197	0.98
335.569	0.99
335.941	0.99
336.312	1.03
336.684	1.01
337.056	1
337.427	1.05
337.799	1.06
338.17	1.04
338.542	1.08
338.913	1.07
339.284	1.08
339.656	1.05
340.027	1.08
340.398	1.08
340.769	1.06
341.141	1.1
341.512	1.12
341.883	1.09
342.254	1.12
342.625	1.11
342.996	1.11
343.367	1.13
343.738	1.11
344.108	1.09
344.479	1.16
344.85	1.05
345.221	1.15
345.591	1.09
345.962	1.19
346.333	1.16
346.703	1.09
347.074	1.15
347.444	1.07
347.815	1.14
348.185	1.23
348.556	1.15
348.926	1.2
349.296	1.12
349.666	1.26
350.037	1.07
350.407	1.12
350.777	1.19
351.147	1.29
351.517	1.16
351.887	1.22
352.257	1.27
352.627	1.23
352.997	1.15
353.367	1.32
353.737	1.31
354.106	1.35
354.476	1.28
354.846	1.33
355.216	1.36
355.585	1.28
355.955	1.35
356.324	1.41
356.694	1.34
357.063	1.41
357.433	1.35
357.802	1.5
358.171	1.52
358.541	1.32
358.91	1.49
359.279	1.47
359.648	1.37
360.017	1.5
360.387	1.61
360.756	1.4
361.125	1.46
361.494	1.55
361.863	1.51
362.231	1.53
362.6	1.48
362.969	1.57
363.338	1.46
363.707	1.57
364.075	1.48
364.444	1.36
364.813	1.52
365.181	1.5
365.55	1.41
365.918	1.56
366.287	1.48
366.655	1.51
367.024	1.64
367.392	1.56
367.76	1.49
368.128	1.53
368.497	1.67
368.865	1.45
369.233	1.48
369.601	1.55
369.969	1.51
370.337	1.58
370.705	1.62
371.073	1.55
371.441	1.57
371.809	1.46
372.177	1.48
372.544	1.49
372.912	1.58
373.28	1.45
373.647	1.49
374.015	1.69
374.383	1.64
374.75	1.62
375.118	1.58
375.485	1.59
375.853	1.59
376.22	1.6
376.587	1.47
376.955	1.52
377.322	1.47
377.689	1.57
378.056	1.58
378.423	1.47
378.79	1.42
379.157	1.61
379.524	1.55
379.891	1.47
380.258	1.58
380.625	1.36
380.992	1.58
381.359	1.57
381.726	1.73
382.092	1.42
382.459	1.55
382.826	1.51
383.192	1.62
383.559	1.61
383.925	1.59
384.292	1.53
384.658	1.54
385.025	1.56
385.391	1.7
385.757	1.53
386.123	1.56
386.49	1.53
386.856	1.61
387.222	1.54
387.588	1.64
387.954	1.73
388.32	1.66
388.686	1.65
389.052	1.56
389.418	1.62
389.784	1.52
390.15	1.92
390.515	1.44
390.881	1.53
391.247	1.5
391.613	1.67
391.978	1.47
392.344	1.72
392.709	1.59
393.075	1.66
393.44	1.56
393.806	1.53
394.171	1.45
394.536	1.46
394.902	1.57
395.267	1.44
395.632	1.5
395.997	1.57
396.362	1.53
396.727	1.66
397.092	1.51
397.457	1.56
397.822	1.51
398.187	1.58
398.552	1.54
398.917	1.66
399.282	1.44
399.646	1.55
400.011	1.59
400.376	1.43
400.74	1.58
401.105	1.48
401.47	1.57
401.834	1.54
402.199	1.51
402.563	1.53
402.927	1.51
403.292	1.58
403.656	1.63
404.02	1.6
404.384	1.62
404.749	1.48
405.113	1.67
405.477	1.71
405.841	1.64
406.205	1.53
406.569	1.57
406.933	1.44
407.296	1.59
407.66	1.68
408.024	1.47
408.388	1.94
408.752	1.58
409.115	1.81
409.479	1.47
409.842	1.41
410.206	1.48
410.569	1.47
410.933	1.52
411.296	1.39
411.66	1.52
412.023	1.38
412.386	1.45
412.749	1.4
413.113	1.49
413.476	1.42
413.839	1.55
414.202	1.56
414.565	1.58
414.928	1.41
415.291	1.41
415.654	1.48
416.017	1.65
416.38	1.49
416.742	1.35
417.105	1.53
417.468	1.41
417.83	1.36
418.193	1.48
418.556	1.52
418.918	1.42
419.281	1.45
419.643	1.54
420.005	1.36
420.368	1.45
420.73	1.4
421.092	1.74
421.455	1.58
421.817	1.39
422.179	1.42
422.541	1.53
422.903	1.62
423.265	1.65
423.627	1.45
423.989	1.43
424.351	1.43
424.713	1.41
425.075	1.44
425.436	1.47
425.798	1.44
426.16	1.5
426.521	1.51
426.883	1.5
427.245	1.52
427.606	1.38
427.967	1.39
428.329	1.46
428.69	1.61
429.052	1.42
429.413	1.46
429.774	1.53
430.135	1.46
430.497	1.44
430.858	1.44
431.219	1.49
431.58	1.4
431.941	1.49
432.302	1.42
432.663	1.46
433.024	1.5
433.384	1.5
433.745	1.43
434.106	1.49
434.467	1.48
434.827	1.5
435.188	1.47
435.548	1.69
435.909	1.47
436.269	1.51
436.63	1.4
436.99	1.44
437.351	1.38
437.711	1.43
438.071	1.46
438.431	1.35
438.792	1.37
439.152	1.36
439.512	1.38
439.872	1.3
440.232	1.45
440.592	1.46
440.952	1.44
441.312	1.36
441.671	1.41
442.031	1.39
442.391	1.38
442.751	1.38
443.11	1.4
443.47	1.36
443.83	1.27
444.189	1.29
444.549	1.38
444.908	1.32
445.267	1.31
445.627	1.27
445.986	1.34
446.345	1.3
446.705	1.27
447.064	1.28
447.423	1.23
447.782	1.31
448.141	1.28
448.5	1.26
448.859	1.22
449.218	1.25
449.577	1.25
449.936	1.23
450.295	1.25
450.653	1.2
451.012	1.22
451.371	1.2
451.729	1.2
452.088	1.21
452.447	1.21
452.805	1.19
453.163	1.19
453.522	1.15
453.88	1.15
454.239	1.15
454.597	1.12
454.955	1.1
455.313	1.12
455.671	1.09
456.029	1.1
456.388	1.08
456.746	1.06
457.104	1.05
457.461	1.05
457.819	1.04
458.177	1.02
458.535	1.01
458.893	1.02
459.25	0.99
459.608	0.97
459.966	0.96
460.323	0.94
460.681	0.92
461.038	0.94
461.396	0.9
461.753	0.89
462.111	0.9
462.468	0.88
462.825	0.87
463.182	0.85
463.54	0.83
463.897	0.84
464.254	0.83
464.611	0.81
464.968	0.81
465.325	0.79
465.682	0.77
466.039	0.77
466.395	0.74
466.752	0.74
467.109	0.73
467.466	0.72
467.822	0.71
468.179	0.7
468.535	0.7
468.892	0.69
469.248	0.67
469.605	0.65
469.961	0.65
470.318	0.64
470.674	0.63
471.03	0.63
471.386	0.61
471.743	0.6
472.099	0.59
472.455	0.59
472.811	0.56
473.167	0.56
473.523	0.55
473.879	0.53
474.235	0.54
474.59	0.52
474.946	0.52
475.302	0.51
475.657	0.5
476.013	0.49
476.369	0.48
476.724	0.48
477.08	0.48
477.435	0.46
477.791	0.46
478.146	0.45
478.501	0.44
478.857	0.44
479.212	0.43
479.567	0.41
479.922	0.4
480.277	0.4
480.632	0.4
480.987	0.39
481.342	0.38
481.697	0.37
482.052	0.37
482.407	0.36
482.762	0.35
483.116	0.35
483.471	0.33
483.826	0.32
484.18	0.33
484.535	0.32
484.89	0.31
485.244	0.31
485.598	0.31
485.953	0.3
486.307	0.29
486.661	0.29
487.016	0.28
487.37	0.28
487.724	0.28
488.078	0.27
488.432	0.27
488.786	0.26
489.14	0.26
489.494	0.25
489.848	0.25
490.202	0.24
490.556	0.24
490.91	0.24
491.263	0.24
491.617	0.23
491.971	0.23
492.324	0.22
492.678	0.22
493.031	0.22
493.385	0.21
493.738	0.21
494.091	0.2
494.445	0.2
494.798	0.2
495.151	0.19
495.504	0.2
495.857	0.19
496.21	0.2
496.564	0.19
496.916	0.19
497.269	0.18
497.622	0.19
497.975	0.18
498.328	0.18
498.681	0.18
499.033	0.17
499.386	0.16
499.739	0.16
500.091	0.16
500.444	0.16
500.796	0.16
501.149	0.16
501.501	0.16
501.854	0.16
502.206	0.16
502.558	0.16
502.91	0.15
503.263	0.16
503.615	0.15
503.967	0.15
504.319	0.14
504.671	0.14
505.023	0.13
505.375	0.14
505.726	0.14
506.078	0.13
506.43	0.13
506.782	0.13
507.133	0.13
507.485	0.13
507.837	0.13
508.188	0.13
508.54	0.13
508.891	0.13
509.243	0.12
509.594	0.13
509.945	0.13
510.296	0.12
510.648	0.13
510.999	0.11
511.35	0.12
511.701	0.11
512.052	0.13
512.403	0.12
512.754	0.11
513.105	0.11
513.456	0.11
513.807	0.11
514.157	0.12
514.508	0.11
514.859	0.1
515.209	0.11
515.56	0.11
515.91	0.1
516.261	0.11
516.611	0.11
516.962	0.11
517.312	0.11
517.662	0.1
518.013	0.11
518.363	0.11
518.713	0.11
519.063	0.11
519.413	0.1
519.763	0.1
520.113	0.1
520.463	0.11
520.813	0.11
521.163	0.11
521.512	0.1
521.862	0.1
522.212	0.11
522.562	0.11
522.911	0.1
523.261	0.1
523.61	0.1
523.96	0.1
524.309	0.1
524.658	0.1
525.008	0.1
525.357	0.1
525.706	0.11
526.056	0.09
526.405	0.1
526.754	0.1
527.103	0.1
527.452	0.11
527.801	0.11
528.15	0.11
528.499	0.1
528.847	0.11
529.196	0.11
529.545	0.11
529.893	0.1
530.242	0.11
530.591	0.11
530.939	0.11
531.288	0.11
531.636	0.11
531.985	0.1
532.333	0.1
532.681	0.1
533.029	0.1
533.378	0.1
533.726	0.1
534.074	0.1
534.422	0.1
534.77	0.1
535.118	0.1
535.466	0.1
535.814	0.09
536.162	0.1
536.509	0.11
536.857	0.11
537.205	0.1
537.552	0.1
537.9	0.1
538.248	0.09
538.595	0.1
538.943	0.1
539.29	0.09
539.637	0.1
539.985	0.1
540.332	0.09
540.679	0.09
541.026	0.08
541.373	0.09
541.721	0.08
542.068	0.09
542.415	0.09
542.762	0.09
543.108	0.08
543.455	0.08
543.802	0.09
544.149	0.08
544.496	0.09
544.842	0.09
545.189	0.08
545.535	0.09
545.882	0.09
546.228	0.09
546.575	0.08
546.921	0.09
547.267	0.09
547.614	0.09
547.96	0.1
548.306	0.09
548.652	0.09
548.998	0.09
549.344	0.08
549.69	0.09
550.036	0.09
550.382	0.1
550.728	0.09
551.074	0.09
551.42	0.09
551.765	0.09
552.111	0.1
552.457	0.1
552.802	0.09
553.148	0.09
553.493	0.09
553.839	0.1
554.184	0.1
554.529	0.09
554.875	0.1
555.22	0.1
555.565	0.09
555.91	0.09
556.255	0.1
556.6	0.1
556.945	0.09
557.29	0.09
557.635	0.09
557.98	0.09
558.325	0.09
558.67	0.09
559.014	0.09
559.359	0.09
559.704	0.09
560.048	0.08
560.393	0.09
560.737	0.08
561.082	0.09
561.426	0.08
561.77	0.08
562.115	0.08
562.459	0.08
562.803	0.09
563.147	0.09
563.491	0.09
563.835	0.09
564.179	0.09
564.523	0.09
564.867	0.09
565.211	0.09
565.555	0.09
565.899	0.09
566.242	0.08
566.586	0.08
566.93	0.09
567.273	0.09
567.617	0.09
567.96	0.09
568.304	0.09
568.647	0.08
568.99	0.09
569.334	0.1
569.677	0.09
570.02	0.09
570.363	0.1
570.706	0.09
571.049	0.09
571.392	0.09
571.735	0.09
572.078	0.09
572.421	0.1
572.764	0.1
573.106	0.1
573.449	0.09
573.792	0.09
574.134	0.09
574.477	0.09
574.819	0.09
575.162	0.09
575.504	0.09
575.847	0.08
576.189	0.09
576.531	0.09
576.873	0.09
577.215	0.09
577.558	0.09
577.9	0.08
578.242	0.09
578.584	0.09
578.926	0.08
579.267	0.08
579.609	0.08
579.951	0.08
580.293	0.08
580.634	0.08
580.976	0.08
581.318	0.08
581.659	0.08
582.001	0.09
582.342	0.08
582.683	0.08
583.025	0.08
583.366	0.08
583.707	0.09
584.049	0.09
584.39	0.08
584.731	0.08
585.072	0.09
585.413	0.09
585.754	0.08
586.095	0.08
586.435	0.08
586.776	0.09
587.117	0.08
587.458	0.08
587.798	0.08
588.139	0.09
588.48	0.08
588.82	0.08
589.161	0.07
589.501	0.08
589.841	0.08
590.182	0.07
590.522	0.08
590.862	0.08
591.202	0.08
591.542	0.08
591.882	0.07
592.222	0.08
592.562	0.08
592.902	0.08
593.242	0.08
593.582	0.09
593.922	0.08
594.261	0.08
594.601	0.08
594.941	0.08
595.28	0.08
595.62	0.08
595.959	0.08
596.299	0.08
596.638	0.08
596.977	0.08
597.317	0.08
597.656	0.08
597.995	0.08
598.334	0.09
598.673	0.07
599.012	0.08
599.351	0.09
599.69	0.09
600.029	0.08
600.368	0.08
600.707	0.08
601.046	0.08
601.384	0.08
601.723	0.08
602.061	0.08
602.4	0.07
602.738	0.08
603.077	0.08
603.415	0.07
603.754	0.08
604.092	0.08
604.43	0.08
604.768	0.08
605.107	0.08
605.445	0.08
605.783	0.07
606.121	0.08
606.459	0.08
606.796	0.08
607.134	0.08
607.472	0.08
607.81	0.09
608.148	0.08
608.485	0.08
608.823	0.08
609.16	0.07
609.498	0.08
609.835	0.08
610.173	0.08
610.51	0.09
610.847	0.09
611.185	0.09
611.522	0.09
611.859	0.09
612.196	0.09
612.533	0.09
612.87	0.1
613.207	0.1
613.544	0.1
613.881	0.1
614.217	0.1
614.554	0.09
614.891	0.09
615.228	0.1
615.564	0.1
615.901	0.09
616.237	0.09
616.574	0.09
616.91	0.09
617.246	0.09
617.583	0.09
617.919	0.09
618.255	0.09
618.591	0.09
618.927	0.09
619.263	0.09
619.599	0.09
619.935	0.09
620.271	0.08
620.607	0.09
620.943	0.09
621.279	0.09
621.614	0.09
621.95	0.09
622.286	0.08
622.621	0.09
622.957	0.08
623.292	0.08
623.627	0.08
623.963	0.08
624.298	0.08
624.633	0.08
624.968	0.08
625.304	0.08
625.639	0.09
625.974	0.08
626.309	0.08
626.644	0.08
626.979	0.09
627.313	0.08
627.648	0.08
627.983	0.08
628.318	0.08
628.652	0.08
628.987	0.08
629.321	0.08
629.656	0.07
629.99	0.08
630.325	0.08
630.659	0.08
630.993	0.08
631.327	0.08
631.662	0.07
631.996	0.08
632.33	0.08
632.664	0.08
632.998	0.07
633.332	0.08
633.666	0.08
633.999	0.08
634.333	0.07
634.667	0.07
635.001	0.07
635.334	0.07
635.668	0.07
636.001	0.07
636.335	0.07
636.668	0.07
637.001	0.06
637.335	0.06
637.668	0.07
638.001	0.07
638.334	0.07
638.668	0.07
639.001	0.06
639.334	0.07
639.667	0.07
639.999	0.07
640.332	0.07
640.665	0.07
640.998	0.07
641.331	0.08
641.663	0.06
641.996	0.07
642.328	0.08
642.661	0.08
642.993	0.08
643.326	0.08
643.658	0.08
643.99	0.07
644.323	0.08
644.655	0.07
644.987	0.08
645.319	0.08
645.651	0.08
645.983	0.07
646.315	0.07
646.647	0.07
646.979	0.08
647.31	0.08
647.642	0.08
647.974	0.07
648.305	0.08
648.637	0.08
648.968	0.08
649.3	0.08
649.631	0.08
649.963	0.08
650.294	0.08
650.625	0.08
650.957	0.08
651.288	0.08
651.619	0.08
651.95	0.08
652.281	0.08
652.612	0.08
652.943	0.07
653.274	0.08
653.604	0.07
653.935	0.07
654.266	0.08
654.596	0.07
654.927	0.07
655.258	0.07
655.588	0.08
655.918	0.08
656.249	0.06
656.579	0.07
656.909	0.07
657.24	0.07
657.57	0.07
657.9	0.08
658.23	0.07
658.56	0.08
658.89	0.08
659.22	0.08
659.55	0.07
659.88	0.09
660.209	0.07
660.539	0.09
660.869	0.07
661.198	0.08
661.528	0.08
661.857	0.08
662.187	0.08
662.516	0.07
662.846	0.07
663.175	0.07
663.504	0.08
663.833	0.07
664.163	0.08
664.492	0.07
664.821	0.07
665.15	0.07
665.479	0.08
665.807	0.07
666.136	0.07
666.465	0.07
666.794	0.07
667.122	0.07
667.451	0.07
667.78	0.07
668.108	0.07
668.437	0.07
668.765	0.07
669.093	0.07
669.422	0.07
669.75	0.07
670.078	0.07
670.406	0.07
670.734	0.07
671.062	0.07
671.39	0.07
671.718	0.07
672.046	0.07
672.374	0.07
672.702	0.07
673.029	0.07
673.357	0.07
673.685	0.07
674.012	0.07
674.34	0.07
674.667	0.08
674.995	0.07
675.322	0.07
675.649	0.07
675.977	0.07
676.304	0.07
676.631	0.07
676.958	0.06
677.285	0.06
677.612	0.06
677.939	0.06
678.266	0.07
678.593	0.06
678.92	0.06
679.246	0.06
679.573	0.06
679.9	0.06
680.226	0.06
680.553	0.05
680.879	0.06
681.206	0.06
681.532	0.06
681.858	0.05
682.184	0.06
682.511	0.06
682.837	0.05
683.163	0.06
683.489	0.06
683.815	0.05
684.141	0.06
684.467	0.06
684.793	0.06
685.118	0.06
685.444	0.06
685.77	0.05
686.095	0.06
686.421	0.06
686.746	0.07
687.072	0.06
687.397	0.06
687.723	0.06
688.048	0.07
688.373	0.06
688.698	0.06
689.023	0.06
689.349	0.06
689.674	0.05
689.999	0.05
690.323	0.05
690.648	0.04
690.973	0.04
691.298	0.05
691.623	0.05
691.947	0.05
692.272	0.05
692.596	0.05
692.921	0.05
693.245	0.05
693.57	0.05
693.894	0.05
694.218	0.06
694.543	0.05
694.867	0.05
695.191	0.04
695.515	0.05
695.839	0.04
696.163	0.05
696.487	0.04
696.811	0.05
697.135	0.06
697.458	0.05
697.782	0.05
698.106	0.06
698.429	0.06
698.753	0.05
699.076	0.05
699.4	0.05
699.723	0.05
700.046	0.04
700.37	0.06
700.693	0.06
701.016	0.06
701.339	0.06
701.662	0.06
701.985	0.06
702.308	0.06
702.631	0.06
702.954	0.06
703.277	0.06
703.599	0.06
703.922	0.05
704.245	0.05
704.567	0.05
704.89	0.05
705.212	0.05
705.535	0.04
705.857	0.05
706.179	0.04
706.502	0.04
706.824	0.04
707.146	0.04
707.468	0.05
707.79	0.05
708.112	0.05
708.434	0.05
708.756	0.04
709.078	0.05
709.399	0.04
709.721	0.04
710.043	0.05
710.364	0.04
710.686	0.05
711.007	0.04
711.329	0.05
711.65	0.04
711.972	0.05
712.293	0.04
712.614	0.04
712.935	0.05
713.256	0.05
713.577	0.06
713.898	0.05
714.219	0.04
714.54	0.04
714.861	0.04
715.182	0.04
715.503	0.04
715.823	0.04
716.144	0.05
716.464	0.04
716.785	0.04
717.105	0.04
717.426	0.05
717.746	0.04
718.066	0.04
718.387	0.04
718.707	0.04
719.027	0.05
719.347	0.03
719.667	0.04
719.987	0.03
720.307	0.03
720.627	0.03
720.947	0.04
721.266	0.03
721.586	0.03
721.906	0.04
722.225	0.02
722.545	0.03
722.864	0.03
723.184	0.04
723.503	0.03
723.823	0.04
724.142	0.03
724.461	0.03
724.78	0.04
725.099	0.03
725.418	0.04
725.737	0.04
726.056	0.04
726.375	0.04
726.694	0.04
727.013	0.03
727.331	0.03
727.65	0.03
727.969	0.04
728.287	0.04
728.606	0.04
728.924	0.03
729.242	0.03
729.561	0.03
729.879	0.03
730.197	0.03
730.515	0.03
730.834	0.03
731.152	0.03
731.47	0.03
731.788	0.03
732.105	0.02
732.423	0.03
732.741	0.03
733.059	0.03
733.376	0.03
733.694	0.03
734.012	0.03
734.329	0.03
734.647	0.03
734.964	0.03
735.281	0.03
735.599	0.04
735.916	0.04
736.233	0.03
736.55	0.03
736.867	0.04
737.184	0.04
737.501	0.04
737.818	0.04
738.135	0.04
738.452	0.03
738.768	0.04
739.085	0.04
739.402	0.03
739.718	0.03
740.035	0.03
740.351	0.04
740.668	0.05
740.984	0.05
741.3	0.04
741.617	0.04
741.933	0.03
742.249	0.04
742.565	0.03
742.881	0.04
743.197	0.05
743.513	0.03
743.829	0.03
744.144	0.04
744.46	0.03
744.776	0.03
745.091	0.04
745.407	0.04
745.722	0.03
746.038	0.03
746.353	0.03
746.669	0.04
746.984	0.03
747.299	0.03
747.614	0.04
747.93	0.05
748.245	0.03
748.56	0.03
748.875	0.03
749.189	0.03
749.504	0.03
749.819	0.04
750.134	0.04
750.448	0.04
750.763	0.04
751.078	0.02
751.392	0.03
751.707	0.04
752.021	0.04
752.335	0.05
752.65	0.04
752.964	0.04
753.278	0.04
753.592	0.05
753.906	0.04
754.22	0.05
754.534	0.04
754.848	0.05
755.162	0.04
755.476	0.05
755.789	0.04
756.103	0.04
756.417	0.05
756.73	0.04
757.044	0.04
757.357	0.04
757.671	0.04
757.984	0.05
758.297	0.04
758.61	0.05
758.924	0.04
759.237	0.04
759.55	0.05
759.863	0.04
760.176	0.04
760.488	0.04
760.801	0.04
761.114	0.04
761.427	0.03
761.739	0.04
762.052	0.03
762.365	0.04
762.677	0.04
762.99	0.04
763.302	0.03
763.614	0.04
763.926	0.04
764.239	0.03
764.551	0.03
764.863	0.04
765.175	0.04
765.487	0.04
765.799	0.03
766.111	0.02
766.423	0.03
766.734	0.03
767.046	0.03
767.358	0.03
767.669	0.03
767.981	0.03
768.292	0.03
768.604	0.03
768.915	0.03
769.226	0.03
769.537	0.02
769.849	0.03
770.16	0.02
770.471	0.02
770.782	0.02
771.093	0.03
771.404	0.01
771.715	0.02
772.025	0.03
772.336	0.03
772.647	0.01
772.957	0.02
773.268	0.02
773.578	0.02
773.889	0.03
774.199	0.03
774.51	0.03
774.82	0.02
775.13	0.03
775.44	0.03
775.75	0.04
776.06	0.02
776.37	0.02
776.68	0.03
776.99	0.03
777.3	0.03
777.61	0.04
777.92	0.03
778.229	0.03
778.539	0.03
778.848	0.03
779.158	0.04
779.467	0.03
779.777	0.03
780.086	0.03
780.395	0.02
780.704	0.03
781.013	0.02
781.323	0.02
781.632	0.02
781.941	0.03
782.249	0.02
782.558	0.02
782.867	0.03
783.176	0.02
783.485	0.02
783.793	0.03
784.102	0.03
784.41	0.02
784.719	0.03
785.027	0.02
785.335	0.02
785.644	0.02
785.952	0.03
786.26	0.03
786.568	0.02
786.876	0.02
787.184	0.02
787.492	0.03
787.8	0.02
788.108	0.02
788.416	0.02
788.723	0.03
789.031	0.02
789.338	0.02
789.646	0.02
789.953	0.03
790.261	0.03
790.568	0.03
790.876	0.03
791.183	0.03
791.49	0.02
791.797	0.03
792.104	0.02
792.411	0.03
792.718	0.03
793.025	0.03
793.332	0.04
793.639	0.04
793.945	0.04
794.252	0.04
794.559	0.03
794.865	0.03
795.172	0.03
795.478	0.03
795.784	0.03
796.091	0.04
796.397	0.04
796.703	0.04
797.009	0.04
797.315	0.04
797.622	0.03
797.927	0.03
798.233	0.03
798.539	0.04
798.845	0.04
799.151	0.04
799.456	0.03
799.762	0.02
800.068	0.03
800.373	0.03
800.679	0.03
800.984	0.03
801.289	0.03
801.595	0.03
801.9	0.02
802.205	0.02
802.51	0.02
802.815	0.03
803.12	0.03
803.425	0.03
803.73	0.02
804.035	0.02
804.339	0.02
804.644	0.03
804.949	0.03
805.253	0.03
805.558	0.03
805.862	0.03
806.167	0.03
806.471	0.03
806.775	0.03
807.08	0.03
807.384	0.03
807.688	0.03
807.992	0.04
808.296	0.03
808.6	0.03
808.904	0.04
809.207	0.04
809.511	0.04
809.815	0.05
810.119	0.03
810.422	0.03
810.726	0.04
811.029	0.05
811.332	0.04
811.636	0.04
811.939	0.03
812.242	0.04
812.546	0.04
812.849	0.04
813.152	0.05
813.455	0.04
813.758	0.04
814.06	0.04
814.363	0.04
814.666	0.04
814.969	0.04
815.271	0.04
815.574	0.03
815.877	0.03
816.179	0.03
816.481	0.04
816.784	0.04
817.086	0.02
817.388	0.03
817.69	0.02
817.993	0.02
818.295	0.03
818.597	0.03
818.899	0.02
819.2	0.02
819.502	0.02
819.804	0.03
820.106	0.02
820.407	0.02
820.709	0.03
821.01	0.03
821.312	0.03
821.613	0.03
821.915	0.02
822.216	0.02
822.517	0.02
822.818	0.02
823.119	0.02
823.42	0.03
823.721	0.02
824.022	0.02
824.323	0.02
824.624	0.02
824.925	0.02
825.226	0.03
825.526	0.02
825.827	0.02
826.127	0.03
826.428	0.02
826.728	0.01
827.028	0.02
827.329	0.02
827.629	0.01
827.929	0.01
828.229	0.02
828.529	0.02
828.829	0.02
829.129	0.02
829.429	0.02
829.729	0.02
830.029	0.02
830.328	0.02
830.628	0.01
830.927	0
831.227	0.02
831.526	0.02
831.826	0.01
832.125	0.01
832.424	0
832.724	0.01
833.023	0.02
833.322	0.02
833.621	0.01
833.92	-0
834.219	0
834.518	0.01
834.816	0
835.115	0
835.414	0.01
835.712	0
836.011	0
836.309	0
836.608	-0
836.906	0
837.205	-0.01
837.503	0.01
837.801	-0
838.099	-0.01
838.397	-0.02
838.695	-0.02
838.993	-0.02
839.291	-0.02
839.589	-0.02
839.887	-0.03
840.184	-0.03
840.482	-0.04
840.78	-0.04
841.077	-0.04
841.375	-0.04
841.672	-0.04
841.969	-0.04
842.267	-0.04
842.564	-0.04
842.861	-0.04
843.158	-0.05
843.455	-0.06
843.752	-0.05
844.049	-0.05
844.346	-0.06
844.643	-0.05
844.94	-0.06
845.236	-0.04
845.533	-0.05
845.83	-0.05
846.126	-0.06
846.423	-0.05
846.719	-0.06
847.015	-0.05
847.312	-0.05
847.608	-0.06
847.904	-0.07
848.2	-0.07
848.496	-0.06
848.792	-0.06
849.088	-0.05
849.384	-0.06
849.68	-0.06
849.975	-0.07
850.271	-0.07
850.567	-0.07
850.862	-0.07
851.158	-0.07
851.453	-0.08
851.748	-0.08
852.044	-0.09
852.339	-0.08
852.634	-0.1
852.929	-0.08
853.224	-0.09
853.519	-0.09
853.814	-0.1
854.109	-0.1
854.404	-0.1
854.699	-0.1
854.994	-0.1
855.288	-0.1
855.583	-0.1
855.877	-0.1
856.172	-0.1
856.466	-0.11
856.76	-0.1
857.055	-0.11
857.349	-0.12
857.643	-0.12
857.937	-0.13
858.231	-0.12
858.525	-0.13
858.819	-0.13
859.113	-0.14
859.407	-0.13
859.701	-0.13
859.994	-0.13
860.288	-0.13
860.581	-0.13
860.875	-0.13
861.168	-0.14
861.462	-0.13
861.755	-0.12
862.048	-0.14
862.341	-0.14
862.634	-0.13
862.928	-0.14
863.221	-0.13
863.513	-0.15
863.806	-0.13
864.099	-0.14
864.392	-0.15
864.685	-0.13
864.977	-0.13
865.27	-0.14
865.562	-0.13
865.855	-0.13
866.147	-0.14
866.44	-0.13
866.732	-0.14
867.024	-0.15
867.316	-0.14
867.608	-0.15
867.9	-0.15
868.192	-0.15
868.484	-0.15
868.776	-0.15
869.068	-0.15
869.359	-0.14
869.651	-0.15
869.943	-0.16
870.234	-0.16
870.526	-0.16
870.817	-0.15
871.108	-0.14
871.4	-0.15
871.691	-0.16
871.982	-0.16
872.273	-0.17
872.564	-0.16
872.855	-0.17
873.146	-0.16
873.437	-0.17
873.728	-0.17
874.019	-0.16
874.309	-0.17
874.6	-0.17
874.89	-0.17
875.181	-0.17
875.471	-0.17
875.762	-0.17
876.052	-0.17
876.342	-0.16
876.632	-0.17
876.922	-0.18
877.213	-0.17
877.503	-0.19
877.792	-0.18
878.082	-0.18
878.372	-0.17
878.662	-0.19
878.952	-0.17
879.241	-0.17
879.531	-0.16
879.82	-0.18
880.11	-0.17
880.399	-0.18
880.688	-0.17
880.978	-0.17
881.267	-0.17
