Data from 12-12-AQDScycling_Absorbance__863__00863.txt Node

Date: Tue Dec 12 14:32:29 EST 2023
User: kyuminlee
Spectrometer: FLMS00943
Trigger mode: 0
Integration Time (sec): 1.000000E-1
Scans to average: 1
Electric dark correction enabled: true
Nonlinearity correction enabled: false
Boxcar width: 0
XAxis mode: Wavelengths
Number of Pixels in Spectrum: 2048
>>>>>Begin Spectral Data<<<<<
179.651	-0
180.037	-0
180.424	-0
180.81	-0.34
181.197	0.69
181.583	0.4
181.97	-0.4
182.356	-0
182.743	-1.13
183.129	0.23
183.515	0.34
183.901	-2.77
184.288	-0.08
184.674	-0
185.06	-0
185.446	-0
185.832	-1.5
186.218	1.17
186.604	-0
186.99	-0.16
187.376	1.12
187.762	0.21
188.148	0.1
188.534	-0.54
188.92	0
189.305	-0
189.691	0.03
190.077	0.09
190.463	0.05
190.848	0.01
191.234	0.09
191.619	0.01
192.005	0.09
192.391	0.15
192.776	0.02
193.161	0.07
193.547	0.12
193.932	0.02
194.318	-0.05
194.703	0.14
195.088	0.18
195.473	0.23
195.859	0.11
196.244	0.14
196.629	0.1
197.014	0.05
197.399	0.15
197.784	0.13
198.169	0.03
198.554	0.21
198.939	0.07
199.324	0.04
199.709	0
200.094	0.12
200.478	0.18
200.863	0.16
201.248	0.12
201.633	0.09
202.017	0.04
202.402	0.07
202.787	0.13
203.171	0.06
203.556	0.11
203.94	0.01
204.325	0.31
204.709	0.15
205.093	0.03
205.478	0.06
205.862	0.07
206.246	0.07
206.631	0.11
207.015	0.03
207.399	0.19
207.783	0.2
208.167	0.09
208.551	0.26
208.935	0.08
209.319	0.26
209.703	0.06
210.087	0.2
210.471	0.08
210.855	0.13
211.239	0.22
211.623	0.24
212.007	0.35
212.39	0.24
212.774	0.23
213.158	0.11
213.541	0.23
213.925	0.22
214.309	0.27
214.692	0.23
215.076	0.18
215.459	0.18
215.842	0.12
216.226	0.27
216.609	0.19
216.993	0.18
217.376	0.38
217.759	0.14
218.142	0.21
218.525	0.42
218.909	0.3
219.292	0.22
219.675	0.28
220.058	0.48
220.441	0.41
220.824	0.38
221.207	0.44
221.59	0.57
221.973	0.52
222.355	0.6
222.738	0.62
223.121	0.65
223.504	0.56
223.886	0.58
224.269	0.67
224.652	0.69
225.034	0.67
225.417	0.67
225.799	0.71
226.182	0.78
226.564	0.78
226.947	0.68
227.329	0.73
227.711	1.01
228.094	0.95
228.476	0.88
228.858	0.83
229.24	0.73
229.623	0.86
230.005	0.88
230.387	0.89
230.769	0.79
231.151	0.95
231.533	0.91
231.915	0.91
232.297	0.98
232.679	1.05
233.061	0.9
233.442	0.97
233.824	0.96
234.206	1.07
234.588	1.13
234.969	0.94
235.351	0.93
235.733	0.95
236.114	1.21
236.496	1.07
236.877	1.08
237.259	1
237.64	1.14
238.022	0.97
238.403	0.9
238.784	1.06
239.165	0.98
239.547	1.02
239.928	0.96
240.309	0.92
240.69	1.03
241.071	1.06
241.452	1.19
241.834	1.09
242.215	0.97
242.595	1.08
242.976	1.24
243.357	1.12
243.738	1.01
244.119	1.13
244.5	1.05
244.881	1.26
245.261	1.12
245.642	1.1
246.023	1.02
246.403	1.25
246.784	1.15
247.164	1.32
247.545	1.22
247.925	1.25
248.306	1.23
248.686	1.34
249.067	1.3
249.447	1.34
249.827	1.48
250.207	1.44
250.588	1.21
250.968	1.36
251.348	1.34
251.728	1.31
252.108	1.28
252.488	1.45
252.868	1.28
253.248	1.27
253.628	1.43
254.008	1.44
254.388	1.24
254.768	1.31
255.147	1.35
255.527	1.4
255.907	1.2
256.287	1.15
256.666	1.29
257.046	1.39
257.425	1.43
257.805	1.29
258.184	1.27
258.564	1.32
258.943	1.3
259.323	1.4
259.702	1.51
260.081	1.43
260.461	1.52
260.84	1.45
261.219	1.65
261.598	1.5
261.977	1.36
262.356	1.39
262.736	1.57
263.115	1.64
263.494	1.36
263.873	1.32
264.251	1.5
264.63	1.51
265.009	1.44
265.388	1.34
265.767	1.28
266.145	1.4
266.524	1.39
266.903	1.51
267.281	1.36
267.66	1.47
268.039	1.35
268.417	1.33
268.796	1.41
269.174	1.42
269.552	1.27
269.931	1.46
270.309	1.28
270.687	1.66
271.066	1.55
271.444	1.32
271.822	1.37
272.2	1.48
272.578	1.35
272.956	1.37
273.334	1.26
273.712	1.34
274.09	1.34
274.468	1.28
274.846	1.3
275.224	1.34
275.602	1.5
275.98	1.38
276.357	1.42
276.735	1.44
277.113	1.27
277.49	1.3
277.868	1.31
278.246	1.41
278.623	1.21
279.001	1.34
279.378	1.34
279.756	1.46
280.133	1.48
280.51	1.37
280.888	1.47
281.265	1.35
281.642	1.38
282.019	1.51
282.396	1.47
282.773	1.45
283.151	1.35
283.528	1.44
283.905	1.4
284.282	1.58
284.659	1.73
285.035	1.36
285.412	1.39
285.789	1.48
286.166	1.42
286.543	1.42
286.919	1.46
287.296	1.35
287.673	1.76
288.049	1.44
288.426	1.62
288.802	1.6
289.179	1.44
289.555	1.58
289.932	1.42
290.308	1.38
290.684	1.26
291.061	1.27
291.437	1.61
291.813	1.28
292.189	1.31
292.565	1.3
292.942	1.32
293.318	1.35
293.694	1.38
294.07	1.25
294.446	1.31
294.822	1.49
295.197	1.29
295.573	1.47
295.949	1.42
296.325	1.49
296.701	1.38
297.076	1.37
297.452	1.41
297.828	1.45
298.203	1.38
298.579	1.34
298.954	1.3
299.33	1.31
299.705	1.34
300.081	1.3
300.456	1.34
300.831	1.27
301.206	1.21
301.582	1.36
301.957	1.24
302.332	1.26
302.707	1.16
303.082	1.21
303.457	1.21
303.832	1.21
304.207	1.18
304.582	1.1
304.957	1.11
305.332	1.07
305.707	1.1
306.082	1.07
306.456	1.07
306.831	1.01
307.206	0.99
307.58	1.01
307.955	0.97
308.33	0.98
308.704	0.99
309.079	0.99
309.453	0.98
309.828	0.92
310.202	0.93
310.576	0.89
310.951	0.9
311.325	0.91
311.699	0.87
312.073	0.83
312.447	0.84
312.821	0.83
313.196	0.85
313.57	0.82
313.944	0.78
314.317	0.81
314.691	0.82
315.065	0.79
315.439	0.81
315.813	0.79
316.187	0.77
316.56	0.79
316.934	0.77
317.308	0.76
317.681	0.79
318.055	0.78
318.428	0.74
318.802	0.79
319.175	0.73
319.549	0.75
319.922	0.74
320.295	0.73
320.669	0.78
321.042	0.74
321.415	0.75
321.788	0.74
322.162	0.73
322.535	0.74
322.908	0.74
323.281	0.7
323.654	0.73
324.027	0.7
324.4	0.75
324.773	0.71
325.145	0.76
325.518	0.72
325.891	0.71
326.264	0.75
326.636	0.72
327.009	0.71
327.382	0.74
327.754	0.77
328.127	0.74
328.499	0.74
328.872	0.71
329.244	0.76
329.616	0.74
329.989	0.77
330.361	0.74
330.733	0.75
331.106	0.74
331.478	0.79
331.85	0.79
332.222	0.76
332.594	0.77
332.966	0.84
333.338	0.85
333.71	0.83
334.082	0.87
334.454	0.83
334.826	0.86
335.197	0.83
335.569	0.87
335.941	0.83
336.312	0.85
336.684	0.86
337.056	0.9
337.427	0.87
337.799	0.9
338.17	0.91
338.542	0.87
338.913	0.97
339.284	0.95
339.656	0.94
340.027	0.94
340.398	0.94
340.769	0.93
341.141	0.99
341.512	1
341.883	0.98
342.254	1.01
342.625	0.97
342.996	0.96
343.367	1.02
343.738	1
344.108	1.02
344.479	1.14
344.85	1.02
345.221	1.09
345.591	0.99
345.962	1.05
346.333	1.13
346.703	1.01
347.074	1.06
347.444	1.06
347.815	1.13
348.185	1.12
348.556	1.13
348.926	1.1
349.296	1.16
349.666	1.11
350.037	1.07
350.407	1.11
350.777	1.21
351.147	1.17
351.517	1.19
351.887	1.2
352.257	1.25
352.627	1.26
352.997	1.25
353.367	1.25
353.737	1.26
354.106	1.37
354.476	1.35
354.846	1.32
355.216	1.33
355.585	1.44
355.955	1.41
356.324	1.44
356.694	1.39
357.063	1.36
357.433	1.38
357.802	1.4
358.171	1.46
358.541	1.3
358.91	1.43
359.279	1.56
359.648	1.41
360.017	1.55
360.387	1.5
360.756	1.4
361.125	1.49
361.494	1.56
361.863	1.48
362.231	1.48
362.6	1.51
362.969	1.59
363.338	1.53
363.707	1.53
364.075	1.53
364.444	1.42
364.813	1.46
365.181	1.43
365.55	1.56
365.918	1.52
366.287	1.45
366.655	1.62
367.024	1.47
367.392	1.49
367.76	1.53
368.128	1.5
368.497	1.52
368.865	1.42
369.233	1.52
369.601	1.54
369.969	1.6
370.337	1.51
370.705	1.45
371.073	1.44
371.441	1.41
371.809	1.49
372.177	1.45
372.544	1.53
372.912	1.44
373.28	1.47
373.647	1.58
374.015	1.61
374.383	1.78
374.75	1.65
375.118	1.51
375.485	1.57
375.853	1.69
376.22	1.49
376.587	1.47
376.955	1.73
377.322	1.81
377.689	1.49
378.056	1.63
378.423	1.49
378.79	1.51
379.157	1.52
379.524	1.49
379.891	1.42
380.258	1.51
380.625	1.49
380.992	1.5
381.359	1.58
381.726	1.58
382.092	1.47
382.459	1.41
382.826	1.49
383.192	1.49
383.559	1.48
383.925	1.44
384.292	1.44
384.658	1.57
385.025	1.53
385.391	1.6
385.757	1.63
386.123	1.54
386.49	1.51
386.856	1.58
387.222	1.6
387.588	1.47
387.954	1.61
388.32	1.71
388.686	1.49
389.052	1.51
389.418	1.59
389.784	1.54
390.15	1.69
390.515	1.32
390.881	1.8
391.247	1.45
391.613	1.61
391.978	1.55
392.344	1.56
392.709	1.59
393.075	1.59
393.44	1.53
393.806	1.59
394.171	1.49
394.536	1.48
394.902	1.54
395.267	1.5
395.632	1.39
395.997	1.51
396.362	1.58
396.727	1.66
397.092	1.53
397.457	1.52
397.822	1.48
398.187	1.56
398.552	1.39
398.917	1.5
399.282	1.43
399.646	1.56
400.011	1.7
400.376	1.45
400.74	1.38
401.105	1.54
401.47	1.67
401.834	1.54
402.199	1.52
402.563	1.51
402.927	1.42
403.292	1.52
403.656	1.51
404.02	1.52
404.384	1.59
404.749	1.51
405.113	1.6
405.477	1.59
405.841	1.59
406.205	1.45
406.569	1.48
406.933	1.5
407.296	1.5
407.66	1.49
408.024	1.49
408.388	1.69
408.752	1.57
409.115	1.67
409.479	1.58
409.842	1.49
410.206	1.51
410.569	1.51
410.933	1.61
411.296	1.44
411.66	1.62
412.023	1.39
412.386	1.54
412.749	1.48
413.113	1.6
413.476	1.48
413.839	1.49
414.202	1.54
414.565	1.42
414.928	1.49
415.291	1.39
415.654	1.53
416.017	1.44
416.38	1.45
416.742	1.48
417.105	1.35
417.468	1.43
417.83	1.56
418.193	1.7
418.556	1.35
418.918	1.37
419.281	1.46
419.643	1.63
420.005	1.52
420.368	1.44
420.73	1.51
421.092	1.49
421.455	1.56
421.817	1.47
422.179	1.54
422.541	1.47
422.903	1.68
423.265	1.49
423.627	1.57
423.989	1.56
424.351	1.44
424.713	1.51
425.075	1.48
425.436	1.47
425.798	1.53
426.16	1.55
426.521	1.46
426.883	1.55
427.245	1.53
427.606	1.36
427.967	1.38
428.329	1.57
428.69	1.54
429.052	1.36
429.413	1.57
429.774	1.56
430.135	1.62
430.497	1.6
430.858	1.65
431.219	1.58
431.58	1.48
431.941	1.49
432.302	1.45
432.663	1.45
433.024	1.62
433.384	1.54
433.745	1.5
434.106	1.48
434.467	1.5
434.827	1.48
435.188	1.51
435.548	1.52
435.909	1.45
436.269	1.57
436.63	1.49
436.99	1.52
437.351	1.35
437.711	1.51
438.071	1.42
438.431	1.49
438.792	1.45
439.152	1.5
439.512	1.46
439.872	1.39
440.232	1.53
440.592	1.48
440.952	1.48
441.312	1.36
441.671	1.41
442.031	1.41
442.391	1.49
442.751	1.39
443.11	1.53
443.47	1.37
443.83	1.41
444.189	1.41
444.549	1.37
444.908	1.33
445.267	1.45
445.627	1.39
445.986	1.36
446.345	1.35
446.705	1.41
447.064	1.39
447.423	1.34
447.782	1.38
448.141	1.37
448.5	1.3
448.859	1.32
449.218	1.35
449.577	1.37
449.936	1.36
450.295	1.32
450.653	1.28
451.012	1.32
451.371	1.29
451.729	1.27
452.088	1.32
452.447	1.28
452.805	1.25
453.163	1.3
453.522	1.25
453.88	1.22
454.239	1.25
454.597	1.21
454.955	1.18
455.313	1.18
455.671	1.17
456.029	1.18
456.388	1.14
456.746	1.15
457.104	1.14
457.461	1.12
457.819	1.11
458.177	1.1
458.535	1.08
458.893	1.06
459.25	1.08
459.608	1.06
459.966	1.02
460.323	1.05
460.681	1.01
461.038	1
461.396	0.97
461.753	0.98
462.111	0.96
462.468	0.93
462.825	0.91
463.182	0.9
463.54	0.89
463.897	0.89
464.254	0.88
464.611	0.87
464.968	0.85
465.325	0.86
465.682	0.83
466.039	0.83
466.395	0.81
466.752	0.79
467.109	0.76
467.466	0.77
467.822	0.74
468.179	0.74
468.535	0.73
468.892	0.72
469.248	0.7
469.605	0.68
469.961	0.68
470.318	0.69
470.674	0.68
471.03	0.65
471.386	0.64
471.743	0.62
472.099	0.62
472.455	0.62
472.811	0.59
473.167	0.59
473.523	0.57
473.879	0.56
474.235	0.55
474.59	0.55
474.946	0.54
475.302	0.54
475.657	0.52
476.013	0.52
476.369	0.5
476.724	0.51
477.08	0.49
477.435	0.48
477.791	0.46
478.146	0.46
478.501	0.45
478.857	0.45
479.212	0.44
479.567	0.42
479.922	0.41
480.277	0.41
480.632	0.4
480.987	0.4
481.342	0.38
481.697	0.37
482.052	0.36
482.407	0.36
482.762	0.35
483.116	0.34
483.471	0.34
483.826	0.33
484.18	0.32
484.535	0.32
484.89	0.3
485.244	0.31
485.598	0.3
485.953	0.29
486.307	0.29
486.661	0.28
487.016	0.27
487.37	0.27
487.724	0.27
488.078	0.26
488.432	0.26
488.786	0.26
489.14	0.24
489.494	0.24
489.848	0.23
490.202	0.23
490.556	0.23
490.91	0.22
491.263	0.22
491.617	0.21
491.971	0.2
492.324	0.2
492.678	0.2
493.031	0.2
493.385	0.2
493.738	0.19
494.091	0.19
494.445	0.18
494.798	0.19
495.151	0.18
495.504	0.18
495.857	0.17
496.21	0.17
496.564	0.17
496.916	0.17
497.269	0.16
497.622	0.16
497.975	0.16
498.328	0.15
498.681	0.15
499.033	0.14
499.386	0.14
499.739	0.14
500.091	0.13
500.444	0.13
500.796	0.14
501.149	0.12
501.501	0.13
501.854	0.13
502.206	0.12
502.558	0.13
502.91	0.12
503.263	0.12
503.615	0.12
503.967	0.12
504.319	0.12
504.671	0.11
505.023	0.11
505.375	0.11
505.726	0.11
506.078	0.11
506.43	0.11
506.782	0.11
507.133	0.11
507.485	0.11
507.837	0.11
508.188	0.11
508.54	0.11
508.891	0.11
509.243	0.1
509.594	0.1
509.945	0.1
510.296	0.1
510.648	0.1
510.999	0.1
511.35	0.1
511.701	0.09
512.052	0.1
512.403	0.1
512.754	0.09
513.105	0.09
513.456	0.08
513.807	0.08
514.157	0.09
514.508	0.09
514.859	0.08
515.209	0.09
515.56	0.09
515.91	0.08
516.261	0.09
516.611	0.08
516.962	0.08
517.312	0.08
517.662	0.08
518.013	0.08
518.363	0.09
518.713	0.09
519.063	0.09
519.413	0.09
519.763	0.09
520.113	0.09
520.463	0.09
520.813	0.09
521.163	0.08
521.512	0.09
521.862	0.08
522.212	0.08
522.562	0.09
522.911	0.08
523.261	0.08
523.61	0.08
523.96	0.08
524.309	0.09
524.658	0.09
525.008	0.08
525.357	0.08
525.706	0.09
526.056	0.08
526.405	0.08
526.754	0.07
527.103	0.08
527.452	0.08
527.801	0.08
528.15	0.08
528.499	0.09
528.847	0.08
529.196	0.09
529.545	0.09
529.893	0.09
530.242	0.08
530.591	0.09
530.939	0.1
531.288	0.08
531.636	0.08
531.985	0.09
532.333	0.09
532.681	0.08
533.029	0.08
533.378	0.08
533.726	0.08
534.074	0.09
534.422	0.08
534.77	0.09
535.118	0.08
535.466	0.08
535.814	0.08
536.162	0.08
536.509	0.08
536.857	0.08
537.205	0.09
537.552	0.09
537.9	0.08
538.248	0.08
538.595	0.09
538.943	0.09
539.29	0.09
539.637	0.08
539.985	0.09
540.332	0.08
540.679	0.08
541.026	0.08
541.373	0.09
541.721	0.08
542.068	0.08
542.415	0.08
542.762	0.08
543.108	0.07
543.455	0.07
543.802	0.08
544.149	0.08
544.496	0.08
544.842	0.08
545.189	0.07
545.535	0.07
545.882	0.07
546.228	0.07
546.575	0.06
546.921	0.06
547.267	0.07
547.614	0.07
547.96	0.07
548.306	0.06
548.652	0.06
548.998	0.08
549.344	0.07
549.69	0.07
550.036	0.07
550.382	0.07
550.728	0.07
551.074	0.07
551.42	0.07
551.765	0.07
552.111	0.07
552.457	0.08
552.802	0.07
553.148	0.08
553.493	0.07
553.839	0.08
554.184	0.07
554.529	0.07
554.875	0.07
555.22	0.08
555.565	0.08
555.91	0.08
556.255	0.08
556.6	0.08
556.945	0.07
557.29	0.07
557.635	0.08
557.98	0.07
558.325	0.07
558.67	0.08
559.014	0.07
559.359	0.08
559.704	0.08
560.048	0.07
560.393	0.08
560.737	0.06
561.082	0.08
561.426	0.07
561.77	0.07
562.115	0.06
562.459	0.07
562.803	0.07
563.147	0.07
563.491	0.08
563.835	0.07
564.179	0.08
564.523	0.07
564.867	0.06
565.211	0.07
565.555	0.07
565.899	0.08
566.242	0.07
566.586	0.06
566.93	0.08
567.273	0.07
567.617	0.07
567.96	0.07
568.304	0.08
568.647	0.07
568.99	0.08
569.334	0.08
569.677	0.08
570.02	0.08
570.363	0.09
570.706	0.08
571.049	0.08
571.392	0.08
571.735	0.07
572.078	0.08
572.421	0.09
572.764	0.07
573.106	0.08
573.449	0.07
573.792	0.08
574.134	0.07
574.477	0.07
574.819	0.07
575.162	0.08
575.504	0.07
575.847	0.07
576.189	0.07
576.531	0.08
576.873	0.08
577.215	0.08
577.558	0.07
577.9	0.07
578.242	0.07
578.584	0.07
578.926	0.07
579.267	0.07
579.609	0.07
579.951	0.07
580.293	0.07
580.634	0.07
580.976	0.08
581.318	0.07
581.659	0.07
582.001	0.07
582.342	0.07
582.683	0.08
583.025	0.06
583.366	0.07
583.707	0.07
584.049	0.08
584.39	0.07
584.731	0.07
585.072	0.07
585.413	0.07
585.754	0.08
586.095	0.07
586.435	0.07
586.776	0.08
587.117	0.07
587.458	0.07
587.798	0.07
588.139	0.07
588.48	0.07
588.82	0.07
589.161	0.07
589.501	0.06
589.841	0.06
590.182	0.07
590.522	0.07
590.862	0.07
591.202	0.07
591.542	0.07
591.882	0.06
592.222	0.07
592.562	0.06
592.902	0.07
593.242	0.07
593.582	0.07
593.922	0.07
594.261	0.07
594.601	0.07
594.941	0.07
595.28	0.06
595.62	0.07
595.959	0.07
596.299	0.07
596.638	0.06
596.977	0.07
597.317	0.07
597.656	0.07
597.995	0.07
598.334	0.08
598.673	0.07
599.012	0.07
599.351	0.08
599.69	0.07
600.029	0.08
600.368	0.08
600.707	0.08
601.046	0.08
601.384	0.09
601.723	0.08
602.061	0.07
602.4	0.08
602.738	0.08
603.077	0.08
603.415	0.07
603.754	0.07
604.092	0.08
604.43	0.06
604.768	0.07
605.107	0.08
605.445	0.07
605.783	0.07
606.121	0.07
606.459	0.07
606.796	0.07
607.134	0.07
607.472	0.07
607.81	0.07
608.148	0.07
608.485	0.07
608.823	0.07
609.16	0.07
609.498	0.07
609.835	0.07
610.173	0.07
610.51	0.07
610.847	0.08
611.185	0.08
611.522	0.08
611.859	0.08
612.196	0.08
612.533	0.07
612.87	0.08
613.207	0.08
613.544	0.08
613.881	0.08
614.217	0.08
614.554	0.08
614.891	0.08
615.228	0.08
615.564	0.08
615.901	0.08
616.237	0.08
616.574	0.08
616.91	0.09
617.246	0.08
617.583	0.08
617.919	0.08
618.255	0.08
618.591	0.08
618.927	0.08
619.263	0.09
619.599	0.09
619.935	0.08
620.271	0.09
620.607	0.09
620.943	0.08
621.279	0.08
621.614	0.08
621.95	0.08
622.286	0.08
622.621	0.08
622.957	0.08
623.292	0.07
623.627	0.08
623.963	0.07
624.298	0.08
624.633	0.07
624.968	0.07
625.304	0.08
625.639	0.07
625.974	0.07
626.309	0.07
626.644	0.08
626.979	0.08
627.313	0.07
627.648	0.08
627.983	0.08
628.318	0.07
628.652	0.07
628.987	0.07
629.321	0.07
629.656	0.07
629.99	0.06
630.325	0.07
630.659	0.07
630.993	0.07
631.327	0.07
631.662	0.06
631.996	0.06
632.33	0.06
632.664	0.06
632.998	0.06
633.332	0.07
633.666	0.06
633.999	0.06
634.333	0.06
634.667	0.06
635.001	0.06
635.334	0.06
635.668	0.06
636.001	0.06
636.335	0.06
636.668	0.06
637.001	0.05
637.335	0.06
637.668	0.06
638.001	0.06
638.334	0.06
638.668	0.06
639.001	0.06
639.334	0.05
639.667	0.06
639.999	0.06
640.332	0.06
640.665	0.06
640.998	0.06
641.331	0.06
641.663	0.06
641.996	0.07
642.328	0.07
642.661	0.07
642.993	0.07
643.326	0.07
643.658	0.06
643.99	0.07
644.323	0.06
644.655	0.06
644.987	0.07
645.319	0.07
645.651	0.08
645.983	0.07
646.315	0.07
646.647	0.07
646.979	0.08
647.31	0.08
647.642	0.07
647.974	0.07
648.305	0.07
648.637	0.07
648.968	0.07
649.3	0.07
649.631	0.07
649.963	0.06
650.294	0.07
650.625	0.07
650.957	0.07
651.288	0.07
651.619	0.07
651.95	0.07
652.281	0.07
652.612	0.07
652.943	0.08
653.274	0.07
653.604	0.07
653.935	0.07
654.266	0.07
654.596	0.06
654.927	0.07
655.258	0.07
655.588	0.08
655.918	0.08
656.249	0.05
656.579	0.07
656.909	0.06
657.24	0.07
657.57	0.07
657.9	0.07
658.23	0.06
658.56	0.07
658.89	0.07
659.22	0.06
659.55	0.07
659.88	0.07
660.209	0.06
660.539	0.07
660.869	0.06
661.198	0.07
661.528	0.07
661.857	0.07
662.187	0.07
662.516	0.07
662.846	0.06
663.175	0.07
663.504	0.07
663.833	0.07
664.163	0.07
664.492	0.07
664.821	0.07
665.15	0.06
665.479	0.06
665.807	0.06
666.136	0.07
666.465	0.06
666.794	0.07
667.122	0.07
667.451	0.07
667.78	0.07
668.108	0.07
668.437	0.08
668.765	0.07
669.093	0.08
669.422	0.07
669.75	0.07
670.078	0.07
670.406	0.07
670.734	0.07
671.062	0.07
671.39	0.07
671.718	0.07
672.046	0.07
672.374	0.07
672.702	0.07
673.029	0.07
673.357	0.07
673.685	0.08
674.012	0.07
674.34	0.07
674.667	0.08
674.995	0.08
675.322	0.07
675.649	0.06
675.977	0.07
676.304	0.07
676.631	0.07
676.958	0.07
677.285	0.06
677.612	0.06
677.939	0.06
678.266	0.07
678.593	0.07
678.92	0.07
679.246	0.06
679.573	0.06
679.9	0.06
680.226	0.07
680.553	0.06
680.879	0.07
681.206	0.07
681.532	0.06
681.858	0.07
682.184	0.07
682.511	0.07
682.837	0.07
683.163	0.07
683.489	0.07
683.815	0.07
684.141	0.07
684.467	0.07
684.793	0.06
685.118	0.07
685.444	0.07
685.77	0.06
686.095	0.07
686.421	0.07
686.746	0.07
687.072	0.07
687.397	0.06
687.723	0.07
688.048	0.07
688.373	0.06
688.698	0.07
689.023	0.06
689.349	0.06
689.674	0.07
689.999	0.06
690.323	0.05
690.648	0.05
690.973	0.05
691.298	0.06
691.623	0.05
691.947	0.05
692.272	0.06
692.596	0.06
692.921	0.06
693.245	0.06
693.57	0.06
693.894	0.06
694.218	0.06
694.543	0.06
694.867	0.06
695.191	0.06
695.515	0.06
695.839	0.05
696.163	0.06
696.487	0.07
696.811	0.06
697.135	0.07
697.458	0.07
697.782	0.06
698.106	0.07
698.429	0.06
698.753	0.06
699.076	0.06
699.4	0.06
699.723	0.06
700.046	0.06
700.37	0.06
700.693	0.07
701.016	0.07
701.339	0.07
701.662	0.07
701.985	0.07
702.308	0.06
702.631	0.06
702.954	0.07
703.277	0.06
703.599	0.06
703.922	0.05
704.245	0.05
704.567	0.05
704.89	0.05
705.212	0.05
705.535	0.05
705.857	0.05
706.179	0.05
706.502	0.05
706.824	0.05
707.146	0.05
707.468	0.06
707.79	0.05
708.112	0.06
708.434	0.05
708.756	0.05
709.078	0.06
709.399	0.05
709.721	0.05
710.043	0.06
710.364	0.06
710.686	0.05
711.007	0.05
711.329	0.06
711.65	0.06
711.972	0.06
712.293	0.06
712.614	0.07
712.935	0.06
713.256	0.06
713.577	0.07
713.898	0.06
714.219	0.06
714.54	0.06
714.861	0.06
715.182	0.06
715.503	0.06
715.823	0.06
716.144	0.06
716.464	0.05
716.785	0.06
717.105	0.05
717.426	0.06
717.746	0.06
718.066	0.04
718.387	0.05
718.707	0.05
719.027	0.05
719.347	0.04
719.667	0.06
719.987	0.05
720.307	0.05
720.627	0.05
720.947	0.05
721.266	0.05
721.586	0.05
721.906	0.05
722.225	0.04
722.545	0.05
722.864	0.05
723.184	0.06
723.503	0.05
723.823	0.06
724.142	0.05
724.461	0.05
724.78	0.04
725.099	0.05
725.418	0.05
725.737	0.05
726.056	0.06
726.375	0.06
726.694	0.05
727.013	0.05
727.331	0.04
727.65	0.05
727.969	0.05
728.287	0.05
728.606	0.05
728.924	0.05
729.242	0.05
729.561	0.05
729.879	0.05
730.197	0.06
730.515	0.04
730.834	0.05
731.152	0.05
731.47	0.05
731.788	0.06
732.105	0.05
732.423	0.05
732.741	0.05
733.059	0.05
733.376	0.06
733.694	0.05
734.012	0.05
734.329	0.06
734.647	0.05
734.964	0.07
735.281	0.06
735.599	0.06
735.916	0.07
736.233	0.05
736.55	0.06
736.867	0.06
737.184	0.07
737.501	0.06
737.818	0.06
738.135	0.07
738.452	0.06
738.768	0.06
739.085	0.06
739.402	0.04
739.718	0.06
740.035	0.05
740.351	0.06
740.668	0.06
740.984	0.06
741.3	0.05
741.617	0.05
741.933	0.06
742.249	0.05
742.565	0.05
742.881	0.06
743.197	0.06
743.513	0.05
743.829	0.05
744.144	0.05
744.46	0.05
744.776	0.05
745.091	0.05
745.407	0.05
745.722	0.05
746.038	0.04
746.353	0.04
746.669	0.05
746.984	0.04
747.299	0.05
747.614	0.05
747.93	0.05
748.245	0.04
748.56	0.05
748.875	0.05
749.189	0.04
749.504	0.04
749.819	0.05
750.134	0.04
750.448	0.05
750.763	0.05
751.078	0.04
751.392	0.05
751.707	0.05
752.021	0.06
752.335	0.05
752.65	0.05
752.964	0.05
753.278	0.05
753.592	0.04
753.906	0.04
754.22	0.05
754.534	0.05
754.848	0.05
755.162	0.05
755.476	0.05
755.789	0.05
756.103	0.05
756.417	0.05
756.73	0.04
757.044	0.04
757.357	0.05
757.671	0.05
757.984	0.05
758.297	0.05
758.61	0.05
758.924	0.05
759.237	0.04
759.55	0.05
759.863	0.04
760.176	0.05
760.488	0.04
760.801	0.04
761.114	0.04
761.427	0.04
761.739	0.05
762.052	0.05
762.365	0.04
762.677	0.05
762.99	0.04
763.302	0.05
763.614	0.05
763.926	0.05
764.239	0.05
764.551	0.05
764.863	0.05
765.175	0.05
765.487	0.04
765.799	0.04
766.111	0.04
766.423	0.05
766.734	0.05
767.046	0.04
767.358	0.05
767.669	0.05
767.981	0.05
768.292	0.04
768.604	0.05
768.915	0.04
769.226	0.04
769.537	0.03
769.849	0.05
770.16	0.04
770.471	0.04
770.782	0.03
771.093	0.04
771.404	0.03
771.715	0.04
772.025	0.05
772.336	0.03
772.647	0.04
772.957	0.04
773.268	0.04
773.578	0.04
773.889	0.04
774.199	0.05
774.51	0.05
774.82	0.05
775.13	0.05
775.44	0.05
775.75	0.05
776.06	0.05
776.37	0.05
776.68	0.05
776.99	0.05
777.3	0.05
777.61	0.06
777.92	0.05
778.229	0.05
778.539	0.05
778.848	0.05
779.158	0.06
779.467	0.05
779.777	0.05
780.086	0.06
780.395	0.04
780.704	0.04
781.013	0.04
781.323	0.04
781.632	0.05
781.941	0.05
782.249	0.05
782.558	0.04
782.867	0.05
783.176	0.04
783.485	0.04
783.793	0.05
784.102	0.04
784.41	0.05
784.719	0.05
785.027	0.05
785.335	0.05
785.644	0.04
785.952	0.04
786.26	0.05
786.568	0.04
786.876	0.04
787.184	0.05
787.492	0.05
787.8	0.05
788.108	0.05
788.416	0.05
788.723	0.05
789.031	0.04
789.338	0.04
789.646	0.04
789.953	0.05
790.261	0.05
790.568	0.05
790.876	0.05
791.183	0.05
791.49	0.05
791.797	0.06
792.104	0.04
792.411	0.05
792.718	0.05
793.025	0.04
793.332	0.05
793.639	0.05
793.945	0.06
794.252	0.05
794.559	0.05
794.865	0.05
795.172	0.05
795.478	0.05
795.784	0.05
796.091	0.04
796.397	0.06
796.703	0.05
797.009	0.06
797.315	0.06
797.622	0.05
797.927	0.05
798.233	0.05
798.539	0.06
798.845	0.05
799.151	0.05
799.456	0.06
799.762	0.06
800.068	0.05
800.373	0.06
800.679	0.05
800.984	0.05
801.289	0.05
801.595	0.06
801.9	0.05
802.205	0.05
802.51	0.05
802.815	0.05
803.12	0.06
803.425	0.06
803.73	0.05
804.035	0.05
804.339	0.05
804.644	0.04
804.949	0.05
805.253	0.05
805.558	0.05
805.862	0.05
806.167	0.05
806.471	0.05
806.775	0.05
807.08	0.04
807.384	0.05
807.688	0.05
807.992	0.05
808.296	0.04
808.6	0.05
808.904	0.06
809.207	0.05
809.511	0.06
809.815	0.06
810.119	0.05
810.422	0.07
810.726	0.06
811.029	0.06
811.332	0.06
811.636	0.06
811.939	0.06
812.242	0.06
812.546	0.06
812.849	0.05
813.152	0.06
813.455	0.06
813.758	0.06
814.06	0.06
814.363	0.06
814.666	0.06
814.969	0.06
815.271	0.06
815.574	0.05
815.877	0.05
816.179	0.05
816.481	0.05
816.784	0.06
817.086	0.04
817.388	0.04
817.69	0.04
817.993	0.04
818.295	0.04
818.597	0.04
818.899	0.03
819.2	0.03
819.502	0.03
819.804	0.05
820.106	0.04
820.407	0.04
820.709	0.04
821.01	0.04
821.312	0.04
821.613	0.04
821.915	0.04
822.216	0.04
822.517	0.03
822.818	0.03
823.119	0.04
823.42	0.04
823.721	0.03
824.022	0.03
824.323	0.03
824.624	0.03
824.925	0.04
825.226	0.04
825.526	0.04
825.827	0.03
826.127	0.04
826.428	0.04
826.728	0.03
827.028	0.03
827.329	0.03
827.629	0.02
827.929	0.03
828.229	0.04
828.529	0.04
828.829	0.04
829.129	0.03
829.429	0.03
829.729	0.03
830.029	0.02
830.328	0.03
830.628	0.02
830.927	0.02
831.227	0.03
831.526	0.03
831.826	0.03
832.125	0.03
832.424	0.02
832.724	0.03
833.023	0.03
833.322	0.03
833.621	0.02
833.92	0.02
834.219	0.02
834.518	0.03
834.816	0.01
835.115	0.02
835.414	0.02
835.712	0.02
836.011	0.01
836.309	0.02
836.608	0.01
836.906	0.01
837.205	0
837.503	0
837.801	-0
838.099	0
838.397	-0.01
838.695	0
838.993	-0.01
839.291	-0.01
839.589	-0.01
839.887	-0.01
840.184	-0.01
840.482	-0.02
840.78	-0.01
841.077	-0.02
841.375	-0.02
841.672	-0.01
841.969	-0.01
842.267	-0.01
842.564	-0.01
842.861	-0.01
843.158	-0.01
843.455	-0.03
843.752	-0.02
844.049	-0.02
844.346	-0.03
844.643	-0.03
844.94	-0.02
845.236	-0.01
845.533	-0.02
845.83	-0.02
846.126	-0.03
846.423	-0.03
846.719	-0.03
847.015	-0.03
847.312	-0.03
847.608	-0.04
847.904	-0.05
848.2	-0.04
848.496	-0.04
848.792	-0.03
849.088	-0.03
849.384	-0.04
849.68	-0.05
849.975	-0.04
850.271	-0.05
850.567	-0.06
850.862	-0.05
851.158	-0.05
851.453	-0.05
851.748	-0.06
852.044	-0.06
852.339	-0.06
852.634	-0.07
852.929	-0.06
853.224	-0.06
853.519	-0.06
853.814	-0.06
854.109	-0.07
854.404	-0.06
854.699	-0.07
854.994	-0.06
855.288	-0.05
855.583	-0.06
855.877	-0.06
856.172	-0.07
856.466	-0.06
856.76	-0.05
857.055	-0.07
857.349	-0.08
857.643	-0.08
857.937	-0.08
858.231	-0.08
858.525	-0.08
858.819	-0.08
859.113	-0.1
859.407	-0.1
859.701	-0.11
859.994	-0.1
860.288	-0.09
860.581	-0.11
860.875	-0.1
861.168	-0.11
861.462	-0.1
861.755	-0.09
862.048	-0.11
862.341	-0.1
862.634	-0.11
862.928	-0.1
863.221	-0.11
863.513	-0.12
863.806	-0.11
864.099	-0.12
864.392	-0.11
864.685	-0.11
864.977	-0.12
865.27	-0.12
865.562	-0.1
865.855	-0.12
866.147	-0.12
866.44	-0.12
866.732	-0.12
867.024	-0.13
867.316	-0.13
867.608	-0.13
867.9	-0.12
868.192	-0.13
868.484	-0.13
868.776	-0.13
869.068	-0.14
869.359	-0.14
869.651	-0.13
869.943	-0.15
870.234	-0.14
870.526	-0.14
870.817	-0.15
871.108	-0.14
871.4	-0.13
871.691	-0.15
871.982	-0.15
872.273	-0.16
872.564	-0.14
872.855	-0.15
873.146	-0.15
873.437	-0.16
873.728	-0.17
874.019	-0.15
874.309	-0.16
874.6	-0.16
874.89	-0.15
875.181	-0.17
875.471	-0.15
875.762	-0.15
876.052	-0.15
876.342	-0.14
876.632	-0.17
876.922	-0.17
877.213	-0.17
877.503	-0.18
877.792	-0.15
878.082	-0.18
878.372	-0.16
878.662	-0.18
878.952	-0.17
879.241	-0.17
879.531	-0.15
879.82	-0.16
880.11	-0.17
880.399	-0.16
880.688	-0.16
880.978	-0.16
881.267	-0.16
