Data from 12-12-AQDScycling_Absorbance__960__00960.txt Node

Date: Tue Dec 12 14:56:44 EST 2023
User: kyuminlee
Spectrometer: FLMS00943
Trigger mode: 0
Integration Time (sec): 1.000000E-1
Scans to average: 1
Electric dark correction enabled: true
Nonlinearity correction enabled: false
Boxcar width: 0
XAxis mode: Wavelengths
Number of Pixels in Spectrum: 2048
>>>>>Begin Spectral Data<<<<<
179.651	-0
180.037	-0
180.424	-0
180.81	0.32
181.197	0.29
181.583	-0
181.97	-0.22
182.356	-0
182.743	-0
183.129	0.26
183.515	0.47
183.901	-1.11
184.288	-0.07
184.674	-0
185.06	-0.83
185.446	-0.44
185.832	-1.24
186.218	0.21
186.604	-0.15
186.99	-0
187.376	0.45
187.762	0.1
188.148	0.22
188.534	-0.35
188.92	0.17
189.305	-0.02
189.691	0.11
190.077	0.24
190.463	0.07
190.848	0.03
191.234	0.06
191.619	0.01
192.005	0.16
192.391	0.05
192.776	0.14
193.161	-0
193.547	-0
193.932	-0.05
194.318	0.07
194.703	0.14
195.088	0.27
195.473	0.21
195.859	0.21
196.244	0.21
196.629	0.07
197.014	0.07
197.399	0.15
197.784	0.11
198.169	0.05
198.554	0.23
198.939	0.05
199.324	0.12
199.709	0.1
200.094	0.08
200.478	0.14
200.863	0.21
201.248	0.23
201.633	0.17
202.017	0.01
202.402	0.05
202.787	0.14
203.171	0.17
203.556	0.09
203.94	0.1
204.325	0.22
204.709	0.11
205.093	0.1
205.478	0.07
205.862	0.16
206.246	0.17
206.631	0.03
207.015	0.11
207.399	0.19
207.783	0.07
208.167	0.15
208.551	0.08
208.935	0.1
209.319	0.18
209.703	0.05
210.087	0.14
210.471	-0.04
210.855	0.12
211.239	0.25
211.623	0.24
212.007	0.27
212.39	0.25
212.774	0.25
213.158	0.06
213.541	0.21
213.925	0.25
214.309	0.26
214.692	0.35
215.076	0.24
215.459	0.16
215.842	0.16
216.226	0.42
216.609	0.28
216.993	0.22
217.376	0.37
217.759	0.21
218.142	0.27
218.525	0.43
218.909	0.37
219.292	0.22
219.675	0.36
220.058	0.46
220.441	0.39
220.824	0.41
221.207	0.56
221.59	0.43
221.973	0.56
222.355	0.47
222.738	0.55
223.121	0.61
223.504	0.56
223.886	0.75
224.269	0.67
224.652	0.57
225.034	0.67
225.417	0.6
225.799	0.94
226.182	0.98
226.564	0.84
226.947	0.69
227.329	0.68
227.711	0.8
228.094	0.95
228.476	1.07
228.858	0.74
229.24	0.75
229.623	0.93
230.005	0.79
230.387	0.73
230.769	0.74
231.151	0.88
231.533	0.87
231.915	1.01
232.297	1.03
232.679	1
233.061	0.97
233.442	1
233.824	0.92
234.206	1.08
234.588	0.97
234.969	1.07
235.351	0.94
235.733	1.04
236.114	0.98
236.496	1.04
236.877	0.98
237.259	0.98
237.64	0.97
238.022	1.02
238.403	0.98
238.784	1.04
239.165	0.94
239.547	0.99
239.928	1.08
240.309	0.95
240.69	1.01
241.071	1.14
241.452	1.19
241.834	1.1
242.215	1.07
242.595	1.04
242.976	1.02
243.357	1.05
243.738	0.99
244.119	1.26
244.5	1.23
244.881	1.1
245.261	1.22
245.642	1.11
246.023	1.06
246.403	1.11
246.784	1.12
247.164	1.19
247.545	1.13
247.925	1.32
248.306	1.2
248.686	1.52
249.067	1.18
249.447	1.41
249.827	1.38
250.207	1.38
250.588	1.29
250.968	1.28
251.348	1.19
251.728	1.39
252.108	1.27
252.488	1.33
252.868	1.27
253.248	1.28
253.628	1.33
254.008	1.38
254.388	1.3
254.768	1.33
255.147	1.4
255.527	1.42
255.907	1.3
256.287	1.26
256.666	1.43
257.046	1.4
257.425	1.57
257.805	1.22
258.184	1.26
258.564	1.32
258.943	1.36
259.323	1.46
259.702	1.36
260.081	1.55
260.461	1.5
260.84	1.49
261.219	1.65
261.598	1.35
261.977	1.5
262.356	1.56
262.736	1.51
263.115	1.44
263.494	1.36
263.873	1.42
264.251	1.51
264.63	1.42
265.009	1.34
265.388	1.3
265.767	1.32
266.145	1.39
266.524	1.38
266.903	1.47
267.281	1.4
267.66	1.38
268.039	1.41
268.417	1.33
268.796	1.31
269.174	1.32
269.552	1.28
269.931	1.49
270.309	1.35
270.687	1.46
271.066	1.55
271.444	1.4
271.822	1.48
272.2	1.28
272.578	1.52
272.956	1.3
273.334	1.33
273.712	1.38
274.09	1.37
274.468	1.35
274.846	1.3
275.224	1.39
275.602	1.37
275.98	1.42
276.357	1.44
276.735	1.39
277.113	1.29
277.49	1.2
277.868	1.24
278.246	1.36
278.623	1.34
279.001	1.25
279.378	1.3
279.756	1.51
280.133	1.54
280.51	1.51
280.888	1.37
281.265	1.33
281.642	1.5
282.019	1.69
282.396	1.43
282.773	1.39
283.151	1.59
283.528	1.54
283.905	1.24
284.282	1.45
284.659	1.54
285.035	1.38
285.412	1.33
285.789	1.55
286.166	1.41
286.543	1.44
286.919	1.51
287.296	1.46
287.673	1.64
288.049	1.48
288.426	1.58
288.802	1.38
289.179	1.36
289.555	1.58
289.932	1.44
290.308	1.35
290.684	1.39
291.061	1.25
291.437	1.54
291.813	1.4
292.189	1.25
292.565	1.25
292.942	1.29
293.318	1.4
293.694	1.25
294.07	1.25
294.446	1.45
294.822	1.57
295.197	1.33
295.573	1.52
295.949	1.55
296.325	1.46
296.701	1.53
297.076	1.52
297.452	1.62
297.828	1.43
298.203	1.48
298.579	1.37
298.954	1.36
299.33	1.37
299.705	1.47
300.081	1.48
300.456	1.49
300.831	1.41
301.206	1.4
301.582	1.45
301.957	1.4
302.332	1.56
302.707	1.37
303.082	1.48
303.457	1.58
303.832	1.42
304.207	1.46
304.582	1.5
304.957	1.54
305.332	1.45
305.707	1.49
306.082	1.58
306.456	1.53
306.831	1.45
307.206	1.51
307.58	1.51
307.955	1.48
308.33	1.65
308.704	1.37
309.079	1.34
309.453	1.66
309.828	1.56
310.202	1.4
310.576	1.32
310.951	1.64
311.325	1.51
311.699	1.39
312.073	1.47
312.447	1.54
312.821	1.41
313.196	1.51
313.57	1.43
313.944	1.38
314.317	1.41
314.691	1.51
315.065	1.34
315.439	1.54
315.813	1.56
316.187	1.45
316.56	1.59
316.934	1.48
317.308	1.46
317.681	1.49
318.055	1.5
318.428	1.51
318.802	1.47
319.175	1.38
319.549	1.51
319.922	1.32
320.295	1.41
320.669	1.5
321.042	1.48
321.415	1.81
321.788	1.51
322.162	1.5
322.535	1.51
322.908	1.49
323.281	1.47
323.654	1.53
324.027	1.53
324.4	1.51
324.773	1.44
325.145	1.5
325.518	1.44
325.891	1.4
326.264	1.69
326.636	1.35
327.009	1.42
327.382	1.43
327.754	1.67
328.127	1.41
328.499	1.48
328.872	1.42
329.244	1.52
329.616	1.44
329.989	1.6
330.361	1.41
330.733	1.47
331.106	1.38
331.478	1.54
331.85	1.51
332.222	1.35
332.594	1.52
332.966	1.47
333.338	1.64
333.71	1.59
334.082	1.84
334.454	1.37
334.826	1.57
335.197	1.48
335.569	1.46
335.941	1.33
336.312	1.47
336.684	1.38
337.056	1.51
337.427	1.52
337.799	1.48
338.17	1.43
338.542	1.48
338.913	1.63
339.284	1.59
339.656	1.56
340.027	1.54
340.398	1.52
340.769	1.52
341.141	1.67
341.512	1.54
341.883	1.52
342.254	1.4
342.625	1.52
342.996	1.49
343.367	1.58
343.738	1.57
344.108	1.48
344.479	1.68
344.85	1.44
345.221	1.55
345.591	1.37
345.962	1.36
346.333	1.43
346.703	1.3
347.074	1.27
347.444	1.26
347.815	1.42
348.185	1.44
348.556	1.34
348.926	1.31
349.296	1.29
349.666	1.32
350.037	1.3
350.407	1.25
350.777	1.33
351.147	1.4
351.517	1.3
351.887	1.41
352.257	1.35
352.627	1.23
352.997	1.26
353.367	1.34
353.737	1.34
354.106	1.42
354.476	1.29
354.846	1.34
355.216	1.37
355.585	1.31
355.955	1.33
356.324	1.24
356.694	1.27
357.063	1.3
357.433	1.17
357.802	1.23
358.171	1.27
358.541	1.2
358.91	1.22
359.279	1.19
359.648	1.13
360.017	1.14
360.387	1.14
360.756	1.05
361.125	1.06
361.494	1.07
361.863	1
362.231	0.98
362.6	1.01
362.969	0.96
363.338	0.94
363.707	0.95
364.075	0.89
364.444	0.82
364.813	0.84
365.181	0.82
365.55	0.82
365.918	0.8
366.287	0.77
366.655	0.77
367.024	0.76
367.392	0.77
367.76	0.71
368.128	0.72
368.497	0.68
368.865	0.67
369.233	0.68
369.601	0.65
369.969	0.63
370.337	0.61
370.705	0.61
371.073	0.61
371.441	0.6
371.809	0.57
372.177	0.59
372.544	0.59
372.912	0.55
373.28	0.56
373.647	0.54
374.015	0.53
374.383	0.54
374.75	0.52
375.118	0.5
375.485	0.49
375.853	0.51
376.22	0.47
376.587	0.49
376.955	0.49
377.322	0.47
377.689	0.46
378.056	0.44
378.423	0.45
378.79	0.45
379.157	0.47
379.524	0.43
379.891	0.43
380.258	0.44
380.625	0.41
380.992	0.43
381.359	0.41
381.726	0.43
382.092	0.42
382.459	0.42
382.826	0.39
383.192	0.38
383.559	0.39
383.925	0.39
384.292	0.39
384.658	0.39
385.025	0.4
385.391	0.39
385.757	0.4
386.123	0.39
386.49	0.41
386.856	0.39
387.222	0.38
387.588	0.38
387.954	0.36
388.32	0.39
388.686	0.36
389.052	0.36
389.418	0.37
389.784	0.37
390.15	0.35
390.515	0.37
390.881	0.36
391.247	0.37
391.613	0.37
391.978	0.36
392.344	0.38
392.709	0.36
393.075	0.36
393.44	0.36
393.806	0.34
394.171	0.35
394.536	0.35
394.902	0.36
395.267	0.34
395.632	0.32
395.997	0.34
396.362	0.34
396.727	0.34
397.092	0.35
397.457	0.35
397.822	0.35
398.187	0.34
398.552	0.32
398.917	0.31
399.282	0.32
399.646	0.32
400.011	0.33
400.376	0.32
400.74	0.32
401.105	0.33
401.47	0.32
401.834	0.32
402.199	0.32
402.563	0.29
402.927	0.29
403.292	0.32
403.656	0.32
404.02	0.32
404.384	0.31
404.749	0.3
405.113	0.29
405.477	0.3
405.841	0.29
406.205	0.29
406.569	0.28
406.933	0.29
407.296	0.28
407.66	0.3
408.024	0.28
408.388	0.3
408.752	0.27
409.115	0.27
409.479	0.28
409.842	0.29
410.206	0.25
410.569	0.27
410.933	0.26
411.296	0.27
411.66	0.26
412.023	0.26
412.386	0.26
412.749	0.26
413.113	0.26
413.476	0.23
413.839	0.24
414.202	0.23
414.565	0.24
414.928	0.24
415.291	0.23
415.654	0.24
416.017	0.24
416.38	0.23
416.742	0.25
417.105	0.23
417.468	0.24
417.83	0.24
418.193	0.23
418.556	0.23
418.918	0.24
419.281	0.23
419.643	0.22
420.005	0.23
420.368	0.23
420.73	0.22
421.092	0.23
421.455	0.22
421.817	0.21
422.179	0.21
422.541	0.22
422.903	0.22
423.265	0.23
423.627	0.21
423.989	0.22
424.351	0.21
424.713	0.2
425.075	0.19
425.436	0.21
425.798	0.19
426.16	0.21
426.521	0.2
426.883	0.21
427.245	0.2
427.606	0.2
427.967	0.19
428.329	0.19
428.69	0.21
429.052	0.2
429.413	0.19
429.774	0.2
430.135	0.19
430.497	0.2
430.858	0.17
431.219	0.18
431.58	0.19
431.941	0.2
432.302	0.19
432.663	0.18
433.024	0.21
433.384	0.19
433.745	0.18
434.106	0.17
434.467	0.19
434.827	0.2
435.188	0.19
435.548	0.18
435.909	0.18
436.269	0.2
436.63	0.17
436.99	0.18
437.351	0.18
437.711	0.19
438.071	0.18
438.431	0.19
438.792	0.18
439.152	0.17
439.512	0.18
439.872	0.17
440.232	0.2
440.592	0.18
440.952	0.18
441.312	0.18
441.671	0.17
442.031	0.16
442.391	0.17
442.751	0.18
443.11	0.16
443.47	0.16
443.83	0.17
444.189	0.17
444.549	0.16
444.908	0.18
445.267	0.16
445.627	0.16
445.986	0.15
446.345	0.15
446.705	0.16
447.064	0.15
447.423	0.16
447.782	0.15
448.141	0.15
448.5	0.15
448.859	0.16
449.218	0.15
449.577	0.16
449.936	0.16
450.295	0.15
450.653	0.15
451.012	0.16
451.371	0.16
451.729	0.16
452.088	0.15
452.447	0.16
452.805	0.16
453.163	0.16
453.522	0.16
453.88	0.14
454.239	0.15
454.597	0.15
454.955	0.15
455.313	0.14
455.671	0.15
456.029	0.14
456.388	0.14
456.746	0.14
457.104	0.14
457.461	0.13
457.819	0.13
458.177	0.12
458.535	0.13
458.893	0.13
459.25	0.14
459.608	0.13
459.966	0.12
460.323	0.12
460.681	0.11
461.038	0.13
461.396	0.12
461.753	0.12
462.111	0.12
462.468	0.11
462.825	0.11
463.182	0.11
463.54	0.11
463.897	0.12
464.254	0.11
464.611	0.12
464.968	0.11
465.325	0.11
465.682	0.11
466.039	0.11
466.395	0.11
466.752	0.1
467.109	0.11
467.466	0.12
467.822	0.11
468.179	0.11
468.535	0.11
468.892	0.11
469.248	0.1
469.605	0.1
469.961	0.1
470.318	0.12
470.674	0.1
471.03	0.1
471.386	0.1
471.743	0.09
472.099	0.1
472.455	0.09
472.811	0.1
473.167	0.1
473.523	0.08
473.879	0.1
474.235	0.1
474.59	0.09
474.946	0.09
475.302	0.09
475.657	0.08
476.013	0.09
476.369	0.09
476.724	0.09
477.08	0.09
477.435	0.09
477.791	0.09
478.146	0.09
478.501	0.08
478.857	0.09
479.212	0.08
479.567	0.09
479.922	0.07
480.277	0.08
480.632	0.08
480.987	0.08
481.342	0.08
481.697	0.07
482.052	0.08
482.407	0.07
482.762	0.07
483.116	0.08
483.471	0.07
483.826	0.07
484.18	0.07
484.535	0.06
484.89	0.07
485.244	0.07
485.598	0.07
485.953	0.07
486.307	0.07
486.661	0.07
487.016	0.06
487.37	0.07
487.724	0.07
488.078	0.07
488.432	0.07
488.786	0.07
489.14	0.06
489.494	0.06
489.848	0.06
490.202	0.06
490.556	0.06
490.91	0.07
491.263	0.06
491.617	0.06
491.971	0.06
492.324	0.06
492.678	0.07
493.031	0.07
493.385	0.07
493.738	0.06
494.091	0.06
494.445	0.06
494.798	0.06
495.151	0.05
495.504	0.06
495.857	0.06
496.21	0.06
496.564	0.06
496.916	0.07
497.269	0.06
497.622	0.06
497.975	0.06
498.328	0.06
498.681	0.06
499.033	0.05
499.386	0.06
499.739	0.05
500.091	0.05
500.444	0.06
500.796	0.05
501.149	0.05
501.501	0.05
501.854	0.06
502.206	0.05
502.558	0.05
502.91	0.05
503.263	0.05
503.615	0.05
503.967	0.05
504.319	0.05
504.671	0.05
505.023	0.05
505.375	0.05
505.726	0.05
506.078	0.05
506.43	0.05
506.782	0.05
507.133	0.05
507.485	0.05
507.837	0.06
508.188	0.06
508.54	0.06
508.891	0.06
509.243	0.06
509.594	0.06
509.945	0.06
510.296	0.05
510.648	0.06
510.999	0.05
511.35	0.06
511.701	0.05
512.052	0.06
512.403	0.06
512.754	0.05
513.105	0.05
513.456	0.05
513.807	0.04
514.157	0.06
514.508	0.05
514.859	0.05
515.209	0.05
515.56	0.06
515.91	0.05
516.261	0.05
516.611	0.05
516.962	0.06
517.312	0.05
517.662	0.05
518.013	0.05
518.363	0.06
518.713	0.05
519.063	0.05
519.413	0.06
519.763	0.05
520.113	0.06
520.463	0.06
520.813	0.07
521.163	0.06
521.512	0.06
521.862	0.06
522.212	0.06
522.562	0.06
522.911	0.05
523.261	0.05
523.61	0.05
523.96	0.06
524.309	0.06
524.658	0.06
525.008	0.05
525.357	0.06
525.706	0.06
526.056	0.06
526.405	0.05
526.754	0.05
527.103	0.05
527.452	0.06
527.801	0.06
528.15	0.06
528.499	0.05
528.847	0.06
529.196	0.06
529.545	0.06
529.893	0.07
530.242	0.06
530.591	0.06
530.939	0.07
531.288	0.07
531.636	0.07
531.985	0.06
532.333	0.07
532.681	0.06
533.029	0.07
533.378	0.06
533.726	0.06
534.074	0.06
534.422	0.06
534.77	0.06
535.118	0.05
535.466	0.06
535.814	0.06
536.162	0.06
536.509	0.07
536.857	0.05
537.205	0.06
537.552	0.06
537.9	0.06
538.248	0.05
538.595	0.06
538.943	0.06
539.29	0.06
539.637	0.06
539.985	0.06
540.332	0.06
540.679	0.06
541.026	0.06
541.373	0.07
541.721	0.06
542.068	0.05
542.415	0.06
542.762	0.05
543.108	0.05
543.455	0.05
543.802	0.05
544.149	0.06
544.496	0.06
544.842	0.06
545.189	0.05
545.535	0.05
545.882	0.06
546.228	0.04
546.575	0.04
546.921	0.04
547.267	0.04
547.614	0.05
547.96	0.05
548.306	0.05
548.652	0.04
548.998	0.05
549.344	0.04
549.69	0.05
550.036	0.05
550.382	0.05
550.728	0.04
551.074	0.05
551.42	0.05
551.765	0.06
552.111	0.06
552.457	0.05
552.802	0.06
553.148	0.05
553.493	0.06
553.839	0.05
554.184	0.05
554.529	0.05
554.875	0.06
555.22	0.06
555.565	0.06
555.91	0.05
556.255	0.06
556.6	0.06
556.945	0.05
557.29	0.05
557.635	0.05
557.98	0.05
558.325	0.06
558.67	0.05
559.014	0.05
559.359	0.05
559.704	0.06
560.048	0.05
560.393	0.05
560.737	0.05
561.082	0.05
561.426	0.05
561.77	0.05
562.115	0.05
562.459	0.06
562.803	0.05
563.147	0.05
563.491	0.05
563.835	0.05
564.179	0.05
564.523	0.05
564.867	0.05
565.211	0.04
565.555	0.05
565.899	0.06
566.242	0.05
566.586	0.04
566.93	0.05
567.273	0.06
567.617	0.06
567.96	0.06
568.304	0.06
568.647	0.05
568.99	0.06
569.334	0.07
569.677	0.06
570.02	0.06
570.363	0.06
570.706	0.06
571.049	0.05
571.392	0.06
571.735	0.05
572.078	0.06
572.421	0.07
572.764	0.05
573.106	0.06
573.449	0.05
573.792	0.05
574.134	0.05
574.477	0.06
574.819	0.05
575.162	0.05
575.504	0.04
575.847	0.05
576.189	0.05
576.531	0.05
576.873	0.05
577.215	0.05
577.558	0.05
577.9	0.05
578.242	0.05
578.584	0.05
578.926	0.05
579.267	0.05
579.609	0.05
579.951	0.05
580.293	0.05
580.634	0.05
580.976	0.05
581.318	0.05
581.659	0.05
582.001	0.05
582.342	0.05
582.683	0.05
583.025	0.06
583.366	0.05
583.707	0.05
584.049	0.05
584.39	0.05
584.731	0.05
585.072	0.05
585.413	0.06
585.754	0.05
586.095	0.05
586.435	0.05
586.776	0.05
587.117	0.05
587.458	0.05
587.798	0.05
588.139	0.05
588.48	0.04
588.82	0.05
589.161	0.05
589.501	0.04
589.841	0.05
590.182	0.04
590.522	0.05
590.862	0.05
591.202	0.05
591.542	0.04
591.882	0.05
592.222	0.05
592.562	0.04
592.902	0.05
593.242	0.04
593.582	0.05
593.922	0.04
594.261	0.04
594.601	0.05
594.941	0.05
595.28	0.05
595.62	0.05
595.959	0.05
596.299	0.05
596.638	0.04
596.977	0.05
597.317	0.05
597.656	0.06
597.995	0.05
598.334	0.05
598.673	0.05
599.012	0.06
599.351	0.06
599.69	0.05
600.029	0.06
600.368	0.06
600.707	0.06
601.046	0.06
601.384	0.06
601.723	0.06
602.061	0.05
602.4	0.05
602.738	0.06
603.077	0.05
603.415	0.05
603.754	0.06
604.092	0.05
604.43	0.05
604.768	0.05
605.107	0.05
605.445	0.04
605.783	0.05
606.121	0.05
606.459	0.06
606.796	0.06
607.134	0.04
607.472	0.04
607.81	0.05
608.148	0.05
608.485	0.05
608.823	0.05
609.16	0.05
609.498	0.06
609.835	0.05
610.173	0.05
610.51	0.05
610.847	0.05
611.185	0.05
611.522	0.06
611.859	0.06
612.196	0.05
612.533	0.06
612.87	0.06
613.207	0.06
613.544	0.05
613.881	0.06
614.217	0.06
614.554	0.06
614.891	0.06
615.228	0.06
615.564	0.06
615.901	0.06
616.237	0.06
616.574	0.06
616.91	0.07
617.246	0.06
617.583	0.06
617.919	0.06
618.255	0.06
618.591	0.06
618.927	0.06
619.263	0.07
619.599	0.07
619.935	0.06
620.271	0.06
620.607	0.07
620.943	0.06
621.279	0.07
621.614	0.07
621.95	0.06
622.286	0.06
622.621	0.06
622.957	0.06
623.292	0.06
623.627	0.06
623.963	0.06
624.298	0.06
624.633	0.06
624.968	0.06
625.304	0.05
625.639	0.05
625.974	0.05
626.309	0.06
626.644	0.06
626.979	0.06
627.313	0.06
627.648	0.06
627.983	0.06
628.318	0.05
628.652	0.05
628.987	0.06
629.321	0.06
629.656	0.05
629.99	0.04
630.325	0.06
630.659	0.05
630.993	0.04
631.327	0.05
631.662	0.04
631.996	0.04
632.33	0.05
632.664	0.05
632.998	0.05
633.332	0.04
633.666	0.05
633.999	0.04
634.333	0.04
634.667	0.04
635.001	0.04
635.334	0.04
635.668	0.04
636.001	0.04
636.335	0.04
636.668	0.04
637.001	0.04
637.335	0.04
637.668	0.04
638.001	0.04
638.334	0.04
638.668	0.04
639.001	0.04
639.334	0.04
639.667	0.04
639.999	0.04
640.332	0.04
640.665	0.04
640.998	0.04
641.331	0.05
641.663	0.04
641.996	0.05
642.328	0.04
642.661	0.05
642.993	0.05
643.326	0.05
643.658	0.04
643.99	0.04
644.323	0.05
644.655	0.05
644.987	0.05
645.319	0.05
645.651	0.06
645.983	0.05
646.315	0.05
646.647	0.06
646.979	0.07
647.31	0.06
647.642	0.06
647.974	0.06
648.305	0.06
648.637	0.06
648.968	0.06
649.3	0.06
649.631	0.05
649.963	0.05
650.294	0.05
650.625	0.05
650.957	0.06
651.288	0.06
651.619	0.06
651.95	0.06
652.281	0.06
652.612	0.05
652.943	0.05
653.274	0.06
653.604	0.06
653.935	0.06
654.266	0.05
654.596	0.05
654.927	0.05
655.258	0.06
655.588	0.06
655.918	0.06
656.249	0.04
656.579	0.05
656.909	0.05
657.24	0.04
657.57	0.06
657.9	0.05
658.23	0.05
658.56	0.06
658.89	0.05
659.22	0.06
659.55	0.05
659.88	0.05
660.209	0.06
660.539	0.06
660.869	0.05
661.198	0.06
661.528	0.05
661.857	0.06
662.187	0.06
662.516	0.06
662.846	0.05
663.175	0.05
663.504	0.06
663.833	0.05
664.163	0.05
664.492	0.05
664.821	0.05
665.15	0.05
665.479	0.05
665.807	0.05
666.136	0.05
666.465	0.05
666.794	0.05
667.122	0.05
667.451	0.05
667.78	0.06
668.108	0.06
668.437	0.05
668.765	0.05
669.093	0.06
669.422	0.05
669.75	0.06
670.078	0.06
670.406	0.06
670.734	0.06
671.062	0.07
671.39	0.06
671.718	0.06
672.046	0.06
672.374	0.06
672.702	0.06
673.029	0.05
673.357	0.06
673.685	0.07
674.012	0.06
674.34	0.06
674.667	0.06
674.995	0.06
675.322	0.06
675.649	0.05
675.977	0.06
676.304	0.06
676.631	0.06
676.958	0.05
677.285	0.05
677.612	0.05
677.939	0.06
678.266	0.06
678.593	0.06
678.92	0.06
679.246	0.05
679.573	0.06
679.9	0.05
680.226	0.05
680.553	0.05
680.879	0.06
681.206	0.06
681.532	0.06
681.858	0.05
682.184	0.06
682.511	0.06
682.837	0.06
683.163	0.06
683.489	0.06
683.815	0.05
684.141	0.06
684.467	0.06
684.793	0.06
685.118	0.06
685.444	0.06
685.77	0.06
686.095	0.06
686.421	0.06
686.746	0.05
687.072	0.05
687.397	0.05
687.723	0.06
688.048	0.06
688.373	0.05
688.698	0.06
689.023	0.06
689.349	0.05
689.674	0.06
689.999	0.05
690.323	0.04
690.648	0.05
690.973	0.05
691.298	0.05
691.623	0.05
691.947	0.04
692.272	0.04
692.596	0.05
692.921	0.05
693.245	0.05
693.57	0.05
693.894	0.05
694.218	0.06
694.543	0.05
694.867	0.05
695.191	0.05
695.515	0.06
695.839	0.05
696.163	0.06
696.487	0.06
696.811	0.06
697.135	0.06
697.458	0.06
697.782	0.05
698.106	0.05
698.429	0.06
698.753	0.05
699.076	0.05
699.4	0.05
699.723	0.05
700.046	0.04
700.37	0.05
700.693	0.05
701.016	0.05
701.339	0.05
701.662	0.06
701.985	0.06
702.308	0.05
702.631	0.05
702.954	0.05
703.277	0.05
703.599	0.05
703.922	0.04
704.245	0.04
704.567	0.05
704.89	0.05
705.212	0.05
705.535	0.04
705.857	0.04
706.179	0.03
706.502	0.04
706.824	0.05
707.146	0.04
707.468	0.05
707.79	0.04
708.112	0.05
708.434	0.04
708.756	0.05
709.078	0.05
709.399	0.04
709.721	0.04
710.043	0.05
710.364	0.05
710.686	0.04
711.007	0.05
711.329	0.05
711.65	0.05
711.972	0.05
712.293	0.06
712.614	0.05
712.935	0.05
713.256	0.05
713.577	0.06
713.898	0.06
714.219	0.05
714.54	0.06
714.861	0.05
715.182	0.05
715.503	0.05
715.823	0.05
716.144	0.06
716.464	0.05
716.785	0.05
717.105	0.05
717.426	0.05
717.746	0.05
718.066	0.05
718.387	0.05
718.707	0.04
719.027	0.05
719.347	0.04
719.667	0.05
719.987	0.04
720.307	0.04
720.627	0.04
720.947	0.04
721.266	0.04
721.586	0.04
721.906	0.04
722.225	0.03
722.545	0.04
722.864	0.04
723.184	0.04
723.503	0.04
723.823	0.04
724.142	0.04
724.461	0.04
724.78	0.04
725.099	0.04
725.418	0.05
725.737	0.04
726.056	0.05
726.375	0.05
726.694	0.05
727.013	0.04
727.331	0.04
727.65	0.04
727.969	0.04
728.287	0.04
728.606	0.04
728.924	0.04
729.242	0.04
729.561	0.04
729.879	0.05
730.197	0.05
730.515	0.04
730.834	0.04
731.152	0.04
731.47	0.05
731.788	0.05
732.105	0.04
732.423	0.04
732.741	0.05
733.059	0.05
733.376	0.05
733.694	0.04
734.012	0.04
734.329	0.05
734.647	0.05
734.964	0.05
735.281	0.05
735.599	0.06
735.916	0.06
736.233	0.05
736.55	0.05
736.867	0.06
737.184	0.07
737.501	0.05
737.818	0.06
738.135	0.06
738.452	0.05
738.768	0.06
739.085	0.05
739.402	0.05
739.718	0.06
740.035	0.05
740.351	0.06
740.668	0.05
740.984	0.06
741.3	0.04
741.617	0.05
741.933	0.04
742.249	0.05
742.565	0.05
742.881	0.05
743.197	0.05
743.513	0.04
743.829	0.04
744.144	0.04
744.46	0.04
744.776	0.06
745.091	0.05
745.407	0.04
745.722	0.04
746.038	0.04
746.353	0.04
746.669	0.04
746.984	0.04
747.299	0.05
747.614	0.05
747.93	0.05
748.245	0.04
748.56	0.04
748.875	0.04
749.189	0.04
749.504	0.04
749.819	0.04
750.134	0.04
750.448	0.04
750.763	0.05
751.078	0.03
751.392	0.04
751.707	0.05
752.021	0.05
752.335	0.05
752.65	0.05
752.964	0.04
753.278	0.05
753.592	0.04
753.906	0.04
754.22	0.04
754.534	0.04
754.848	0.04
755.162	0.04
755.476	0.05
755.789	0.04
756.103	0.04
756.417	0.05
756.73	0.05
757.044	0.04
757.357	0.04
757.671	0.04
757.984	0.04
758.297	0.06
758.61	0.05
758.924	0.05
759.237	0.04
759.55	0.04
759.863	0.04
760.176	0.04
760.488	0.03
760.801	0.04
761.114	0.04
761.427	0.03
761.739	0.04
762.052	0.04
762.365	0.04
762.677	0.04
762.99	0.03
763.302	0.05
763.614	0.05
763.926	0.05
764.239	0.05
764.551	0.04
764.863	0.04
765.175	0.04
765.487	0.04
765.799	0.04
766.111	0.04
766.423	0.04
766.734	0.05
767.046	0.04
767.358	0.04
767.669	0.04
767.981	0.05
768.292	0.04
768.604	0.04
768.915	0.04
769.226	0.04
769.537	0.03
769.849	0.05
770.16	0.04
770.471	0.03
770.782	0.04
771.093	0.04
771.404	0.02
771.715	0.03
772.025	0.03
772.336	0.03
772.647	0.03
772.957	0.04
773.268	0.04
773.578	0.04
773.889	0.04
774.199	0.05
774.51	0.04
774.82	0.03
775.13	0.05
775.44	0.05
775.75	0.05
776.06	0.04
776.37	0.04
776.68	0.05
776.99	0.05
777.3	0.05
777.61	0.06
777.92	0.04
778.229	0.05
778.539	0.05
778.848	0.04
779.158	0.05
779.467	0.06
779.777	0.04
780.086	0.06
780.395	0.04
780.704	0.05
781.013	0.04
781.323	0.04
781.632	0.04
781.941	0.05
782.249	0.05
782.558	0.04
782.867	0.05
783.176	0.04
783.485	0.04
783.793	0.05
784.102	0.04
784.41	0.04
784.719	0.04
785.027	0.04
785.335	0.05
785.644	0.05
785.952	0.05
786.26	0.04
786.568	0.04
786.876	0.04
787.184	0.04
787.492	0.05
787.8	0.04
788.108	0.05
788.416	0.04
788.723	0.05
789.031	0.04
789.338	0.04
789.646	0.04
789.953	0.04
790.261	0.05
790.568	0.05
790.876	0.05
791.183	0.05
791.49	0.04
791.797	0.05
792.104	0.04
792.411	0.04
792.718	0.05
793.025	0.05
793.332	0.04
793.639	0.05
793.945	0.06
794.252	0.06
794.559	0.04
794.865	0.05
795.172	0.04
795.478	0.04
795.784	0.04
796.091	0.04
796.397	0.05
796.703	0.05
797.009	0.06
797.315	0.05
797.622	0.05
797.927	0.05
798.233	0.05
798.539	0.05
798.845	0.05
799.151	0.05
799.456	0.05
799.762	0.05
800.068	0.05
800.373	0.06
800.679	0.04
800.984	0.05
801.289	0.05
801.595	0.05
801.9	0.05
802.205	0.05
802.51	0.05
802.815	0.05
803.12	0.05
803.425	0.05
803.73	0.05
804.035	0.05
804.339	0.04
804.644	0.05
804.949	0.05
805.253	0.04
805.558	0.06
805.862	0.05
806.167	0.05
806.471	0.04
806.775	0.05
807.08	0.06
807.384	0.04
807.688	0.05
807.992	0.05
808.296	0.05
808.6	0.05
808.904	0.05
809.207	0.05
809.511	0.06
809.815	0.06
810.119	0.05
810.422	0.06
810.726	0.06
811.029	0.07
811.332	0.05
811.636	0.06
811.939	0.05
812.242	0.06
812.546	0.05
812.849	0.05
813.152	0.06
813.455	0.05
813.758	0.06
814.06	0.05
814.363	0.06
814.666	0.06
814.969	0.05
815.271	0.05
815.574	0.05
815.877	0.04
816.179	0.05
816.481	0.05
816.784	0.05
817.086	0.04
817.388	0.04
817.69	0.04
817.993	0.03
818.295	0.04
818.597	0.04
818.899	0.03
819.2	0.04
819.502	0.04
819.804	0.04
820.106	0.03
820.407	0.03
820.709	0.04
821.01	0.04
821.312	0.04
821.613	0.04
821.915	0.04
822.216	0.03
822.517	0.03
822.818	0.04
823.119	0.03
823.42	0.03
823.721	0.02
824.022	0.03
824.323	0.03
824.624	0.03
824.925	0.04
825.226	0.05
825.526	0.04
825.827	0.03
826.127	0.04
826.428	0.04
826.728	0.03
827.028	0.03
827.329	0.04
827.629	0.03
827.929	0.03
828.229	0.03
828.529	0.04
828.829	0.03
829.129	0.03
829.429	0.03
829.729	0.03
830.029	0.02
830.328	0.03
830.628	0.02
830.927	0.02
831.227	0.02
831.526	0.03
831.826	0.02
832.125	0.03
832.424	0.02
832.724	0.03
833.023	0.02
833.322	0.02
833.621	0.02
833.92	0.02
834.219	0.02
834.518	0.02
834.816	0.01
835.115	0.02
835.414	0.02
835.712	0.01
836.011	0.01
836.309	0.01
836.608	0.01
836.906	0.01
837.205	0.01
837.503	0
837.801	0
838.099	-0.01
838.397	-0.01
838.695	-0.01
838.993	-0
839.291	-0.01
839.589	-0.01
839.887	-0.01
840.184	-0.02
840.482	-0.01
840.78	-0.01
841.077	-0.02
841.375	-0.02
841.672	-0.01
841.969	-0.02
842.267	-0.01
842.564	-0.02
842.861	-0
843.158	-0.02
843.455	-0.03
843.752	-0.02
844.049	-0.03
844.346	-0.02
844.643	-0.03
844.94	-0.03
845.236	-0.01
845.533	-0.02
845.83	-0.02
846.126	-0.02
846.423	-0.02
846.719	-0.03
847.015	-0.02
847.312	-0.04
847.608	-0.04
847.904	-0.05
848.2	-0.05
848.496	-0.04
848.792	-0.04
849.088	-0.04
849.384	-0.05
849.68	-0.05
849.975	-0.05
850.271	-0.06
850.567	-0.06
850.862	-0.06
851.158	-0.06
851.453	-0.06
851.748	-0.06
852.044	-0.06
852.339	-0.06
852.634	-0.07
852.929	-0.06
853.224	-0.07
853.519	-0.06
853.814	-0.06
854.109	-0.07
854.404	-0.07
854.699	-0.07
854.994	-0.06
855.288	-0.06
855.583	-0.06
855.877	-0.08
856.172	-0.07
856.466	-0.06
856.76	-0.05
857.055	-0.07
857.349	-0.08
857.643	-0.07
857.937	-0.09
858.231	-0.09
858.525	-0.08
858.819	-0.07
859.113	-0.09
859.407	-0.1
859.701	-0.09
859.994	-0.1
860.288	-0.08
860.581	-0.1
860.875	-0.09
861.168	-0.1
861.462	-0.11
861.755	-0.1
862.048	-0.11
862.341	-0.11
862.634	-0.11
862.928	-0.11
863.221	-0.11
863.513	-0.11
863.806	-0.11
864.099	-0.11
864.392	-0.12
864.685	-0.11
864.977	-0.11
865.27	-0.12
865.562	-0.12
865.855	-0.12
866.147	-0.12
866.44	-0.11
866.732	-0.13
867.024	-0.13
867.316	-0.13
867.608	-0.13
867.9	-0.12
868.192	-0.13
868.484	-0.13
868.776	-0.14
869.068	-0.14
869.359	-0.13
869.651	-0.14
869.943	-0.15
870.234	-0.15
870.526	-0.14
870.817	-0.14
871.108	-0.14
871.4	-0.14
871.691	-0.16
871.982	-0.16
872.273	-0.17
872.564	-0.15
872.855	-0.14
873.146	-0.16
873.437	-0.15
873.728	-0.17
874.019	-0.15
874.309	-0.16
874.6	-0.16
874.89	-0.16
875.181	-0.16
875.471	-0.15
875.762	-0.16
876.052	-0.15
876.342	-0.14
876.632	-0.15
876.922	-0.16
877.213	-0.17
877.503	-0.18
877.792	-0.17
878.082	-0.17
878.372	-0.16
878.662	-0.17
878.952	-0.18
879.241	-0.17
879.531	-0.15
879.82	-0.17
880.11	-0.16
880.399	-0.17
880.688	-0.15
880.978	-0.15
881.267	-0.15
