Data from 12-12-AQDScycling_Absorbance__354__00354.txt Node

Date: Tue Dec 12 12:25:14 EST 2023
User: kyuminlee
Spectrometer: FLMS00943
Trigger mode: 0
Integration Time (sec): 1.000000E-1
Scans to average: 1
Electric dark correction enabled: true
Nonlinearity correction enabled: false
Boxcar width: 0
XAxis mode: Wavelengths
Number of Pixels in Spectrum: 2048
>>>>>Begin Spectral Data<<<<<
179.651	-0
180.037	-0
180.424	-0
180.81	-0.48
181.197	0.18
181.583	-0.17
181.97	-0.03
182.356	-0
182.743	-0
183.129	1.55
183.515	-0.07
183.901	-2.7
184.288	0.29
184.674	0.47
185.06	-1.18
185.446	-0
185.832	-0.98
186.218	0.07
186.604	0.66
186.99	-0
187.376	-0
187.762	-0.37
188.148	0.16
188.534	0.06
188.92	0.14
189.305	0.04
189.691	0.18
190.077	0.22
190.463	0.17
190.848	0.01
191.234	0.09
191.619	0.02
192.005	0.08
192.391	0.1
192.776	0.25
193.161	0.19
193.547	0.18
193.932	0.01
194.318	0.08
194.703	0.18
195.088	0.2
195.473	0.23
195.859	0.03
196.244	0.04
196.629	0.09
197.014	0.18
197.399	0.07
197.784	0.16
198.169	0.08
198.554	-0
198.939	0.15
199.324	0.23
199.709	0.16
200.094	0.18
200.478	0.03
200.863	0.16
201.248	0.19
201.633	0.2
202.017	0.15
202.402	0.45
202.787	0.13
203.171	0.16
203.556	0.21
203.94	0.22
204.325	0.24
204.709	0.12
205.093	0.06
205.478	0.18
205.862	0.06
206.246	0.31
206.631	0.22
207.015	0.12
207.399	0.34
207.783	0.26
208.167	0.14
208.551	0.12
208.935	0.22
209.319	0.15
209.703	0.08
210.087	0.45
210.471	0.06
210.855	0.2
211.239	0.28
211.623	0.33
212.007	0.24
212.39	0.24
212.774	0.13
213.158	0.09
213.541	0.2
213.925	0.24
214.309	0.32
214.692	0.26
215.076	0.26
215.459	0.18
215.842	0.16
216.226	0.22
216.609	0.23
216.993	0.2
217.376	0.44
217.759	0.23
218.142	0.28
218.525	0.32
218.909	0.25
219.292	0.38
219.675	0.28
220.058	0.55
220.441	0.55
220.824	0.58
221.207	0.75
221.59	0.52
221.973	0.6
222.355	0.58
222.738	0.66
223.121	0.59
223.504	0.53
223.886	0.52
224.269	0.65
224.652	0.71
225.034	0.67
225.417	0.78
225.799	0.91
226.182	0.94
226.564	0.81
226.947	0.81
227.329	0.82
227.711	1.04
228.094	0.96
228.476	0.85
228.858	0.83
229.24	0.79
229.623	0.96
230.005	0.83
230.387	0.91
230.769	0.85
231.151	1.01
231.533	0.98
231.915	0.97
232.297	0.96
232.679	0.97
233.061	0.93
233.442	0.94
233.824	0.96
234.206	1.15
234.588	1.17
234.969	1.12
235.351	0.88
235.733	1.02
236.114	1.39
236.496	1.05
236.877	1.32
237.259	1.13
237.64	1.03
238.022	0.98
238.403	0.94
238.784	1
239.165	0.96
239.547	1.04
239.928	1.18
240.309	1.03
240.69	0.99
241.071	1.06
241.452	1.26
241.834	0.99
242.215	1.17
242.595	1.12
242.976	1.2
243.357	1.06
243.738	1.11
244.119	1.25
244.5	1.13
244.881	1.13
245.261	1.35
245.642	1.24
246.023	1.13
246.403	1.15
246.784	1.13
247.164	1.32
247.545	1.23
247.925	1.3
248.306	1.26
248.686	1.36
249.067	1.24
249.447	1.41
249.827	1.43
250.207	1.48
250.588	1.21
250.968	1.33
251.348	1.26
251.728	1.5
252.108	1.45
252.488	1.41
252.868	1.28
253.248	1.32
253.628	1.42
254.008	1.43
254.388	1.28
254.768	1.25
255.147	1.4
255.527	1.47
255.907	1.45
256.287	1.37
256.666	1.42
257.046	1.44
257.425	1.38
257.805	1.35
258.184	1.36
258.564	1.29
258.943	1.39
259.323	1.56
259.702	1.45
260.081	1.45
260.461	1.52
260.84	1.38
261.219	1.61
261.598	1.46
261.977	1.46
262.356	1.62
262.736	1.53
263.115	1.57
263.494	1.43
263.873	1.46
264.251	1.46
264.63	1.58
265.009	1.46
265.388	1.43
265.767	1.34
266.145	1.4
266.524	1.34
266.903	1.46
267.281	1.37
267.66	1.38
268.039	1.43
268.417	1.42
268.796	1.32
269.174	1.48
269.552	1.3
269.931	1.57
270.309	1.35
270.687	1.57
271.066	1.55
271.444	1.38
271.822	1.36
272.2	1.33
272.578	1.37
272.956	1.42
273.334	1.44
273.712	1.41
274.09	1.3
274.468	1.4
274.846	1.26
275.224	1.34
275.602	1.39
275.98	1.42
276.357	1.47
276.735	1.41
277.113	1.48
277.49	1.43
277.868	1.35
278.246	1.35
278.623	1.31
279.001	1.3
279.378	1.46
279.756	1.52
280.133	1.51
280.51	1.35
280.888	1.48
281.265	1.33
281.642	1.49
282.019	1.5
282.396	1.57
282.773	1.46
283.151	1.53
283.528	1.59
283.905	1.41
284.282	1.52
284.659	1.64
285.035	1.31
285.412	1.38
285.789	1.55
286.166	1.41
286.543	1.49
286.919	1.54
287.296	1.53
287.673	1.62
288.049	1.63
288.426	1.63
288.802	1.68
289.179	1.39
289.555	1.5
289.932	1.4
290.308	1.43
290.684	1.38
291.061	1.35
291.437	1.59
291.813	1.39
292.189	1.37
292.565	1.28
292.942	1.29
293.318	1.4
293.694	1.35
294.07	1.41
294.446	1.31
294.822	1.49
295.197	1.39
295.573	1.33
295.949	1.35
296.325	1.39
296.701	1.46
297.076	1.52
297.452	1.48
297.828	1.37
298.203	1.48
298.579	1.37
298.954	1.34
299.33	1.25
299.705	1.25
300.081	1.3
300.456	1.3
300.831	1.2
301.206	1.23
301.582	1.32
301.957	1.16
302.332	1.24
302.707	1.12
303.082	1.15
303.457	1.15
303.832	1.1
304.207	1.08
304.582	1.05
304.957	1.04
305.332	1.06
305.707	1.03
306.082	1.02
306.456	1.02
306.831	0.93
307.206	0.95
307.58	0.95
307.955	0.91
308.33	0.87
308.704	0.88
309.079	0.87
309.453	0.88
309.828	0.84
310.202	0.79
310.576	0.79
310.951	0.79
311.325	0.78
311.699	0.75
312.073	0.76
312.447	0.75
312.821	0.73
313.196	0.74
313.57	0.67
313.944	0.67
314.317	0.67
314.691	0.68
315.065	0.67
315.439	0.68
315.813	0.66
316.187	0.63
316.56	0.66
316.934	0.63
317.308	0.62
317.681	0.61
318.055	0.6
318.428	0.59
318.802	0.61
319.175	0.61
319.549	0.6
319.922	0.58
320.295	0.59
320.669	0.6
321.042	0.6
321.415	0.57
321.788	0.57
322.162	0.54
322.535	0.58
322.908	0.55
323.281	0.55
323.654	0.56
324.027	0.56
324.4	0.58
324.773	0.54
325.145	0.57
325.518	0.53
325.891	0.55
326.264	0.59
326.636	0.55
327.009	0.56
327.382	0.57
327.754	0.56
328.127	0.55
328.499	0.56
328.872	0.61
329.244	0.58
329.616	0.57
329.989	0.59
330.361	0.61
330.733	0.59
331.106	0.6
331.478	0.62
331.85	0.6
332.222	0.6
332.594	0.61
332.966	0.65
333.338	0.66
333.71	0.66
334.082	0.69
334.454	0.69
334.826	0.65
335.197	0.68
335.569	0.69
335.941	0.67
336.312	0.72
336.684	0.72
337.056	0.74
337.427	0.78
337.799	0.77
338.17	0.77
338.542	0.75
338.913	0.78
339.284	0.79
339.656	0.77
340.027	0.8
340.398	0.83
340.769	0.82
341.141	0.88
341.512	0.87
341.883	0.86
342.254	0.85
342.625	0.89
342.996	0.91
343.367	0.94
343.738	0.94
344.108	0.93
344.479	1.02
344.85	1
345.221	1
345.591	1.01
345.962	0.98
346.333	0.99
346.703	0.98
347.074	1.05
347.444	1.02
347.815	1.07
348.185	1.05
348.556	1.06
348.926	1.08
349.296	1.1
349.666	1.15
350.037	1.09
350.407	1.17
350.777	1.14
351.147	1.18
351.517	1.2
351.887	1.18
352.257	1.26
352.627	1.15
352.997	1.15
353.367	1.25
353.737	1.23
354.106	1.32
354.476	1.3
354.846	1.44
355.216	1.31
355.585	1.36
355.955	1.39
356.324	1.44
356.694	1.47
357.063	1.33
357.433	1.35
357.802	1.44
358.171	1.55
358.541	1.44
358.91	1.56
359.279	1.62
359.648	1.43
360.017	1.49
360.387	1.62
360.756	1.51
361.125	1.54
361.494	1.58
361.863	1.56
362.231	1.6
362.6	1.6
362.969	1.65
363.338	1.46
363.707	1.65
364.075	1.82
364.444	1.54
364.813	1.58
365.181	1.63
365.55	1.58
365.918	1.75
366.287	1.68
366.655	1.59
367.024	1.67
367.392	1.54
367.76	1.49
368.128	1.57
368.497	1.58
368.865	1.51
369.233	1.57
369.601	1.53
369.969	1.74
370.337	1.53
370.705	1.48
371.073	1.63
371.441	1.58
371.809	1.44
372.177	1.54
372.544	1.56
372.912	1.48
373.28	1.38
373.647	1.7
374.015	1.64
374.383	1.63
374.75	1.73
375.118	1.62
375.485	1.62
375.853	1.68
376.22	1.55
376.587	1.53
376.955	1.61
377.322	1.6
377.689	1.63
378.056	1.5
378.423	1.52
378.79	1.51
379.157	1.53
379.524	1.56
379.891	1.52
380.258	1.64
380.625	1.63
380.992	1.54
381.359	1.57
381.726	1.55
382.092	1.57
382.459	1.5
382.826	1.5
383.192	1.48
383.559	1.57
383.925	1.68
384.292	1.58
384.658	1.74
385.025	1.58
385.391	1.73
385.757	1.68
386.123	1.64
386.49	1.58
386.856	1.7
387.222	1.64
387.588	1.62
387.954	1.67
388.32	1.7
388.686	1.76
389.052	1.55
389.418	1.48
389.784	1.48
390.15	1.56
390.515	1.42
390.881	1.59
391.247	1.55
391.613	1.74
391.978	1.44
392.344	1.73
392.709	1.67
393.075	1.65
393.44	1.65
393.806	1.73
394.171	1.43
394.536	1.46
394.902	1.5
395.267	1.53
395.632	1.49
395.997	1.42
396.362	1.45
396.727	1.7
397.092	1.49
397.457	1.59
397.822	1.48
398.187	1.62
398.552	1.65
398.917	1.64
399.282	1.51
399.646	1.57
400.011	1.77
400.376	1.48
400.74	1.48
401.105	1.64
401.47	1.55
401.834	1.57
402.199	1.49
402.563	1.44
402.927	1.49
403.292	1.78
403.656	1.48
404.02	1.57
404.384	1.86
404.749	1.64
405.113	1.81
405.477	1.62
405.841	1.56
406.205	1.58
406.569	1.48
406.933	1.56
407.296	1.55
407.66	1.58
408.024	1.69
408.388	1.75
408.752	1.62
409.115	1.62
409.479	1.63
409.842	1.63
410.206	1.46
410.569	1.56
410.933	1.48
411.296	1.41
411.66	1.52
412.023	1.46
412.386	1.6
412.749	1.5
413.113	1.57
413.476	1.55
413.839	1.59
414.202	1.45
414.565	1.43
414.928	1.43
415.291	1.41
415.654	1.44
416.017	1.55
416.38	1.46
416.742	1.44
417.105	1.52
417.468	1.43
417.83	1.43
418.193	1.78
418.556	1.35
418.918	1.41
419.281	1.55
419.643	1.56
420.005	1.5
420.368	1.51
420.73	1.52
421.092	1.57
421.455	1.59
421.817	1.41
422.179	1.44
422.541	1.51
422.903	1.64
423.265	1.62
423.627	1.54
423.989	1.47
424.351	1.46
424.713	1.69
425.075	1.56
425.436	1.42
425.798	1.43
426.16	1.69
426.521	1.57
426.883	1.54
427.245	1.54
427.606	1.53
427.967	1.38
428.329	1.62
428.69	1.74
429.052	1.48
429.413	1.52
429.774	1.5
430.135	1.51
430.497	1.53
430.858	1.46
431.219	1.58
431.58	1.56
431.941	1.55
432.302	1.55
432.663	1.49
433.024	1.65
433.384	1.54
433.745	1.5
434.106	1.61
434.467	1.64
434.827	1.49
435.188	1.45
435.548	1.7
435.909	1.55
436.269	1.65
436.63	1.44
436.99	1.47
437.351	1.43
437.711	1.45
438.071	1.51
438.431	1.49
438.792	1.64
439.152	1.46
439.512	1.52
439.872	1.43
440.232	1.49
440.592	1.53
440.952	1.61
441.312	1.43
441.671	1.62
442.031	1.48
442.391	1.44
442.751	1.48
443.11	1.52
443.47	1.48
443.83	1.44
444.189	1.48
444.549	1.46
444.908	1.48
445.267	1.41
445.627	1.44
445.986	1.41
446.345	1.39
446.705	1.53
447.064	1.47
447.423	1.35
447.782	1.46
448.141	1.38
448.5	1.36
448.859	1.36
449.218	1.39
449.577	1.41
449.936	1.39
450.295	1.37
450.653	1.35
451.012	1.33
451.371	1.36
451.729	1.31
452.088	1.32
452.447	1.31
452.805	1.35
453.163	1.31
453.522	1.32
453.88	1.32
454.239	1.27
454.597	1.26
454.955	1.21
455.313	1.23
455.671	1.24
456.029	1.24
456.388	1.19
456.746	1.2
457.104	1.18
457.461	1.16
457.819	1.16
458.177	1.13
458.535	1.12
458.893	1.1
459.25	1.07
459.608	1.09
459.966	1.08
460.323	1.04
460.681	1.02
461.038	1.02
461.396	0.99
461.753	0.99
462.111	0.99
462.468	0.96
462.825	0.94
463.182	0.96
463.54	0.93
463.897	0.93
464.254	0.91
464.611	0.89
464.968	0.87
465.325	0.86
465.682	0.87
466.039	0.85
466.395	0.82
466.752	0.82
467.109	0.8
467.466	0.79
467.822	0.79
468.179	0.76
468.535	0.75
468.892	0.74
469.248	0.72
469.605	0.71
469.961	0.71
470.318	0.69
470.674	0.68
471.03	0.67
471.386	0.65
471.743	0.65
472.099	0.64
472.455	0.62
472.811	0.61
473.167	0.6
473.523	0.59
473.879	0.57
474.235	0.56
474.59	0.56
474.946	0.53
475.302	0.54
475.657	0.52
476.013	0.51
476.369	0.49
476.724	0.5
477.08	0.48
477.435	0.47
477.791	0.46
478.146	0.45
478.501	0.45
478.857	0.45
479.212	0.43
479.567	0.42
479.922	0.41
480.277	0.41
480.632	0.39
480.987	0.39
481.342	0.38
481.697	0.36
482.052	0.35
482.407	0.36
482.762	0.34
483.116	0.33
483.471	0.32
483.826	0.32
484.18	0.32
484.535	0.31
484.89	0.29
485.244	0.3
485.598	0.29
485.953	0.28
486.307	0.27
486.661	0.27
487.016	0.27
487.37	0.26
487.724	0.25
488.078	0.25
488.432	0.24
488.786	0.24
489.14	0.23
489.494	0.22
489.848	0.22
490.202	0.21
490.556	0.21
490.91	0.21
491.263	0.19
491.617	0.19
491.971	0.19
492.324	0.19
492.678	0.19
493.031	0.18
493.385	0.17
493.738	0.17
494.091	0.17
494.445	0.16
494.798	0.16
495.151	0.15
495.504	0.16
495.857	0.15
496.21	0.15
496.564	0.14
496.916	0.14
497.269	0.13
497.622	0.13
497.975	0.13
498.328	0.13
498.681	0.12
499.033	0.12
499.386	0.12
499.739	0.11
500.091	0.12
500.444	0.11
500.796	0.11
501.149	0.1
501.501	0.1
501.854	0.1
502.206	0.1
502.558	0.11
502.91	0.1
503.263	0.09
503.615	0.09
503.967	0.09
504.319	0.09
504.671	0.08
505.023	0.08
505.375	0.08
505.726	0.08
506.078	0.07
506.43	0.07
506.782	0.07
507.133	0.08
507.485	0.07
507.837	0.08
508.188	0.07
508.54	0.07
508.891	0.07
509.243	0.06
509.594	0.06
509.945	0.06
510.296	0.06
510.648	0.06
510.999	0.06
511.35	0.05
511.701	0.05
512.052	0.05
512.403	0.06
512.754	0.05
513.105	0.06
513.456	0.05
513.807	0.05
514.157	0.06
514.508	0.06
514.859	0.05
515.209	0.05
515.56	0.05
515.91	0.04
516.261	0.05
516.611	0.04
516.962	0.05
517.312	0.04
517.662	0.04
518.013	0.04
518.363	0.04
518.713	0.04
519.063	0.04
519.413	0.04
519.763	0.04
520.113	0.04
520.463	0.04
520.813	0.04
521.163	0.05
521.512	0.04
521.862	0.04
522.212	0.04
522.562	0.04
522.911	0.04
523.261	0.03
523.61	0.03
523.96	0.03
524.309	0.04
524.658	0.04
525.008	0.03
525.357	0.04
525.706	0.04
526.056	0.03
526.405	0.03
526.754	0.03
527.103	0.03
527.452	0.04
527.801	0.03
528.15	0.03
528.499	0.03
528.847	0.03
529.196	0.03
529.545	0.04
529.893	0.03
530.242	0.03
530.591	0.04
530.939	0.04
531.288	0.04
531.636	0.04
531.985	0.03
532.333	0.04
532.681	0.04
533.029	0.03
533.378	0.03
533.726	0.03
534.074	0.04
534.422	0.04
534.77	0.03
535.118	0.03
535.466	0.03
535.814	0.03
536.162	0.04
536.509	0.04
536.857	0.03
537.205	0.04
537.552	0.03
537.9	0.03
538.248	0.03
538.595	0.03
538.943	0.03
539.29	0.04
539.637	0.03
539.985	0.03
540.332	0.03
540.679	0.03
541.026	0.02
541.373	0.03
541.721	0.02
542.068	0.03
542.415	0.03
542.762	0.02
543.108	0.02
543.455	0.01
543.802	0.01
544.149	0.02
544.496	0.02
544.842	0.02
545.189	0.01
545.535	0.02
545.882	0.02
546.228	0.02
546.575	0.02
546.921	0.02
547.267	0.01
547.614	0.02
547.96	0.02
548.306	0.01
548.652	0.01
548.998	0.02
549.344	0.02
549.69	0.02
550.036	0.01
550.382	0.02
550.728	0.02
551.074	0.03
551.42	0.02
551.765	0.03
552.111	0.02
552.457	0.03
552.802	0.02
553.148	0.02
553.493	0.01
553.839	0.02
554.184	0.02
554.529	0.02
554.875	0.03
555.22	0.02
555.565	0.03
555.91	0.02
556.255	0.03
556.6	0.02
556.945	0.02
557.29	0.03
557.635	0.02
557.98	0.02
558.325	0.02
558.67	0.02
559.014	0.02
559.359	0.02
559.704	0.02
560.048	0.02
560.393	0.02
560.737	0.02
561.082	0.02
561.426	0.02
561.77	0.02
562.115	0.01
562.459	0.02
562.803	0.02
563.147	0.02
563.491	0.02
563.835	0.03
564.179	0.01
564.523	0.02
564.867	0.01
565.211	0.01
565.555	0.02
565.899	0.02
566.242	0.02
566.586	0.02
566.93	0.02
567.273	0.03
567.617	0.02
567.96	0.03
568.304	0.02
568.647	0.02
568.99	0.02
569.334	0.03
569.677	0.03
570.02	0.03
570.363	0.02
570.706	0.02
571.049	0.02
571.392	0.02
571.735	0.02
572.078	0.02
572.421	0.04
572.764	0.02
573.106	0.02
573.449	0.02
573.792	0.01
574.134	0.02
574.477	0.02
574.819	0.01
575.162	0.01
575.504	0.01
575.847	0.01
576.189	0.02
576.531	0.01
576.873	0.02
577.215	0.02
577.558	0.02
577.9	0.01
578.242	0.02
578.584	0.02
578.926	0.02
579.267	0.02
579.609	0.02
579.951	0.02
580.293	0.02
580.634	0.03
580.976	0.02
581.318	0.02
581.659	0.02
582.001	0.02
582.342	0.02
582.683	0.03
583.025	0.02
583.366	0.02
583.707	0.02
584.049	0.01
584.39	0.02
584.731	0.02
585.072	0.01
585.413	0.02
585.754	0.02
586.095	0.02
586.435	0.02
586.776	0.02
587.117	0.02
587.458	0.02
587.798	0.02
588.139	0.02
588.48	0.02
588.82	0.02
589.161	0.02
589.501	0.01
589.841	0.02
590.182	0.01
590.522	0.01
590.862	0.02
591.202	0.02
591.542	0.01
591.882	0.01
592.222	0.02
592.562	0.03
592.902	0.02
593.242	0.02
593.582	0.03
593.922	0.01
594.261	0.01
594.601	0.02
594.941	0.01
595.28	0.02
595.62	0.02
595.959	0.02
596.299	0.02
596.638	0.02
596.977	0.02
597.317	0.02
597.656	0.02
597.995	0.02
598.334	0.03
598.673	0.02
599.012	0.02
599.351	0.03
599.69	0.02
600.029	0.02
600.368	0.02
600.707	0.02
601.046	0.02
601.384	0.02
601.723	0.02
602.061	0.02
602.4	0.02
602.738	0.02
603.077	0.02
603.415	0.02
603.754	0.02
604.092	0.03
604.43	0.02
604.768	0.02
605.107	0.03
605.445	0.02
605.783	0.01
606.121	0.01
606.459	0.02
606.796	0.02
607.134	0.01
607.472	0.02
607.81	0.02
608.148	0.01
608.485	0.02
608.823	0.02
609.16	0.01
609.498	0.02
609.835	0.02
610.173	0.02
610.51	0.02
610.847	0.03
611.185	0.03
611.522	0.03
611.859	0.03
612.196	0.02
612.533	0.03
612.87	0.03
613.207	0.03
613.544	0.03
613.881	0.04
614.217	0.04
614.554	0.02
614.891	0.03
615.228	0.03
615.564	0.03
615.901	0.03
616.237	0.02
616.574	0.03
616.91	0.03
617.246	0.03
617.583	0.03
617.919	0.04
618.255	0.04
618.591	0.03
618.927	0.04
619.263	0.04
619.599	0.04
619.935	0.04
620.271	0.03
620.607	0.03
620.943	0.03
621.279	0.04
621.614	0.03
621.95	0.04
622.286	0.03
622.621	0.02
622.957	0.02
623.292	0.02
623.627	0.02
623.963	0.02
624.298	0.03
624.633	0.02
624.968	0.02
625.304	0.02
625.639	0.02
625.974	0.02
626.309	0.02
626.644	0.02
626.979	0.03
627.313	0.03
627.648	0.03
627.983	0.03
628.318	0.02
628.652	0.01
628.987	0.02
629.321	0.02
629.656	0.01
629.99	0.02
630.325	0.02
630.659	0.02
630.993	0.02
631.327	0.02
631.662	0.01
631.996	0.01
632.33	0.02
632.664	0.02
632.998	0.02
633.332	0.02
633.666	0.02
633.999	0.02
634.333	0.02
634.667	0.02
635.001	0.02
635.334	0.02
635.668	0.02
636.001	0.02
636.335	0.02
636.668	0.02
637.001	0.01
637.335	0.02
637.668	0.02
638.001	0.01
638.334	0.02
638.668	0.01
639.001	0.02
639.334	0.01
639.667	0.01
639.999	0.01
640.332	0.01
640.665	0.01
640.998	0.02
641.331	0.02
641.663	0.01
641.996	0.01
642.328	0.02
642.661	0.01
642.993	0.02
643.326	0.01
643.658	0.01
643.99	0.01
644.323	0.01
644.655	0.01
644.987	0.01
645.319	0.02
645.651	0.02
645.983	0.02
646.315	0.02
646.647	0.01
646.979	0.02
647.31	0.02
647.642	0.01
647.974	0.01
648.305	0.02
648.637	0.02
648.968	0.02
649.3	0.02
649.631	0.03
649.963	0.02
650.294	0.02
650.625	0.02
650.957	0.03
651.288	0.02
651.619	0.03
651.95	0.02
652.281	0.03
652.612	0.03
652.943	0.03
653.274	0.03
653.604	0.02
653.935	0.03
654.266	0.03
654.596	0.02
654.927	0.02
655.258	0.03
655.588	0.03
655.918	0.03
656.249	0.01
656.579	0.03
656.909	0.02
657.24	0.02
657.57	0.03
657.9	0.03
658.23	0.03
658.56	0.03
658.89	0.03
659.22	0.03
659.55	0.03
659.88	0.04
660.209	0.03
660.539	0.04
660.869	0.03
661.198	0.04
661.528	0.04
661.857	0.04
662.187	0.04
662.516	0.04
662.846	0.03
663.175	0.03
663.504	0.03
663.833	0.03
664.163	0.04
664.492	0.03
664.821	0.03
665.15	0.03
665.479	0.03
665.807	0.03
666.136	0.04
666.465	0.03
666.794	0.03
667.122	0.02
667.451	0.03
667.78	0.03
668.108	0.03
668.437	0.03
668.765	0.02
669.093	0.03
669.422	0.03
669.75	0.03
670.078	0.03
670.406	0.03
670.734	0.03
671.062	0.03
671.39	0.03
671.718	0.03
672.046	0.03
672.374	0.03
672.702	0.03
673.029	0.03
673.357	0.03
673.685	0.04
674.012	0.03
674.34	0.03
674.667	0.04
674.995	0.03
675.322	0.04
675.649	0.03
675.977	0.03
676.304	0.03
676.631	0.04
676.958	0.03
677.285	0.03
677.612	0.03
677.939	0.03
678.266	0.04
678.593	0.03
678.92	0.03
679.246	0.03
679.573	0.03
679.9	0.03
680.226	0.04
680.553	0.03
680.879	0.03
681.206	0.03
681.532	0.03
681.858	0.03
682.184	0.03
682.511	0.03
682.837	0.02
683.163	0.03
683.489	0.03
683.815	0.03
684.141	0.03
684.467	0.03
684.793	0.02
685.118	0.02
685.444	0.03
685.77	0.03
686.095	0.03
686.421	0.03
686.746	0.03
687.072	0.03
687.397	0.03
687.723	0.04
688.048	0.04
688.373	0.03
688.698	0.04
689.023	0.03
689.349	0.03
689.674	0.04
689.999	0.03
690.323	0.03
690.648	0.03
690.973	0.03
691.298	0.03
691.623	0.03
691.947	0.04
692.272	0.03
692.596	0.03
692.921	0.03
693.245	0.03
693.57	0.03
693.894	0.03
694.218	0.03
694.543	0.03
694.867	0.03
695.191	0.03
695.515	0.03
695.839	0.03
696.163	0.03
696.487	0.03
696.811	0.03
697.135	0.04
697.458	0.02
697.782	0.03
698.106	0.03
698.429	0.03
698.753	0.03
699.076	0.03
699.4	0.03
699.723	0.03
700.046	0.03
700.37	0.03
700.693	0.03
701.016	0.03
701.339	0.03
701.662	0.04
701.985	0.04
702.308	0.03
702.631	0.03
702.954	0.03
703.277	0.03
703.599	0.03
703.922	0.03
704.245	0.03
704.567	0.02
704.89	0.03
705.212	0.03
705.535	0.02
705.857	0.02
706.179	0.02
706.502	0.02
706.824	0.01
707.146	0.02
707.468	0.03
707.79	0.02
708.112	0.03
708.434	0.03
708.756	0.02
709.078	0.02
709.399	0.02
709.721	0.02
710.043	0.03
710.364	0.04
710.686	0.03
711.007	0.03
711.329	0.03
711.65	0.02
711.972	0.03
712.293	0.04
712.614	0.03
712.935	0.03
713.256	0.03
713.577	0.04
713.898	0.03
714.219	0.03
714.54	0.03
714.861	0.03
715.182	0.03
715.503	0.03
715.823	0.03
716.144	0.03
716.464	0.03
716.785	0.02
717.105	0.02
717.426	0.03
717.746	0.02
718.066	0.02
718.387	0.02
718.707	0.01
719.027	0.02
719.347	0.01
719.667	0.02
719.987	0.02
720.307	0.01
720.627	0.02
720.947	0.02
721.266	0.02
721.586	0.02
721.906	0.02
722.225	0.01
722.545	0.02
722.864	0.02
723.184	0.02
723.503	0.02
723.823	0.03
724.142	0.02
724.461	0.02
724.78	0.02
725.099	0.02
725.418	0.02
725.737	0.02
726.056	0.03
726.375	0.02
726.694	0.02
727.013	0.02
727.331	0.02
727.65	0.02
727.969	0.02
728.287	0.02
728.606	0.03
728.924	0.02
729.242	0.02
729.561	0.02
729.879	0.02
730.197	0.02
730.515	0.02
730.834	0.02
731.152	0.02
731.47	0.03
731.788	0.02
732.105	0.02
732.423	0.02
732.741	0.02
733.059	0.02
733.376	0.02
733.694	0.02
734.012	0.02
734.329	0.03
734.647	0.02
734.964	0.03
735.281	0.03
735.599	0.02
735.916	0.03
736.233	0.02
736.55	0.03
736.867	0.02
737.184	0.03
737.501	0.02
737.818	0.02
738.135	0.03
738.452	0.02
738.768	0.03
739.085	0.02
739.402	0.02
739.718	0.02
740.035	0.02
740.351	0.03
740.668	0.03
740.984	0.03
741.3	0.02
741.617	0.03
741.933	0.03
742.249	0.03
742.565	0.03
742.881	0.03
743.197	0.03
743.513	0.03
743.829	0.03
744.144	0.02
744.46	0.03
744.776	0.03
745.091	0.02
745.407	0.03
745.722	0.03
746.038	0.02
746.353	0.01
746.669	0.03
746.984	0.01
747.299	0.02
747.614	0.02
747.93	0.03
748.245	0.03
748.56	0.02
748.875	0.02
749.189	0.03
749.504	0.03
749.819	0.03
750.134	0.03
750.448	0.03
750.763	0.03
751.078	0.02
751.392	0.03
751.707	0.03
752.021	0.03
752.335	0.04
752.65	0.03
752.964	0.03
753.278	0.03
753.592	0.03
753.906	0.03
754.22	0.04
754.534	0.03
754.848	0.03
755.162	0.02
755.476	0.03
755.789	0.04
756.103	0.03
756.417	0.04
756.73	0.04
757.044	0.03
757.357	0.03
757.671	0.04
757.984	0.04
758.297	0.03
758.61	0.03
758.924	0.03
759.237	0.03
759.55	0.03
759.863	0.03
760.176	0.04
760.488	0.04
760.801	0.03
761.114	0.03
761.427	0.03
761.739	0.04
762.052	0.03
762.365	0.03
762.677	0.03
762.99	0.03
763.302	0.03
763.614	0.03
763.926	0.03
764.239	0.03
764.551	0.03
764.863	0.03
765.175	0.03
765.487	0.03
765.799	0.02
766.111	0.02
766.423	0.03
766.734	0.03
767.046	0.03
767.358	0.03
767.669	0.03
767.981	0.03
768.292	0.03
768.604	0.03
768.915	0.03
769.226	0.02
769.537	0.02
769.849	0.03
770.16	0.03
770.471	0.02
770.782	0.03
771.093	0.02
771.404	0.01
771.715	0.02
772.025	0.03
772.336	0.02
772.647	0.02
772.957	0.02
773.268	0.02
773.578	0.03
773.889	0.03
774.199	0.03
774.51	0.03
774.82	0.03
775.13	0.03
775.44	0.03
775.75	0.03
776.06	0.03
776.37	0.03
776.68	0.03
776.99	0.03
777.3	0.02
777.61	0.03
777.92	0.03
778.229	0.03
778.539	0.03
778.848	0.03
779.158	0.04
779.467	0.04
779.777	0.03
780.086	0.04
780.395	0.02
780.704	0.04
781.013	0.02
781.323	0.02
781.632	0.02
781.941	0.03
782.249	0.03
782.558	0.02
782.867	0.03
783.176	0.01
783.485	0.02
783.793	0.03
784.102	0.02
784.41	0.02
784.719	0.03
785.027	0.03
785.335	0.03
785.644	0.02
785.952	0.02
786.26	0.03
786.568	0.02
786.876	0.02
787.184	0.03
787.492	0.03
787.8	0.03
788.108	0.03
788.416	0.03
788.723	0.03
789.031	0.02
789.338	0.03
789.646	0.02
789.953	0.03
790.261	0.03
790.568	0.03
790.876	0.02
791.183	0.03
791.49	0.03
791.797	0.03
792.104	0.02
792.411	0.03
792.718	0.02
793.025	0.03
793.332	0.03
793.639	0.04
793.945	0.04
794.252	0.03
794.559	0.04
794.865	0.03
795.172	0.05
795.478	0.03
795.784	0.04
796.091	0.05
796.397	0.05
796.703	0.04
797.009	0.04
797.315	0.04
797.622	0.04
797.927	0.04
798.233	0.04
798.539	0.04
798.845	0.04
799.151	0.04
799.456	0.04
799.762	0.04
800.068	0.04
800.373	0.05
800.679	0.03
800.984	0.04
801.289	0.04
801.595	0.03
801.9	0.04
802.205	0.03
802.51	0.03
802.815	0.03
803.12	0.04
803.425	0.04
803.73	0.03
804.035	0.03
804.339	0.03
804.644	0.03
804.949	0.04
805.253	0.03
805.558	0.03
805.862	0.03
806.167	0.04
806.471	0.03
806.775	0.03
807.08	0.04
807.384	0.03
807.688	0.03
807.992	0.04
808.296	0.04
808.6	0.03
808.904	0.04
809.207	0.04
809.511	0.05
809.815	0.05
810.119	0.04
810.422	0.05
810.726	0.05
811.029	0.05
811.332	0.05
811.636	0.05
811.939	0.05
812.242	0.05
812.546	0.05
812.849	0.06
813.152	0.06
813.455	0.05
813.758	0.05
814.06	0.05
814.363	0.05
814.666	0.05
814.969	0.05
815.271	0.04
815.574	0.04
815.877	0.04
816.179	0.04
816.481	0.04
816.784	0.04
817.086	0.04
817.388	0.04
817.69	0.03
817.993	0.02
818.295	0.04
818.597	0.03
818.899	0.02
819.2	0.03
819.502	0.03
819.804	0.04
820.106	0.03
820.407	0.02
820.709	0.04
821.01	0.03
821.312	0.03
821.613	0.03
821.915	0.03
822.216	0.03
822.517	0.03
822.818	0.03
823.119	0.03
823.42	0.03
823.721	0.02
824.022	0.02
824.323	0.03
824.624	0.03
824.925	0.03
825.226	0.03
825.526	0.03
825.827	0.02
826.127	0.03
826.428	0.03
826.728	0.03
827.028	0.03
827.329	0.02
827.629	0.02
827.929	0.03
828.229	0.03
828.529	0.03
828.829	0.03
829.129	0.03
829.429	0.03
829.729	0.03
830.029	0.03
830.328	0.03
830.628	0.02
830.927	0.01
831.227	0.02
831.526	0.02
831.826	0.02
832.125	0.01
832.424	0.01
832.724	0.02
833.023	0.02
833.322	0.02
833.621	0.01
833.92	0.01
834.219	0.02
834.518	0.02
834.816	0.01
835.115	0.01
835.414	0.01
835.712	0
836.011	0.01
836.309	0.01
836.608	0.01
836.906	-0
837.205	-0
837.503	-0
837.801	-0
838.099	-0.01
838.397	-0.01
838.695	-0.01
838.993	-0
839.291	-0.01
839.589	-0.01
839.887	-0.01
840.184	-0.01
840.482	-0.01
840.78	-0.01
841.077	-0.02
841.375	-0.01
841.672	-0.01
841.969	-0.02
842.267	-0.02
842.564	-0.02
842.861	-0.02
843.158	-0.02
843.455	-0.04
843.752	-0.03
844.049	-0.03
844.346	-0.03
844.643	-0.04
844.94	-0.04
845.236	-0.02
845.533	-0.03
845.83	-0.04
846.126	-0.05
846.423	-0.05
846.719	-0.05
847.015	-0.05
847.312	-0.05
847.608	-0.06
847.904	-0.06
848.2	-0.06
848.496	-0.06
848.792	-0.06
849.088	-0.04
849.384	-0.05
849.68	-0.06
849.975	-0.05
850.271	-0.06
850.567	-0.06
850.862	-0.07
851.158	-0.06
851.453	-0.07
851.748	-0.08
852.044	-0.07
852.339	-0.07
852.634	-0.08
852.929	-0.07
853.224	-0.08
853.519	-0.08
853.814	-0.06
854.109	-0.08
854.404	-0.08
854.699	-0.09
854.994	-0.07
855.288	-0.07
855.583	-0.08
855.877	-0.08
856.172	-0.08
856.466	-0.09
856.76	-0.09
857.055	-0.09
857.349	-0.1
857.643	-0.1
857.937	-0.1
858.231	-0.1
858.525	-0.09
858.819	-0.1
859.113	-0.11
859.407	-0.11
859.701	-0.11
859.994	-0.11
860.288	-0.1
860.581	-0.11
860.875	-0.11
861.168	-0.1
861.462	-0.11
861.755	-0.11
862.048	-0.11
862.341	-0.11
862.634	-0.11
862.928	-0.11
863.221	-0.11
863.513	-0.11
863.806	-0.11
864.099	-0.12
864.392	-0.12
864.685	-0.11
864.977	-0.11
865.27	-0.12
865.562	-0.13
865.855	-0.12
866.147	-0.13
866.44	-0.12
866.732	-0.13
867.024	-0.13
867.316	-0.13
867.608	-0.13
867.9	-0.14
868.192	-0.13
868.484	-0.14
868.776	-0.14
869.068	-0.14
869.359	-0.14
869.651	-0.14
869.943	-0.16
870.234	-0.15
870.526	-0.16
870.817	-0.16
871.108	-0.16
871.4	-0.15
871.691	-0.16
871.982	-0.17
872.273	-0.18
872.564	-0.17
872.855	-0.17
873.146	-0.18
873.437	-0.17
873.728	-0.18
874.019	-0.17
874.309	-0.18
874.6	-0.17
874.89	-0.17
875.181	-0.17
875.471	-0.17
875.762	-0.16
876.052	-0.17
876.342	-0.16
876.632	-0.17
876.922	-0.18
877.213	-0.16
877.503	-0.19
877.792	-0.17
878.082	-0.18
878.372	-0.16
878.662	-0.19
878.952	-0.17
879.241	-0.19
879.531	-0.18
879.82	-0.17
880.11	-0.18
880.399	-0.17
880.688	-0.17
880.978	-0.17
881.267	-0.17
