Data from 12-12-AQDScycling_Absorbance__245__00245.txt Node

Date: Tue Dec 12 11:58:56 EST 2023
User: kyuminlee
Spectrometer: FLMS00943
Trigger mode: 0
Integration Time (sec): 1.000000E-1
Scans to average: 1
Electric dark correction enabled: true
Nonlinearity correction enabled: false
Boxcar width: 0
XAxis mode: Wavelengths
Number of Pixels in Spectrum: 2048
>>>>>Begin Spectral Data<<<<<
179.651	0.95
180.037	0.95
180.424	0.95
180.81	-0.05
181.197	0.2
181.583	-0
181.97	-0
182.356	-0
182.743	0.48
183.129	0.28
183.515	-0
183.901	-2.63
184.288	0.3
184.674	-0
185.06	-1.31
185.446	-0
185.832	-1.45
186.218	0.94
186.604	0.21
186.99	-0
187.376	-0
187.762	0.22
188.148	0.51
188.534	-0.27
188.92	0.04
189.305	-0.02
189.691	0.09
190.077	0.14
190.463	0.06
190.848	0.01
191.234	0.13
191.619	0.03
192.005	0.05
192.391	-0.01
192.776	0.07
193.161	0.19
193.547	0.14
193.932	0.14
194.318	0.06
194.703	-0.03
195.088	0.27
195.473	0.23
195.859	0.19
196.244	0.18
196.629	0.48
197.014	0.16
197.399	0.01
197.784	0.04
198.169	0.14
198.554	0.23
198.939	0.08
199.324	0.16
199.709	0.06
200.094	0.1
200.478	0.15
200.863	0.22
201.248	0.14
201.633	0.14
202.017	0.06
202.402	0.2
202.787	0.09
203.171	0.11
203.556	0.21
203.94	0.11
204.325	0.22
204.709	0.11
205.093	0.05
205.478	0.2
205.862	0.12
206.246	0.09
206.631	-0.01
207.015	0.04
207.399	0.1
207.783	0.06
208.167	0.13
208.551	0.2
208.935	0.14
209.319	0.13
209.703	0.07
210.087	0.21
210.471	0.08
210.855	0.23
211.239	0.18
211.623	0.25
212.007	0.18
212.39	0.23
212.774	0.16
213.158	0.1
213.541	0.19
213.925	0.14
214.309	0.16
214.692	0.27
215.076	0.17
215.459	0.32
215.842	0.1
216.226	0.49
216.609	0.3
216.993	0.21
217.376	0.39
217.759	0.13
218.142	0.26
218.525	0.6
218.909	0.39
219.292	0.37
219.675	0.33
220.058	0.48
220.441	0.58
220.824	0.49
221.207	0.44
221.59	0.41
221.973	0.49
222.355	0.66
222.738	0.63
223.121	0.54
223.504	0.48
223.886	0.53
224.269	0.76
224.652	0.64
225.034	0.65
225.417	0.69
225.799	0.86
226.182	0.86
226.564	0.75
226.947	0.71
227.329	0.77
227.711	0.92
228.094	0.84
228.476	0.83
228.858	0.84
229.24	0.68
229.623	0.82
230.005	0.8
230.387	0.87
230.769	0.77
231.151	0.93
231.533	1
231.915	0.93
232.297	0.98
232.679	0.96
233.061	1.05
233.442	1.06
233.824	0.96
234.206	1.09
234.588	0.95
234.969	1.17
235.351	1.04
235.733	1.1
236.114	1.01
236.496	1.07
236.877	1.1
237.259	1.07
237.64	0.98
238.022	1.03
238.403	1.02
238.784	1.08
239.165	0.89
239.547	0.97
239.928	1.03
240.309	1.03
240.69	1.05
241.071	1.09
241.452	1.11
241.834	1.1
242.215	1.03
242.595	1.03
242.976	1.12
243.357	1.15
243.738	1.01
244.119	1.35
244.5	1.05
244.881	1.15
245.261	1.28
245.642	1.23
246.023	1.13
246.403	1.07
246.784	1.31
247.164	1.3
247.545	1.21
247.925	1.2
248.306	1.2
248.686	1.39
249.067	1.27
249.447	1.32
249.827	1.38
250.207	1.49
250.588	1.23
250.968	1.33
251.348	1.37
251.728	1.33
252.108	1.32
252.488	1.36
252.868	1.38
253.248	1.25
253.628	1.35
254.008	1.26
254.388	1.23
254.768	1.31
255.147	1.24
255.527	1.42
255.907	1.41
256.287	1.37
256.666	1.31
257.046	1.35
257.425	1.44
257.805	1.31
258.184	1.35
258.564	1.25
258.943	1.35
259.323	1.5
259.702	1.46
260.081	1.46
260.461	1.49
260.84	1.45
261.219	1.58
261.598	1.52
261.977	1.55
262.356	1.63
262.736	1.38
263.115	1.53
263.494	1.47
263.873	1.46
264.251	1.53
264.63	1.54
265.009	1.36
265.388	1.28
265.767	1.33
266.145	1.42
266.524	1.47
266.903	1.38
267.281	1.32
267.66	1.36
268.039	1.58
268.417	1.35
268.796	1.33
269.174	1.32
269.552	1.26
269.931	1.4
270.309	1.47
270.687	1.48
271.066	1.79
271.444	1.35
271.822	1.38
272.2	1.38
272.578	1.34
272.956	1.43
273.334	1.41
273.712	1.3
274.09	1.33
274.468	1.37
274.846	1.16
275.224	1.34
275.602	1.4
275.98	1.38
276.357	1.4
276.735	1.39
277.113	1.27
277.49	1.27
277.868	1.23
278.246	1.3
278.623	1.24
279.001	1.3
279.378	1.39
279.756	1.51
280.133	1.45
280.51	1.46
280.888	1.74
281.265	1.3
281.642	1.36
282.019	1.44
282.396	1.54
282.773	1.49
283.151	1.43
283.528	1.43
283.905	1.29
284.282	1.48
284.659	1.56
285.035	1.33
285.412	1.34
285.789	1.54
286.166	1.43
286.543	1.5
286.919	1.48
287.296	1.51
287.673	1.66
288.049	1.49
288.426	1.65
288.802	1.32
289.179	1.49
289.555	1.6
289.932	1.39
290.308	1.31
290.684	1.31
291.061	1.35
291.437	1.48
291.813	1.26
292.189	1.26
292.565	1.31
292.942	1.23
293.318	1.38
293.694	1.4
294.07	1.31
294.446	1.33
294.822	1.48
295.197	1.44
295.573	1.52
295.949	1.55
296.325	1.49
296.701	1.49
297.076	1.71
297.452	1.56
297.828	1.36
298.203	1.69
298.579	1.59
298.954	1.46
299.33	1.43
299.705	1.47
300.081	1.52
300.456	1.48
300.831	1.44
301.206	1.5
301.582	1.5
301.957	1.55
302.332	1.63
302.707	1.39
303.082	1.46
303.457	1.47
303.832	1.46
304.207	1.45
304.582	1.42
304.957	1.55
305.332	1.53
305.707	1.55
306.082	1.55
306.456	1.65
306.831	1.5
307.206	1.5
307.58	1.52
307.955	1.52
308.33	1.52
308.704	1.46
309.079	1.48
309.453	1.89
309.828	1.58
310.202	1.4
310.576	1.38
310.951	1.47
311.325	1.49
311.699	1.46
312.073	1.35
312.447	1.5
312.821	1.39
313.196	1.56
313.57	1.38
313.944	1.44
314.317	1.37
314.691	1.36
315.065	1.64
315.439	1.58
315.813	1.47
316.187	1.49
316.56	1.52
316.934	1.5
317.308	1.42
317.681	1.46
318.055	1.58
318.428	1.5
318.802	1.52
319.175	1.53
319.549	1.63
319.922	1.37
320.295	1.44
320.669	1.58
321.042	1.54
321.415	1.76
321.788	1.49
322.162	1.44
322.535	1.55
322.908	1.69
323.281	1.49
323.654	1.71
324.027	1.41
324.4	1.69
324.773	1.53
325.145	1.55
325.518	1.41
325.891	1.43
326.264	1.48
326.636	1.41
327.009	1.4
327.382	1.41
327.754	1.61
328.127	1.42
328.499	1.53
328.872	1.47
329.244	1.51
329.616	1.57
329.989	1.39
330.361	1.57
330.733	1.44
331.106	1.42
331.478	1.64
331.85	1.4
332.222	1.43
332.594	1.49
332.966	1.39
333.338	1.53
333.71	1.57
334.082	1.57
334.454	1.5
334.826	1.46
335.197	1.52
335.569	1.37
335.941	1.38
336.312	1.46
336.684	1.49
337.056	1.47
337.427	1.57
337.799	1.54
338.17	1.72
338.542	1.44
338.913	1.46
339.284	1.62
339.656	1.46
340.027	1.54
340.398	1.55
340.769	1.56
341.141	1.69
341.512	1.73
341.883	1.55
342.254	1.5
342.625	1.61
342.996	1.46
343.367	1.5
343.738	1.44
344.108	1.43
344.479	1.61
344.85	1.41
345.221	1.62
345.591	1.4
345.962	1.48
346.333	1.49
346.703	1.27
347.074	1.42
347.444	1.38
347.815	1.43
348.185	1.3
348.556	1.29
348.926	1.31
349.296	1.44
349.666	1.28
350.037	1.29
350.407	1.28
350.777	1.36
351.147	1.4
351.517	1.36
351.887	1.28
352.257	1.36
352.627	1.27
352.997	1.32
353.367	1.37
353.737	1.41
354.106	1.31
354.476	1.35
354.846	1.33
355.216	1.33
355.585	1.26
355.955	1.25
356.324	1.32
356.694	1.18
357.063	1.28
357.433	1.19
357.802	1.2
358.171	1.24
358.541	1.17
358.91	1.22
359.279	1.19
359.648	1.12
360.017	1.16
360.387	1.13
360.756	1.07
361.125	1.08
361.494	1.1
361.863	1
362.231	1.08
362.6	1.05
362.969	1.03
363.338	0.99
363.707	1.03
364.075	1
364.444	0.91
364.813	0.92
365.181	0.96
365.55	0.93
365.918	0.95
366.287	0.92
366.655	0.88
367.024	0.84
367.392	0.88
367.76	0.83
368.128	0.82
368.497	0.88
368.865	0.81
369.233	0.8
369.601	0.8
369.969	0.77
370.337	0.78
370.705	0.77
371.073	0.76
371.441	0.73
371.809	0.73
372.177	0.75
372.544	0.74
372.912	0.71
373.28	0.73
373.647	0.7
374.015	0.73
374.383	0.72
374.75	0.73
375.118	0.71
375.485	0.69
375.853	0.69
376.22	0.68
376.587	0.66
376.955	0.68
377.322	0.67
377.689	0.67
378.056	0.67
378.423	0.66
378.79	0.67
379.157	0.68
379.524	0.65
379.891	0.64
380.258	0.64
380.625	0.67
380.992	0.66
381.359	0.64
381.726	0.68
382.092	0.63
382.459	0.63
382.826	0.66
383.192	0.65
383.559	0.65
383.925	0.66
384.292	0.63
384.658	0.67
385.025	0.65
385.391	0.65
385.757	0.68
386.123	0.63
386.49	0.68
386.856	0.65
387.222	0.7
387.588	0.68
387.954	0.68
388.32	0.68
388.686	0.66
389.052	0.66
389.418	0.7
389.784	0.67
390.15	0.69
390.515	0.64
390.881	0.68
391.247	0.67
391.613	0.66
391.978	0.65
392.344	0.68
392.709	0.66
393.075	0.68
393.44	0.67
393.806	0.63
394.171	0.64
394.536	0.65
394.902	0.66
395.267	0.65
395.632	0.64
395.997	0.65
396.362	0.64
396.727	0.66
397.092	0.63
397.457	0.64
397.822	0.63
398.187	0.64
398.552	0.64
398.917	0.6
399.282	0.61
399.646	0.6
400.011	0.61
400.376	0.58
400.74	0.61
401.105	0.61
401.47	0.58
401.834	0.6
402.199	0.58
402.563	0.57
402.927	0.56
403.292	0.6
403.656	0.56
404.02	0.57
404.384	0.58
404.749	0.56
405.113	0.55
405.477	0.57
405.841	0.53
406.205	0.53
406.569	0.55
406.933	0.51
407.296	0.52
407.66	0.52
408.024	0.53
408.388	0.53
408.752	0.51
409.115	0.51
409.479	0.5
409.842	0.48
410.206	0.48
410.569	0.5
410.933	0.49
411.296	0.47
411.66	0.47
412.023	0.48
412.386	0.47
412.749	0.47
413.113	0.48
413.476	0.44
413.839	0.47
414.202	0.45
414.565	0.43
414.928	0.46
415.291	0.43
415.654	0.43
416.017	0.46
416.38	0.44
416.742	0.43
417.105	0.42
417.468	0.44
417.83	0.43
418.193	0.43
418.556	0.42
418.918	0.42
419.281	0.42
419.643	0.43
420.005	0.43
420.368	0.42
420.73	0.4
421.092	0.42
421.455	0.41
421.817	0.4
422.179	0.41
422.541	0.4
422.903	0.41
423.265	0.41
423.627	0.39
423.989	0.38
424.351	0.39
424.713	0.39
425.075	0.37
425.436	0.38
425.798	0.38
426.16	0.4
426.521	0.39
426.883	0.4
427.245	0.39
427.606	0.37
427.967	0.38
428.329	0.38
428.69	0.4
429.052	0.38
429.413	0.38
429.774	0.38
430.135	0.37
430.497	0.36
430.858	0.38
431.219	0.36
431.58	0.37
431.941	0.36
432.302	0.36
432.663	0.36
433.024	0.38
433.384	0.38
433.745	0.36
434.106	0.37
434.467	0.36
434.827	0.38
435.188	0.36
435.548	0.37
435.909	0.34
436.269	0.37
436.63	0.36
436.99	0.35
437.351	0.36
437.711	0.36
438.071	0.35
438.431	0.35
438.792	0.35
439.152	0.34
439.512	0.33
439.872	0.34
440.232	0.36
440.592	0.36
440.952	0.35
441.312	0.35
441.671	0.33
442.031	0.33
442.391	0.34
442.751	0.34
443.11	0.32
443.47	0.32
443.83	0.32
444.189	0.32
444.549	0.32
444.908	0.32
445.267	0.3
445.627	0.31
445.986	0.31
446.345	0.29
446.705	0.29
447.064	0.31
447.423	0.31
447.782	0.3
448.141	0.3
448.5	0.28
448.859	0.3
449.218	0.29
449.577	0.3
449.936	0.31
450.295	0.3
450.653	0.29
451.012	0.3
451.371	0.3
451.729	0.3
452.088	0.3
452.447	0.3
452.805	0.29
453.163	0.29
453.522	0.29
453.88	0.28
454.239	0.28
454.597	0.27
454.955	0.28
455.313	0.27
455.671	0.28
456.029	0.26
456.388	0.26
456.746	0.27
457.104	0.27
457.461	0.25
457.819	0.25
458.177	0.25
458.535	0.24
458.893	0.24
459.25	0.24
459.608	0.24
459.966	0.23
460.323	0.23
460.681	0.23
461.038	0.24
461.396	0.23
461.753	0.22
462.111	0.23
462.468	0.22
462.825	0.22
463.182	0.22
463.54	0.22
463.897	0.21
464.254	0.22
464.611	0.22
464.968	0.21
465.325	0.22
465.682	0.2
466.039	0.21
466.395	0.2
466.752	0.2
467.109	0.19
467.466	0.2
467.822	0.2
468.179	0.19
468.535	0.19
468.892	0.19
469.248	0.18
469.605	0.19
469.961	0.19
470.318	0.19
470.674	0.19
471.03	0.18
471.386	0.19
471.743	0.18
472.099	0.18
472.455	0.18
472.811	0.17
473.167	0.17
473.523	0.16
473.879	0.16
474.235	0.16
474.59	0.16
474.946	0.15
475.302	0.16
475.657	0.15
476.013	0.16
476.369	0.15
476.724	0.15
477.08	0.15
477.435	0.15
477.791	0.15
478.146	0.15
478.501	0.14
478.857	0.15
479.212	0.14
479.567	0.14
479.922	0.14
480.277	0.13
480.632	0.14
480.987	0.14
481.342	0.14
481.697	0.13
482.052	0.13
482.407	0.13
482.762	0.13
483.116	0.12
483.471	0.12
483.826	0.12
484.18	0.12
484.535	0.12
484.89	0.12
485.244	0.12
485.598	0.12
485.953	0.12
486.307	0.12
486.661	0.12
487.016	0.11
487.37	0.12
487.724	0.11
488.078	0.11
488.432	0.11
488.786	0.11
489.14	0.11
489.494	0.1
489.848	0.11
490.202	0.1
490.556	0.11
490.91	0.1
491.263	0.1
491.617	0.1
491.971	0.1
492.324	0.1
492.678	0.11
493.031	0.11
493.385	0.1
493.738	0.1
494.091	0.1
494.445	0.1
494.798	0.1
495.151	0.1
495.504	0.1
495.857	0.1
496.21	0.1
496.564	0.09
496.916	0.1
497.269	0.09
497.622	0.1
497.975	0.1
498.328	0.1
498.681	0.1
499.033	0.09
499.386	0.09
499.739	0.1
500.091	0.09
500.444	0.09
500.796	0.09
501.149	0.09
501.501	0.09
501.854	0.09
502.206	0.09
502.558	0.09
502.91	0.09
503.263	0.09
503.615	0.09
503.967	0.09
504.319	0.09
504.671	0.08
505.023	0.08
505.375	0.08
505.726	0.09
506.078	0.09
506.43	0.08
506.782	0.08
507.133	0.08
507.485	0.09
507.837	0.09
508.188	0.08
508.54	0.09
508.891	0.09
509.243	0.08
509.594	0.09
509.945	0.08
510.296	0.08
510.648	0.09
510.999	0.08
511.35	0.08
511.701	0.08
512.052	0.09
512.403	0.08
512.754	0.08
513.105	0.07
513.456	0.07
513.807	0.07
514.157	0.08
514.508	0.08
514.859	0.07
515.209	0.08
515.56	0.08
515.91	0.07
516.261	0.08
516.611	0.07
516.962	0.08
517.312	0.08
517.662	0.08
518.013	0.07
518.363	0.07
518.713	0.08
519.063	0.08
519.413	0.07
519.763	0.07
520.113	0.07
520.463	0.08
520.813	0.08
521.163	0.08
521.512	0.08
521.862	0.07
522.212	0.08
522.562	0.08
522.911	0.08
523.261	0.08
523.61	0.08
523.96	0.08
524.309	0.08
524.658	0.08
525.008	0.07
525.357	0.07
525.706	0.08
526.056	0.08
526.405	0.08
526.754	0.08
527.103	0.07
527.452	0.08
527.801	0.08
528.15	0.08
528.499	0.08
528.847	0.08
529.196	0.09
529.545	0.09
529.893	0.09
530.242	0.08
530.591	0.09
530.939	0.09
531.288	0.08
531.636	0.09
531.985	0.09
532.333	0.08
532.681	0.08
533.029	0.09
533.378	0.09
533.726	0.08
534.074	0.09
534.422	0.08
534.77	0.09
535.118	0.08
535.466	0.08
535.814	0.08
536.162	0.08
536.509	0.08
536.857	0.08
537.205	0.08
537.552	0.08
537.9	0.09
538.248	0.08
538.595	0.08
538.943	0.09
539.29	0.09
539.637	0.08
539.985	0.08
540.332	0.08
540.679	0.08
541.026	0.08
541.373	0.09
541.721	0.07
542.068	0.08
542.415	0.08
542.762	0.07
543.108	0.06
543.455	0.06
543.802	0.07
544.149	0.07
544.496	0.08
544.842	0.07
545.189	0.06
545.535	0.07
545.882	0.07
546.228	0.06
546.575	0.06
546.921	0.07
547.267	0.06
547.614	0.07
547.96	0.06
548.306	0.07
548.652	0.06
548.998	0.07
549.344	0.07
549.69	0.07
550.036	0.07
550.382	0.07
550.728	0.07
551.074	0.08
551.42	0.08
551.765	0.07
552.111	0.08
552.457	0.08
552.802	0.07
553.148	0.08
553.493	0.07
553.839	0.08
554.184	0.08
554.529	0.07
554.875	0.08
555.22	0.08
555.565	0.08
555.91	0.08
556.255	0.08
556.6	0.08
556.945	0.08
557.29	0.08
557.635	0.08
557.98	0.08
558.325	0.08
558.67	0.08
559.014	0.08
559.359	0.08
559.704	0.07
560.048	0.07
560.393	0.07
560.737	0.06
561.082	0.07
561.426	0.06
561.77	0.07
562.115	0.06
562.459	0.06
562.803	0.06
563.147	0.07
563.491	0.07
563.835	0.07
564.179	0.07
564.523	0.07
564.867	0.07
565.211	0.07
565.555	0.07
565.899	0.08
566.242	0.07
566.586	0.07
566.93	0.07
567.273	0.08
567.617	0.07
567.96	0.08
568.304	0.08
568.647	0.07
568.99	0.08
569.334	0.08
569.677	0.07
570.02	0.08
570.363	0.08
570.706	0.07
571.049	0.07
571.392	0.08
571.735	0.07
572.078	0.07
572.421	0.08
572.764	0.07
573.106	0.07
573.449	0.07
573.792	0.06
574.134	0.07
574.477	0.08
574.819	0.08
575.162	0.06
575.504	0.07
575.847	0.08
576.189	0.07
576.531	0.07
576.873	0.07
577.215	0.07
577.558	0.08
577.9	0.07
578.242	0.07
578.584	0.07
578.926	0.07
579.267	0.07
579.609	0.07
579.951	0.07
580.293	0.07
580.634	0.07
580.976	0.07
581.318	0.07
581.659	0.07
582.001	0.07
582.342	0.07
582.683	0.08
583.025	0.07
583.366	0.07
583.707	0.07
584.049	0.07
584.39	0.06
584.731	0.07
585.072	0.07
585.413	0.07
585.754	0.08
586.095	0.07
586.435	0.07
586.776	0.07
587.117	0.07
587.458	0.07
587.798	0.08
588.139	0.07
588.48	0.07
588.82	0.07
589.161	0.07
589.501	0.07
589.841	0.08
590.182	0.07
590.522	0.07
590.862	0.07
591.202	0.07
591.542	0.07
591.882	0.07
592.222	0.07
592.562	0.08
592.902	0.07
593.242	0.07
593.582	0.07
593.922	0.07
594.261	0.07
594.601	0.07
594.941	0.07
595.28	0.07
595.62	0.07
595.959	0.07
596.299	0.07
596.638	0.07
596.977	0.07
597.317	0.07
597.656	0.07
597.995	0.08
598.334	0.09
598.673	0.07
599.012	0.07
599.351	0.07
599.69	0.07
600.029	0.07
600.368	0.07
600.707	0.07
601.046	0.07
601.384	0.07
601.723	0.07
602.061	0.07
602.4	0.07
602.738	0.08
603.077	0.07
603.415	0.07
603.754	0.07
604.092	0.07
604.43	0.07
604.768	0.08
605.107	0.07
605.445	0.07
605.783	0.06
606.121	0.07
606.459	0.07
606.796	0.07
607.134	0.07
607.472	0.06
607.81	0.08
608.148	0.06
608.485	0.07
608.823	0.07
609.16	0.07
609.498	0.07
609.835	0.07
610.173	0.07
610.51	0.08
610.847	0.08
611.185	0.07
611.522	0.08
611.859	0.08
612.196	0.08
612.533	0.08
612.87	0.08
613.207	0.08
613.544	0.08
613.881	0.09
614.217	0.08
614.554	0.08
614.891	0.08
615.228	0.08
615.564	0.08
615.901	0.08
616.237	0.08
616.574	0.08
616.91	0.08
617.246	0.08
617.583	0.08
617.919	0.09
618.255	0.09
618.591	0.08
618.927	0.09
619.263	0.09
619.599	0.09
619.935	0.09
620.271	0.09
620.607	0.08
620.943	0.08
621.279	0.08
621.614	0.08
621.95	0.09
622.286	0.08
622.621	0.07
622.957	0.08
623.292	0.08
623.627	0.07
623.963	0.07
624.298	0.08
624.633	0.07
624.968	0.07
625.304	0.07
625.639	0.07
625.974	0.07
626.309	0.06
626.644	0.07
626.979	0.08
627.313	0.07
627.648	0.07
627.983	0.07
628.318	0.07
628.652	0.07
628.987	0.07
629.321	0.07
629.656	0.06
629.99	0.07
630.325	0.07
630.659	0.07
630.993	0.07
631.327	0.07
631.662	0.06
631.996	0.07
632.33	0.07
632.664	0.07
632.998	0.06
633.332	0.06
633.666	0.07
633.999	0.07
634.333	0.06
634.667	0.07
635.001	0.06
635.334	0.07
635.668	0.06
636.001	0.06
636.335	0.07
636.668	0.07
637.001	0.06
637.335	0.06
637.668	0.06
638.001	0.06
638.334	0.07
638.668	0.06
639.001	0.06
639.334	0.06
639.667	0.05
639.999	0.06
640.332	0.06
640.665	0.05
640.998	0.06
641.331	0.06
641.663	0.06
641.996	0.05
642.328	0.06
642.661	0.06
642.993	0.06
643.326	0.05
643.658	0.05
643.99	0.05
644.323	0.05
644.655	0.06
644.987	0.05
645.319	0.06
645.651	0.06
645.983	0.05
646.315	0.06
646.647	0.06
646.979	0.07
647.31	0.07
647.642	0.06
647.974	0.06
648.305	0.07
648.637	0.06
648.968	0.07
649.3	0.08
649.631	0.07
649.963	0.07
650.294	0.07
650.625	0.07
650.957	0.08
651.288	0.07
651.619	0.08
651.95	0.07
652.281	0.08
652.612	0.07
652.943	0.07
653.274	0.08
653.604	0.07
653.935	0.07
654.266	0.07
654.596	0.07
654.927	0.07
655.258	0.07
655.588	0.07
655.918	0.07
656.249	0.05
656.579	0.06
656.909	0.07
657.24	0.06
657.57	0.08
657.9	0.07
658.23	0.07
658.56	0.07
658.89	0.08
659.22	0.07
659.55	0.07
659.88	0.08
660.209	0.07
660.539	0.09
660.869	0.08
661.198	0.08
661.528	0.08
661.857	0.08
662.187	0.08
662.516	0.08
662.846	0.07
663.175	0.07
663.504	0.07
663.833	0.07
664.163	0.07
664.492	0.07
664.821	0.07
665.15	0.07
665.479	0.07
665.807	0.07
666.136	0.07
666.465	0.06
666.794	0.06
667.122	0.06
667.451	0.07
667.78	0.06
668.108	0.07
668.437	0.06
668.765	0.07
669.093	0.07
669.422	0.07
669.75	0.07
670.078	0.07
670.406	0.07
670.734	0.07
671.062	0.07
671.39	0.07
671.718	0.08
672.046	0.07
672.374	0.07
672.702	0.07
673.029	0.07
673.357	0.07
673.685	0.08
674.012	0.06
674.34	0.07
674.667	0.08
674.995	0.07
675.322	0.07
675.649	0.06
675.977	0.06
676.304	0.07
676.631	0.07
676.958	0.07
677.285	0.06
677.612	0.06
677.939	0.06
678.266	0.07
678.593	0.06
678.92	0.07
679.246	0.06
679.573	0.06
679.9	0.06
680.226	0.06
680.553	0.06
680.879	0.06
681.206	0.06
681.532	0.05
681.858	0.06
682.184	0.05
682.511	0.06
682.837	0.05
683.163	0.06
683.489	0.06
683.815	0.05
684.141	0.06
684.467	0.05
684.793	0.05
685.118	0.06
685.444	0.06
685.77	0.06
686.095	0.06
686.421	0.06
686.746	0.07
687.072	0.07
687.397	0.06
687.723	0.06
688.048	0.07
688.373	0.07
688.698	0.07
689.023	0.06
689.349	0.06
689.674	0.06
689.999	0.06
690.323	0.06
690.648	0.06
690.973	0.05
691.298	0.06
691.623	0.05
691.947	0.06
692.272	0.06
692.596	0.05
692.921	0.05
693.245	0.05
693.57	0.05
693.894	0.06
694.218	0.06
694.543	0.06
694.867	0.05
695.191	0.05
695.515	0.06
695.839	0.05
696.163	0.05
696.487	0.06
696.811	0.05
697.135	0.06
697.458	0.05
697.782	0.06
698.106	0.06
698.429	0.06
698.753	0.05
699.076	0.05
699.4	0.05
699.723	0.05
700.046	0.05
700.37	0.06
700.693	0.06
701.016	0.06
701.339	0.06
701.662	0.06
701.985	0.06
702.308	0.05
702.631	0.06
702.954	0.05
703.277	0.05
703.599	0.05
703.922	0.05
704.245	0.06
704.567	0.05
704.89	0.04
705.212	0.06
705.535	0.05
705.857	0.05
706.179	0.05
706.502	0.04
706.824	0.04
707.146	0.04
707.468	0.06
707.79	0.05
708.112	0.05
708.434	0.06
708.756	0.05
709.078	0.05
709.399	0.05
709.721	0.05
710.043	0.05
710.364	0.05
710.686	0.06
711.007	0.05
711.329	0.06
711.65	0.06
711.972	0.05
712.293	0.06
712.614	0.05
712.935	0.05
713.256	0.05
713.577	0.06
713.898	0.05
714.219	0.05
714.54	0.05
714.861	0.04
715.182	0.05
715.503	0.05
715.823	0.04
716.144	0.04
716.464	0.04
716.785	0.04
717.105	0.05
717.426	0.05
717.746	0.04
718.066	0.04
718.387	0.04
718.707	0.03
719.027	0.04
719.347	0.04
719.667	0.04
719.987	0.04
720.307	0.04
720.627	0.03
720.947	0.03
721.266	0.04
721.586	0.03
721.906	0.03
722.225	0.03
722.545	0.03
722.864	0.03
723.184	0.04
723.503	0.03
723.823	0.04
724.142	0.03
724.461	0.03
724.78	0.03
725.099	0.04
725.418	0.04
725.737	0.03
726.056	0.04
726.375	0.04
726.694	0.04
727.013	0.04
727.331	0.03
727.65	0.04
727.969	0.04
728.287	0.04
728.606	0.04
728.924	0.03
729.242	0.04
729.561	0.04
729.879	0.03
730.197	0.03
730.515	0.03
730.834	0.04
731.152	0.04
731.47	0.04
731.788	0.04
732.105	0.03
732.423	0.04
732.741	0.03
733.059	0.03
733.376	0.04
733.694	0.03
734.012	0.03
734.329	0.03
734.647	0.03
734.964	0.04
735.281	0.04
735.599	0.04
735.916	0.04
736.233	0.04
736.55	0.03
736.867	0.04
737.184	0.04
737.501	0.04
737.818	0.04
738.135	0.05
738.452	0.04
738.768	0.04
739.085	0.04
739.402	0.03
739.718	0.04
740.035	0.03
740.351	0.05
740.668	0.05
740.984	0.04
741.3	0.04
741.617	0.04
741.933	0.04
742.249	0.04
742.565	0.04
742.881	0.04
743.197	0.04
743.513	0.04
743.829	0.03
744.144	0.04
744.46	0.04
744.776	0.04
745.091	0.04
745.407	0.04
745.722	0.04
746.038	0.04
746.353	0.03
746.669	0.04
746.984	0.04
747.299	0.04
747.614	0.05
747.93	0.04
748.245	0.04
748.56	0.05
748.875	0.04
749.189	0.05
749.504	0.04
749.819	0.05
750.134	0.05
750.448	0.04
750.763	0.05
751.078	0.04
751.392	0.04
751.707	0.05
752.021	0.05
752.335	0.05
752.65	0.05
752.964	0.04
753.278	0.04
753.592	0.04
753.906	0.04
754.22	0.04
754.534	0.05
754.848	0.05
755.162	0.04
755.476	0.04
755.789	0.05
756.103	0.04
756.417	0.04
756.73	0.04
757.044	0.05
757.357	0.04
757.671	0.05
757.984	0.05
758.297	0.05
758.61	0.05
758.924	0.05
759.237	0.04
759.55	0.05
759.863	0.05
760.176	0.04
760.488	0.04
760.801	0.04
761.114	0.05
761.427	0.04
761.739	0.05
762.052	0.04
762.365	0.04
762.677	0.04
762.99	0.03
763.302	0.04
763.614	0.04
763.926	0.04
764.239	0.04
764.551	0.04
764.863	0.04
765.175	0.05
765.487	0.04
765.799	0.03
766.111	0.03
766.423	0.04
766.734	0.03
767.046	0.03
767.358	0.04
767.669	0.03
767.981	0.04
768.292	0.04
768.604	0.04
768.915	0.03
769.226	0.03
769.537	0.03
769.849	0.03
770.16	0.04
770.471	0.03
770.782	0.03
771.093	0.04
771.404	0.02
771.715	0.03
772.025	0.03
772.336	0.04
772.647	0.03
772.957	0.03
773.268	0.03
773.578	0.03
773.889	0.03
774.199	0.04
774.51	0.03
774.82	0.03
775.13	0.04
775.44	0.04
775.75	0.04
776.06	0.03
776.37	0.03
776.68	0.03
776.99	0.03
777.3	0.03
777.61	0.04
777.92	0.03
778.229	0.03
778.539	0.03
778.848	0.04
779.158	0.04
779.467	0.04
779.777	0.03
780.086	0.03
780.395	0.03
780.704	0.03
781.013	0.03
781.323	0.03
781.632	0.03
781.941	0.04
782.249	0.04
782.558	0.04
782.867	0.04
783.176	0.03
783.485	0.03
783.793	0.03
784.102	0.04
784.41	0.04
784.719	0.04
785.027	0.03
785.335	0.02
785.644	0.03
785.952	0.03
786.26	0.03
786.568	0.02
786.876	0.03
787.184	0.03
787.492	0.03
787.8	0.03
788.108	0.04
788.416	0.03
788.723	0.03
789.031	0.03
789.338	0.02
789.646	0.03
789.953	0.04
790.261	0.03
790.568	0.03
790.876	0.03
791.183	0.04
791.49	0.03
791.797	0.03
792.104	0.02
792.411	0.04
792.718	0.03
793.025	0.03
793.332	0.03
793.639	0.04
793.945	0.04
794.252	0.04
794.559	0.03
794.865	0.04
795.172	0.04
795.478	0.04
795.784	0.04
796.091	0.04
796.397	0.04
796.703	0.04
797.009	0.05
797.315	0.04
797.622	0.04
797.927	0.04
798.233	0.04
798.539	0.04
798.845	0.04
799.151	0.04
799.456	0.04
799.762	0.03
800.068	0.04
800.373	0.04
800.679	0.04
800.984	0.04
801.289	0.03
801.595	0.03
801.9	0.03
802.205	0.03
802.51	0.04
802.815	0.03
803.12	0.03
803.425	0.03
803.73	0.03
804.035	0.03
804.339	0.03
804.644	0.04
804.949	0.03
805.253	0.03
805.558	0.04
805.862	0.03
806.167	0.04
806.471	0.03
806.775	0.04
807.08	0.04
807.384	0.03
807.688	0.04
807.992	0.04
808.296	0.04
808.6	0.04
808.904	0.04
809.207	0.04
809.511	0.05
809.815	0.05
810.119	0.04
810.422	0.05
810.726	0.05
811.029	0.05
811.332	0.05
811.636	0.05
811.939	0.04
812.242	0.05
812.546	0.04
812.849	0.04
813.152	0.05
813.455	0.05
813.758	0.05
814.06	0.04
814.363	0.05
814.666	0.04
814.969	0.05
815.271	0.04
815.574	0.04
815.877	0.04
816.179	0.04
816.481	0.04
816.784	0.04
817.086	0.03
817.388	0.03
817.69	0.03
817.993	0.03
818.295	0.02
818.597	0.02
818.899	0.02
819.2	0.02
819.502	0.02
819.804	0.02
820.106	0.03
820.407	0.03
820.709	0.03
821.01	0.03
821.312	0.03
821.613	0.01
821.915	0.02
822.216	0.02
822.517	0.02
822.818	0.02
823.119	0.03
823.42	0.02
823.721	0.02
824.022	0.02
824.323	0.03
824.624	0.03
824.925	0.03
825.226	0.03
825.526	0.04
825.827	0.02
826.127	0.04
826.428	0.03
826.728	0.02
827.028	0.03
827.329	0.03
827.629	0.02
827.929	0.03
828.229	0.03
828.529	0.03
828.829	0.03
829.129	0.02
829.429	0.03
829.729	0.03
830.029	0.02
830.328	0.03
830.628	0.02
830.927	0.01
831.227	0.02
831.526	0.02
831.826	0.02
832.125	0.02
832.424	0.01
832.724	0.02
833.023	0.02
833.322	0.03
833.621	0.02
833.92	0.01
834.219	0.01
834.518	0.03
834.816	0.01
835.115	0.02
835.414	0.02
835.712	0.02
836.011	0.01
836.309	0.01
836.608	0.01
836.906	0.01
837.205	0
837.503	0.01
837.801	0
838.099	-0
838.397	-0.01
838.695	0
838.993	-0.01
839.291	-0.01
839.589	-0.01
839.887	-0
840.184	-0.01
840.482	-0.02
840.78	-0.02
841.077	-0.03
841.375	-0.02
841.672	-0.02
841.969	-0.02
842.267	-0.02
842.564	-0.03
842.861	-0.02
843.158	-0.03
843.455	-0.05
843.752	-0.04
844.049	-0.04
844.346	-0.04
844.643	-0.05
844.94	-0.05
845.236	-0.04
845.533	-0.04
845.83	-0.05
846.126	-0.05
846.423	-0.05
846.719	-0.06
847.015	-0.05
847.312	-0.05
847.608	-0.06
847.904	-0.07
848.2	-0.07
848.496	-0.06
848.792	-0.06
849.088	-0.05
849.384	-0.07
849.68	-0.08
849.975	-0.05
850.271	-0.07
850.567	-0.07
850.862	-0.06
851.158	-0.07
851.453	-0.07
851.748	-0.08
852.044	-0.07
852.339	-0.07
852.634	-0.09
852.929	-0.07
853.224	-0.07
853.519	-0.07
853.814	-0.07
854.109	-0.08
854.404	-0.08
854.699	-0.08
854.994	-0.07
855.288	-0.07
855.583	-0.08
855.877	-0.09
856.172	-0.08
856.466	-0.09
856.76	-0.08
857.055	-0.08
857.349	-0.1
857.643	-0.1
857.937	-0.1
858.231	-0.1
858.525	-0.1
858.819	-0.1
859.113	-0.11
859.407	-0.11
859.701	-0.12
859.994	-0.11
860.288	-0.09
860.581	-0.1
860.875	-0.11
861.168	-0.12
861.462	-0.11
861.755	-0.11
862.048	-0.12
862.341	-0.12
862.634	-0.12
862.928	-0.12
863.221	-0.13
863.513	-0.13
863.806	-0.12
864.099	-0.13
864.392	-0.13
864.685	-0.13
864.977	-0.13
865.27	-0.13
865.562	-0.13
865.855	-0.13
866.147	-0.14
866.44	-0.12
866.732	-0.14
867.024	-0.15
867.316	-0.14
867.608	-0.15
867.9	-0.14
868.192	-0.15
868.484	-0.14
868.776	-0.14
869.068	-0.14
869.359	-0.15
869.651	-0.15
869.943	-0.17
870.234	-0.16
870.526	-0.17
870.817	-0.17
871.108	-0.14
871.4	-0.16
871.691	-0.16
871.982	-0.16
872.273	-0.18
872.564	-0.17
872.855	-0.17
873.146	-0.18
873.437	-0.17
873.728	-0.18
874.019	-0.17
874.309	-0.18
874.6	-0.19
874.89	-0.18
875.181	-0.19
875.471	-0.17
875.762	-0.17
876.052	-0.18
876.342	-0.16
876.632	-0.18
876.922	-0.19
877.213	-0.17
877.503	-0.19
877.792	-0.17
878.082	-0.19
878.372	-0.17
878.662	-0.2
878.952	-0.18
879.241	-0.18
879.531	-0.17
879.82	-0.19
880.11	-0.18
880.399	-0.19
880.688	-0.18
880.978	-0.18
881.267	-0.18
