Data from 12-12-AQDScycling_Absorbance__462__00462.txt Node

Date: Tue Dec 12 12:52:14 EST 2023
User: kyuminlee
Spectrometer: FLMS00943
Trigger mode: 0
Integration Time (sec): 1.000000E-1
Scans to average: 1
Electric dark correction enabled: true
Nonlinearity correction enabled: false
Boxcar width: 0
XAxis mode: Wavelengths
Number of Pixels in Spectrum: 2048
>>>>>Begin Spectral Data<<<<<
179.651	-0.15
180.037	-0.15
180.424	-0.15
180.81	-0
181.197	0.25
181.583	-0
181.97	-0.51
182.356	-0
182.743	-0
183.129	0
183.515	0.49
183.901	-0
184.288	0.58
184.674	0.17
185.06	-0.78
185.446	-0
185.832	-0.97
186.218	0.24
186.604	-0
186.99	-0
187.376	-0.14
187.762	-0
188.148	0.71
188.534	-0.36
188.92	0.08
189.305	0.14
189.691	0.25
190.077	0.11
190.463	0.08
190.848	-0.02
191.234	0.07
191.619	0
192.005	0.28
192.391	0.2
192.776	0.21
193.161	0.09
193.547	0.17
193.932	0.04
194.318	0.13
194.703	0.06
195.088	0.19
195.473	0.19
195.859	0.12
196.244	0.22
196.629	0.05
197.014	0.01
197.399	0.16
197.784	0.06
198.169	0.1
198.554	0.19
198.939	0.14
199.324	0.1
199.709	0.01
200.094	0.07
200.478	0.25
200.863	0.17
201.248	0.15
201.633	0.2
202.017	0.17
202.402	0.05
202.787	0.14
203.171	0.19
203.556	0.18
203.94	0.23
204.325	0.22
204.709	0.12
205.093	0.06
205.478	0.03
205.862	0.12
206.246	0.19
206.631	0.08
207.015	0.06
207.399	0.25
207.783	0.2
208.167	0.04
208.551	0.17
208.935	0.16
209.319	0.05
209.703	0.07
210.087	0.22
210.471	0.09
210.855	0.08
211.239	0.18
211.623	0.32
212.007	0.32
212.39	0.32
212.774	0.22
213.158	0.06
213.541	0.23
213.925	0.13
214.309	0.42
214.692	0.21
215.076	0.33
215.459	0.15
215.842	0.14
216.226	0.36
216.609	0.25
216.993	0.18
217.376	0.52
217.759	0.36
218.142	0.4
218.525	0.92
218.909	0.28
219.292	0.3
219.675	0.43
220.058	0.4
220.441	0.42
220.824	0.47
221.207	0.72
221.59	0.53
221.973	0.55
222.355	0.66
222.738	0.71
223.121	0.56
223.504	0.47
223.886	0.8
224.269	0.69
224.652	0.67
225.034	0.81
225.417	0.72
225.799	0.85
226.182	0.93
226.564	0.89
226.947	0.7
227.329	0.72
227.711	0.96
228.094	0.84
228.476	0.91
228.858	0.71
229.24	0.84
229.623	0.99
230.005	0.79
230.387	0.76
230.769	0.77
231.151	0.93
231.533	1.07
231.915	0.99
232.297	1.1
232.679	0.91
233.061	0.92
233.442	0.91
233.824	1.02
234.206	1.09
234.588	1.07
234.969	1.13
235.351	1
235.733	1.08
236.114	1.08
236.496	1.12
236.877	1
237.259	0.99
237.64	1
238.022	1.04
238.403	1.06
238.784	1.06
239.165	0.97
239.547	1.03
239.928	1.06
240.309	1.06
240.69	1.03
241.071	0.99
241.452	1.07
241.834	1.09
242.215	1.07
242.595	1.04
242.976	1.12
243.357	1.14
243.738	1.05
244.119	1.24
244.5	1.17
244.881	1.11
245.261	1.22
245.642	1.2
246.023	1.14
246.403	1.13
246.784	1.14
247.164	1.3
247.545	1.27
247.925	1.35
248.306	1.17
248.686	1.34
249.067	1.15
249.447	1.38
249.827	1.45
250.207	1.44
250.588	1.26
250.968	1.33
251.348	1.3
251.728	1.42
252.108	1.27
252.488	1.31
252.868	1.37
253.248	1.28
253.628	1.43
254.008	1.47
254.388	1.26
254.768	1.29
255.147	1.3
255.527	1.42
255.907	1.27
256.287	1.34
256.666	1.32
257.046	1.38
257.425	1.42
257.805	1.29
258.184	1.28
258.564	1.27
258.943	1.33
259.323	1.41
259.702	1.44
260.081	1.52
260.461	1.64
260.84	1.46
261.219	1.58
261.598	1.36
261.977	1.52
262.356	1.56
262.736	1.51
263.115	1.52
263.494	1.39
263.873	1.44
264.251	1.37
264.63	1.5
265.009	1.56
265.388	1.41
265.767	1.39
266.145	1.34
266.524	1.48
266.903	1.41
267.281	1.34
267.66	1.52
268.039	1.53
268.417	1.29
268.796	1.37
269.174	1.35
269.552	1.3
269.931	1.4
270.309	1.36
270.687	1.35
271.066	1.48
271.444	1.38
271.822	1.36
272.2	1.59
272.578	1.32
272.956	1.27
273.334	1.32
273.712	1.41
274.09	1.42
274.468	1.26
274.846	1.3
275.224	1.3
275.602	1.36
275.98	1.46
276.357	1.48
276.735	1.3
277.113	1.49
277.49	1.26
277.868	1.34
278.246	1.48
278.623	1.32
279.001	1.27
279.378	1.39
279.756	1.55
280.133	1.49
280.51	1.37
280.888	1.56
281.265	1.39
281.642	1.46
282.019	1.47
282.396	1.7
282.773	1.46
283.151	1.36
283.528	1.45
283.905	1.44
284.282	1.6
284.659	1.66
285.035	1.29
285.412	1.27
285.789	1.5
286.166	1.46
286.543	1.43
286.919	1.38
287.296	1.32
287.673	1.74
288.049	1.64
288.426	1.61
288.802	1.52
289.179	1.43
289.555	1.61
289.932	1.41
290.308	1.34
290.684	1.45
291.061	1.3
291.437	1.4
291.813	1.31
292.189	1.38
292.565	1.25
292.942	1.29
293.318	1.29
293.694	1.56
294.07	1.24
294.446	1.48
294.822	1.51
295.197	1.37
295.573	1.44
295.949	1.57
296.325	1.41
296.701	1.4
297.076	1.44
297.452	1.5
297.828	1.44
298.203	1.51
298.579	1.43
298.954	1.63
299.33	1.47
299.705	1.52
300.081	1.42
300.456	1.47
300.831	1.49
301.206	1.43
301.582	1.57
301.957	1.5
302.332	1.64
302.707	1.48
303.082	1.47
303.457	1.54
303.832	1.42
304.207	1.52
304.582	1.57
304.957	1.43
305.332	1.49
305.707	1.56
306.082	1.51
306.456	1.56
306.831	1.47
307.206	1.58
307.58	1.56
307.955	1.43
308.33	1.53
308.704	1.53
309.079	1.38
309.453	1.59
309.828	1.57
310.202	1.54
310.576	1.43
310.951	1.59
311.325	1.65
311.699	1.61
312.073	1.51
312.447	1.55
312.821	1.53
313.196	1.45
313.57	1.45
313.944	1.39
314.317	1.45
314.691	1.54
315.065	1.64
315.439	1.58
315.813	1.51
316.187	1.42
316.56	1.69
316.934	1.54
317.308	1.46
317.681	1.51
318.055	1.55
318.428	1.65
318.802	1.6
319.175	1.74
319.549	1.5
319.922	1.41
320.295	1.46
320.669	1.65
321.042	1.6
321.415	1.8
321.788	1.54
322.162	1.51
322.535	1.58
322.908	1.61
323.281	1.45
323.654	1.56
324.027	1.55
324.4	1.67
324.773	1.47
325.145	1.46
325.518	1.46
325.891	1.48
326.264	1.61
326.636	1.53
327.009	1.51
327.382	1.47
327.754	1.66
328.127	1.44
328.499	1.67
328.872	1.45
329.244	1.63
329.616	1.48
329.989	1.43
330.361	1.49
330.733	1.42
331.106	1.56
331.478	1.59
331.85	1.5
332.222	1.46
332.594	1.58
332.966	1.54
333.338	1.57
333.71	1.49
334.082	1.53
334.454	1.42
334.826	1.4
335.197	1.49
335.569	1.41
335.941	1.52
336.312	1.46
336.684	1.52
337.056	1.38
337.427	1.53
337.799	1.54
338.17	1.55
338.542	1.49
338.913	1.58
339.284	1.77
339.656	1.54
340.027	1.67
340.398	1.67
340.769	1.55
341.141	1.7
341.512	1.58
341.883	1.51
342.254	1.49
342.625	1.48
342.996	1.51
343.367	1.56
343.738	1.53
344.108	1.51
344.479	1.53
344.85	1.38
345.221	1.49
345.591	1.45
345.962	1.45
346.333	1.38
346.703	1.27
347.074	1.4
347.444	1.32
347.815	1.3
348.185	1.42
348.556	1.36
348.926	1.35
349.296	1.36
349.666	1.3
350.037	1.3
350.407	1.24
350.777	1.29
351.147	1.35
351.517	1.4
351.887	1.34
352.257	1.37
352.627	1.29
352.997	1.31
353.367	1.37
353.737	1.36
354.106	1.31
354.476	1.32
354.846	1.37
355.216	1.31
355.585	1.41
355.955	1.25
356.324	1.31
356.694	1.28
357.063	1.24
357.433	1.21
357.802	1.23
358.171	1.22
358.541	1.16
358.91	1.17
359.279	1.16
359.648	1.14
360.017	1.12
360.387	1.14
360.756	1.01
361.125	1.04
361.494	1.04
361.863	1
362.231	0.97
362.6	0.95
362.969	0.93
363.338	0.89
363.707	0.93
364.075	0.91
364.444	0.81
364.813	0.85
365.181	0.82
365.55	0.8
365.918	0.82
366.287	0.76
366.655	0.77
367.024	0.76
367.392	0.75
367.76	0.69
368.128	0.7
368.497	0.69
368.865	0.67
369.233	0.65
369.601	0.63
369.969	0.64
370.337	0.62
370.705	0.59
371.073	0.58
371.441	0.58
371.809	0.57
372.177	0.55
372.544	0.54
372.912	0.53
373.28	0.54
373.647	0.52
374.015	0.54
374.383	0.49
374.75	0.51
375.118	0.47
375.485	0.48
375.853	0.46
376.22	0.46
376.587	0.45
376.955	0.46
377.322	0.44
377.689	0.42
378.056	0.41
378.423	0.42
378.79	0.43
379.157	0.41
379.524	0.41
379.891	0.42
380.258	0.4
380.625	0.4
380.992	0.39
381.359	0.39
381.726	0.4
382.092	0.38
382.459	0.37
382.826	0.38
383.192	0.37
383.559	0.36
383.925	0.39
384.292	0.37
384.658	0.37
385.025	0.34
385.391	0.36
385.757	0.36
386.123	0.37
386.49	0.37
386.856	0.37
387.222	0.36
387.588	0.36
387.954	0.36
388.32	0.35
388.686	0.34
389.052	0.32
389.418	0.34
389.784	0.34
390.15	0.32
390.515	0.34
390.881	0.33
391.247	0.33
391.613	0.36
391.978	0.34
392.344	0.34
392.709	0.32
393.075	0.34
393.44	0.32
393.806	0.3
394.171	0.33
394.536	0.33
394.902	0.31
395.267	0.3
395.632	0.32
395.997	0.3
396.362	0.32
396.727	0.33
397.092	0.32
397.457	0.31
397.822	0.31
398.187	0.3
398.552	0.3
398.917	0.28
399.282	0.31
399.646	0.3
400.011	0.3
400.376	0.29
400.74	0.28
401.105	0.28
401.47	0.29
401.834	0.29
402.199	0.29
402.563	0.28
402.927	0.28
403.292	0.29
403.656	0.28
404.02	0.28
404.384	0.27
404.749	0.27
405.113	0.27
405.477	0.28
405.841	0.26
406.205	0.27
406.569	0.26
406.933	0.25
407.296	0.25
407.66	0.26
408.024	0.25
408.388	0.27
408.752	0.24
409.115	0.24
409.479	0.25
409.842	0.25
410.206	0.23
410.569	0.25
410.933	0.24
411.296	0.24
411.66	0.24
412.023	0.23
412.386	0.25
412.749	0.24
413.113	0.23
413.476	0.21
413.839	0.23
414.202	0.21
414.565	0.21
414.928	0.22
415.291	0.21
415.654	0.23
416.017	0.21
416.38	0.21
416.742	0.21
417.105	0.18
417.468	0.22
417.83	0.21
418.193	0.21
418.556	0.21
418.918	0.19
419.281	0.2
419.643	0.21
420.005	0.21
420.368	0.21
420.73	0.21
421.092	0.2
421.455	0.19
421.817	0.19
422.179	0.19
422.541	0.19
422.903	0.19
423.265	0.19
423.627	0.18
423.989	0.18
424.351	0.19
424.713	0.18
425.075	0.18
425.436	0.17
425.798	0.18
426.16	0.18
426.521	0.19
426.883	0.18
427.245	0.18
427.606	0.17
427.967	0.17
428.329	0.18
428.69	0.19
429.052	0.18
429.413	0.18
429.774	0.17
430.135	0.16
430.497	0.16
430.858	0.17
431.219	0.17
431.58	0.17
431.941	0.17
432.302	0.18
432.663	0.15
433.024	0.17
433.384	0.17
433.745	0.15
434.106	0.16
434.467	0.17
434.827	0.17
435.188	0.16
435.548	0.17
435.909	0.16
436.269	0.19
436.63	0.15
436.99	0.16
437.351	0.17
437.711	0.17
438.071	0.17
438.431	0.16
438.792	0.16
439.152	0.16
439.512	0.15
439.872	0.16
440.232	0.17
440.592	0.17
440.952	0.16
441.312	0.15
441.671	0.15
442.031	0.15
442.391	0.15
442.751	0.15
443.11	0.14
443.47	0.14
443.83	0.15
444.189	0.15
444.549	0.14
444.908	0.15
445.267	0.14
445.627	0.14
445.986	0.14
446.345	0.13
446.705	0.13
447.064	0.15
447.423	0.14
447.782	0.14
448.141	0.13
448.5	0.13
448.859	0.15
449.218	0.13
449.577	0.14
449.936	0.14
450.295	0.13
450.653	0.14
451.012	0.14
451.371	0.15
451.729	0.13
452.088	0.13
452.447	0.14
452.805	0.14
453.163	0.14
453.522	0.14
453.88	0.13
454.239	0.14
454.597	0.13
454.955	0.13
455.313	0.12
455.671	0.12
456.029	0.12
456.388	0.12
456.746	0.13
457.104	0.13
457.461	0.11
457.819	0.12
458.177	0.11
458.535	0.11
458.893	0.11
459.25	0.11
459.608	0.11
459.966	0.11
460.323	0.11
460.681	0.1
461.038	0.11
461.396	0.1
461.753	0.1
462.111	0.1
462.468	0.1
462.825	0.09
463.182	0.1
463.54	0.1
463.897	0.1
464.254	0.1
464.611	0.1
464.968	0.1
465.325	0.1
465.682	0.1
466.039	0.1
466.395	0.1
466.752	0.09
467.109	0.1
467.466	0.1
467.822	0.1
468.179	0.09
468.535	0.09
468.892	0.09
469.248	0.09
469.605	0.09
469.961	0.09
470.318	0.1
470.674	0.1
471.03	0.09
471.386	0.09
471.743	0.09
472.099	0.09
472.455	0.09
472.811	0.09
473.167	0.09
473.523	0.08
473.879	0.08
474.235	0.08
474.59	0.07
474.946	0.07
475.302	0.08
475.657	0.07
476.013	0.07
476.369	0.07
476.724	0.08
477.08	0.08
477.435	0.07
477.791	0.08
478.146	0.08
478.501	0.08
478.857	0.08
479.212	0.08
479.567	0.08
479.922	0.07
480.277	0.07
480.632	0.07
480.987	0.08
481.342	0.07
481.697	0.07
482.052	0.07
482.407	0.07
482.762	0.07
483.116	0.07
483.471	0.06
483.826	0.07
484.18	0.06
484.535	0.06
484.89	0.06
485.244	0.07
485.598	0.07
485.953	0.06
486.307	0.06
486.661	0.07
487.016	0.06
487.37	0.06
487.724	0.06
488.078	0.07
488.432	0.07
488.786	0.06
489.14	0.06
489.494	0.06
489.848	0.05
490.202	0.06
490.556	0.06
490.91	0.06
491.263	0.06
491.617	0.06
491.971	0.06
492.324	0.06
492.678	0.06
493.031	0.06
493.385	0.06
493.738	0.06
494.091	0.06
494.445	0.06
494.798	0.06
495.151	0.06
495.504	0.05
495.857	0.06
496.21	0.06
496.564	0.05
496.916	0.06
497.269	0.05
497.622	0.06
497.975	0.06
498.328	0.06
498.681	0.05
499.033	0.05
499.386	0.05
499.739	0.05
500.091	0.05
500.444	0.05
500.796	0.05
501.149	0.05
501.501	0.05
501.854	0.05
502.206	0.05
502.558	0.05
502.91	0.05
503.263	0.05
503.615	0.05
503.967	0.05
504.319	0.05
504.671	0.04
505.023	0.04
505.375	0.04
505.726	0.05
506.078	0.05
506.43	0.04
506.782	0.04
507.133	0.04
507.485	0.05
507.837	0.06
508.188	0.05
508.54	0.05
508.891	0.06
509.243	0.05
509.594	0.05
509.945	0.05
510.296	0.04
510.648	0.05
510.999	0.05
511.35	0.05
511.701	0.05
512.052	0.05
512.403	0.05
512.754	0.04
513.105	0.05
513.456	0.04
513.807	0.04
514.157	0.05
514.508	0.05
514.859	0.05
515.209	0.04
515.56	0.05
515.91	0.05
516.261	0.05
516.611	0.04
516.962	0.05
517.312	0.05
517.662	0.05
518.013	0.05
518.363	0.05
518.713	0.05
519.063	0.05
519.413	0.04
519.763	0.05
520.113	0.05
520.463	0.05
520.813	0.05
521.163	0.05
521.512	0.05
521.862	0.05
522.212	0.05
522.562	0.05
522.911	0.05
523.261	0.05
523.61	0.04
523.96	0.05
524.309	0.05
524.658	0.05
525.008	0.04
525.357	0.04
525.706	0.05
526.056	0.04
526.405	0.05
526.754	0.05
527.103	0.04
527.452	0.05
527.801	0.05
528.15	0.05
528.499	0.04
528.847	0.05
529.196	0.05
529.545	0.05
529.893	0.06
530.242	0.05
530.591	0.06
530.939	0.06
531.288	0.05
531.636	0.06
531.985	0.05
532.333	0.05
532.681	0.05
533.029	0.06
533.378	0.05
533.726	0.05
534.074	0.06
534.422	0.05
534.77	0.05
535.118	0.05
535.466	0.05
535.814	0.05
536.162	0.05
536.509	0.06
536.857	0.05
537.205	0.05
537.552	0.05
537.9	0.05
538.248	0.05
538.595	0.06
538.943	0.05
539.29	0.05
539.637	0.05
539.985	0.05
540.332	0.05
540.679	0.05
541.026	0.05
541.373	0.05
541.721	0.04
542.068	0.05
542.415	0.05
542.762	0.04
543.108	0.04
543.455	0.04
543.802	0.04
544.149	0.04
544.496	0.04
544.842	0.04
545.189	0.03
545.535	0.03
545.882	0.04
546.228	0.03
546.575	0.04
546.921	0.03
547.267	0.04
547.614	0.04
547.96	0.04
548.306	0.04
548.652	0.03
548.998	0.04
549.344	0.04
549.69	0.04
550.036	0.03
550.382	0.04
550.728	0.04
551.074	0.04
551.42	0.04
551.765	0.04
552.111	0.04
552.457	0.05
552.802	0.04
553.148	0.04
553.493	0.04
553.839	0.04
554.184	0.04
554.529	0.04
554.875	0.04
555.22	0.04
555.565	0.04
555.91	0.04
556.255	0.05
556.6	0.04
556.945	0.03
557.29	0.04
557.635	0.05
557.98	0.04
558.325	0.04
558.67	0.05
559.014	0.05
559.359	0.04
559.704	0.04
560.048	0.04
560.393	0.04
560.737	0.03
561.082	0.04
561.426	0.03
561.77	0.04
562.115	0.03
562.459	0.04
562.803	0.04
563.147	0.05
563.491	0.04
563.835	0.04
564.179	0.04
564.523	0.04
564.867	0.04
565.211	0.04
565.555	0.04
565.899	0.05
566.242	0.04
566.586	0.04
566.93	0.05
567.273	0.05
567.617	0.04
567.96	0.04
568.304	0.04
568.647	0.04
568.99	0.05
569.334	0.05
569.677	0.04
570.02	0.05
570.363	0.04
570.706	0.04
571.049	0.04
571.392	0.05
571.735	0.04
572.078	0.04
572.421	0.05
572.764	0.04
573.106	0.04
573.449	0.04
573.792	0.04
574.134	0.04
574.477	0.04
574.819	0.04
575.162	0.04
575.504	0.04
575.847	0.04
576.189	0.04
576.531	0.05
576.873	0.04
577.215	0.04
577.558	0.05
577.9	0.04
578.242	0.04
578.584	0.05
578.926	0.04
579.267	0.04
579.609	0.04
579.951	0.04
580.293	0.04
580.634	0.04
580.976	0.04
581.318	0.04
581.659	0.04
582.001	0.04
582.342	0.03
582.683	0.04
583.025	0.03
583.366	0.03
583.707	0.03
584.049	0.03
584.39	0.04
584.731	0.03
585.072	0.03
585.413	0.05
585.754	0.03
586.095	0.04
586.435	0.04
586.776	0.04
587.117	0.03
587.458	0.04
587.798	0.04
588.139	0.04
588.48	0.03
588.82	0.03
589.161	0.04
589.501	0.03
589.841	0.04
590.182	0.03
590.522	0.03
590.862	0.04
591.202	0.04
591.542	0.03
591.882	0.03
592.222	0.03
592.562	0.04
592.902	0.04
593.242	0.04
593.582	0.04
593.922	0.04
594.261	0.04
594.601	0.04
594.941	0.04
595.28	0.04
595.62	0.04
595.959	0.04
596.299	0.04
596.638	0.04
596.977	0.04
597.317	0.05
597.656	0.04
597.995	0.04
598.334	0.04
598.673	0.04
599.012	0.04
599.351	0.04
599.69	0.04
600.029	0.04
600.368	0.05
600.707	0.04
601.046	0.04
601.384	0.05
601.723	0.05
602.061	0.04
602.4	0.04
602.738	0.04
603.077	0.04
603.415	0.04
603.754	0.04
604.092	0.04
604.43	0.03
604.768	0.04
605.107	0.04
605.445	0.03
605.783	0.03
606.121	0.03
606.459	0.04
606.796	0.04
607.134	0.04
607.472	0.04
607.81	0.04
608.148	0.04
608.485	0.05
608.823	0.04
609.16	0.04
609.498	0.03
609.835	0.03
610.173	0.04
610.51	0.04
610.847	0.04
611.185	0.04
611.522	0.05
611.859	0.05
612.196	0.05
612.533	0.04
612.87	0.05
613.207	0.05
613.544	0.04
613.881	0.06
614.217	0.05
614.554	0.06
614.891	0.05
615.228	0.05
615.564	0.05
615.901	0.05
616.237	0.05
616.574	0.05
616.91	0.05
617.246	0.05
617.583	0.05
617.919	0.05
618.255	0.06
618.591	0.05
618.927	0.05
619.263	0.06
619.599	0.06
619.935	0.06
620.271	0.05
620.607	0.05
620.943	0.05
621.279	0.05
621.614	0.05
621.95	0.06
622.286	0.05
622.621	0.05
622.957	0.05
623.292	0.05
623.627	0.04
623.963	0.04
624.298	0.04
624.633	0.04
624.968	0.04
625.304	0.04
625.639	0.04
625.974	0.04
626.309	0.04
626.644	0.04
626.979	0.05
627.313	0.04
627.648	0.05
627.983	0.05
628.318	0.04
628.652	0.04
628.987	0.04
629.321	0.04
629.656	0.04
629.99	0.03
630.325	0.03
630.659	0.04
630.993	0.03
631.327	0.04
631.662	0.03
631.996	0.03
632.33	0.03
632.664	0.04
632.998	0.04
633.332	0.04
633.666	0.04
633.999	0.03
634.333	0.04
634.667	0.04
635.001	0.04
635.334	0.04
635.668	0.03
636.001	0.04
636.335	0.03
636.668	0.04
637.001	0.03
637.335	0.04
637.668	0.04
638.001	0.03
638.334	0.03
638.668	0.03
639.001	0.03
639.334	0.03
639.667	0.03
639.999	0.03
640.332	0.04
640.665	0.03
640.998	0.03
641.331	0.04
641.663	0.03
641.996	0.03
642.328	0.04
642.661	0.04
642.993	0.03
643.326	0.04
643.658	0.03
643.99	0.03
644.323	0.03
644.655	0.03
644.987	0.04
645.319	0.04
645.651	0.04
645.983	0.04
646.315	0.03
646.647	0.04
646.979	0.04
647.31	0.04
647.642	0.04
647.974	0.04
648.305	0.04
648.637	0.04
648.968	0.04
649.3	0.04
649.631	0.04
649.963	0.04
650.294	0.04
650.625	0.04
650.957	0.04
651.288	0.04
651.619	0.05
651.95	0.04
652.281	0.04
652.612	0.05
652.943	0.04
653.274	0.05
653.604	0.04
653.935	0.04
654.266	0.04
654.596	0.04
654.927	0.04
655.258	0.04
655.588	0.05
655.918	0.04
656.249	0.03
656.579	0.04
656.909	0.04
657.24	0.04
657.57	0.05
657.9	0.04
658.23	0.04
658.56	0.05
658.89	0.05
659.22	0.04
659.55	0.05
659.88	0.05
660.209	0.05
660.539	0.05
660.869	0.05
661.198	0.05
661.528	0.05
661.857	0.05
662.187	0.05
662.516	0.04
662.846	0.05
663.175	0.05
663.504	0.05
663.833	0.04
664.163	0.05
664.492	0.04
664.821	0.05
665.15	0.04
665.479	0.05
665.807	0.04
666.136	0.05
666.465	0.05
666.794	0.05
667.122	0.04
667.451	0.04
667.78	0.05
668.108	0.04
668.437	0.04
668.765	0.05
669.093	0.05
669.422	0.04
669.75	0.05
670.078	0.04
670.406	0.05
670.734	0.04
671.062	0.05
671.39	0.04
671.718	0.05
672.046	0.04
672.374	0.04
672.702	0.05
673.029	0.04
673.357	0.04
673.685	0.05
674.012	0.05
674.34	0.05
674.667	0.05
674.995	0.05
675.322	0.05
675.649	0.04
675.977	0.04
676.304	0.05
676.631	0.05
676.958	0.05
677.285	0.04
677.612	0.04
677.939	0.04
678.266	0.05
678.593	0.04
678.92	0.05
679.246	0.04
679.573	0.04
679.9	0.05
680.226	0.05
680.553	0.05
680.879	0.05
681.206	0.04
681.532	0.05
681.858	0.05
682.184	0.04
682.511	0.05
682.837	0.05
683.163	0.05
683.489	0.05
683.815	0.04
684.141	0.04
684.467	0.05
684.793	0.05
685.118	0.04
685.444	0.04
685.77	0.04
686.095	0.04
686.421	0.04
686.746	0.04
687.072	0.04
687.397	0.04
687.723	0.05
688.048	0.05
688.373	0.05
688.698	0.05
689.023	0.05
689.349	0.05
689.674	0.05
689.999	0.04
690.323	0.04
690.648	0.04
690.973	0.04
691.298	0.04
691.623	0.04
691.947	0.04
692.272	0.04
692.596	0.05
692.921	0.05
693.245	0.04
693.57	0.05
693.894	0.05
694.218	0.05
694.543	0.04
694.867	0.05
695.191	0.04
695.515	0.04
695.839	0.04
696.163	0.04
696.487	0.04
696.811	0.04
697.135	0.05
697.458	0.05
697.782	0.04
698.106	0.05
698.429	0.05
698.753	0.04
699.076	0.04
699.4	0.04
699.723	0.04
700.046	0.04
700.37	0.05
700.693	0.05
701.016	0.05
701.339	0.04
701.662	0.05
701.985	0.05
702.308	0.04
702.631	0.05
702.954	0.05
703.277	0.04
703.599	0.04
703.922	0.04
704.245	0.04
704.567	0.04
704.89	0.04
705.212	0.04
705.535	0.03
705.857	0.04
706.179	0.04
706.502	0.04
706.824	0.04
707.146	0.04
707.468	0.04
707.79	0.04
708.112	0.04
708.434	0.04
708.756	0.04
709.078	0.04
709.399	0.04
709.721	0.04
710.043	0.04
710.364	0.04
710.686	0.05
711.007	0.04
711.329	0.05
711.65	0.04
711.972	0.04
712.293	0.05
712.614	0.05
712.935	0.05
713.256	0.05
713.577	0.05
713.898	0.05
714.219	0.05
714.54	0.04
714.861	0.04
715.182	0.04
715.503	0.04
715.823	0.04
716.144	0.04
716.464	0.04
716.785	0.03
717.105	0.04
717.426	0.04
717.746	0.03
718.066	0.03
718.387	0.03
718.707	0.03
719.027	0.03
719.347	0.02
719.667	0.04
719.987	0.03
720.307	0.03
720.627	0.03
720.947	0.03
721.266	0.03
721.586	0.02
721.906	0.03
722.225	0.03
722.545	0.04
722.864	0.03
723.184	0.04
723.503	0.03
723.823	0.04
724.142	0.03
724.461	0.04
724.78	0.03
725.099	0.03
725.418	0.03
725.737	0.03
726.056	0.03
726.375	0.03
726.694	0.03
727.013	0.04
727.331	0.02
727.65	0.03
727.969	0.04
728.287	0.03
728.606	0.03
728.924	0.03
729.242	0.04
729.561	0.04
729.879	0.04
730.197	0.04
730.515	0.03
730.834	0.03
731.152	0.04
731.47	0.03
731.788	0.03
732.105	0.04
732.423	0.03
732.741	0.03
733.059	0.03
733.376	0.04
733.694	0.03
734.012	0.03
734.329	0.04
734.647	0.04
734.964	0.04
735.281	0.04
735.599	0.04
735.916	0.05
736.233	0.04
736.55	0.04
736.867	0.03
737.184	0.05
737.501	0.04
737.818	0.04
738.135	0.04
738.452	0.04
738.768	0.03
739.085	0.04
739.402	0.03
739.718	0.04
740.035	0.03
740.351	0.04
740.668	0.05
740.984	0.04
741.3	0.03
741.617	0.04
741.933	0.03
742.249	0.04
742.565	0.05
742.881	0.05
743.197	0.04
743.513	0.04
743.829	0.03
744.144	0.03
744.46	0.03
744.776	0.04
745.091	0.04
745.407	0.04
745.722	0.03
746.038	0.03
746.353	0.02
746.669	0.04
746.984	0.03
747.299	0.03
747.614	0.04
747.93	0.04
748.245	0.03
748.56	0.03
748.875	0.03
749.189	0.03
749.504	0.03
749.819	0.04
750.134	0.03
750.448	0.03
750.763	0.04
751.078	0.03
751.392	0.04
751.707	0.04
752.021	0.04
752.335	0.05
752.65	0.05
752.964	0.04
753.278	0.04
753.592	0.04
753.906	0.04
754.22	0.05
754.534	0.04
754.848	0.04
755.162	0.04
755.476	0.04
755.789	0.05
756.103	0.04
756.417	0.05
756.73	0.05
757.044	0.04
757.357	0.04
757.671	0.05
757.984	0.05
758.297	0.05
758.61	0.04
758.924	0.04
759.237	0.04
759.55	0.04
759.863	0.03
760.176	0.04
760.488	0.05
760.801	0.03
761.114	0.03
761.427	0.03
761.739	0.04
762.052	0.04
762.365	0.04
762.677	0.04
762.99	0.04
763.302	0.04
763.614	0.04
763.926	0.04
764.239	0.03
764.551	0.03
764.863	0.04
765.175	0.04
765.487	0.04
765.799	0.03
766.111	0.03
766.423	0.04
766.734	0.04
767.046	0.04
767.358	0.03
767.669	0.03
767.981	0.04
768.292	0.04
768.604	0.04
768.915	0.03
769.226	0.04
769.537	0.03
769.849	0.04
770.16	0.04
770.471	0.03
770.782	0.03
771.093	0.03
771.404	0.02
771.715	0.03
772.025	0.03
772.336	0.03
772.647	0.03
772.957	0.03
773.268	0.03
773.578	0.03
773.889	0.03
774.199	0.04
774.51	0.03
774.82	0.03
775.13	0.04
775.44	0.04
775.75	0.05
776.06	0.04
776.37	0.04
776.68	0.04
776.99	0.04
777.3	0.03
777.61	0.04
777.92	0.03
778.229	0.04
778.539	0.04
778.848	0.03
779.158	0.04
779.467	0.04
779.777	0.04
780.086	0.03
780.395	0.03
780.704	0.04
781.013	0.03
781.323	0.03
781.632	0.04
781.941	0.03
782.249	0.03
782.558	0.03
782.867	0.03
783.176	0.02
783.485	0.03
783.793	0.03
784.102	0.03
784.41	0.03
784.719	0.02
785.027	0.04
785.335	0.03
785.644	0.04
785.952	0.03
786.26	0.03
786.568	0.02
786.876	0.03
787.184	0.04
787.492	0.03
787.8	0.03
788.108	0.03
788.416	0.03
788.723	0.03
789.031	0.03
789.338	0.03
789.646	0.03
789.953	0.04
790.261	0.04
790.568	0.03
790.876	0.03
791.183	0.04
791.49	0.03
791.797	0.04
792.104	0.03
792.411	0.04
792.718	0.03
793.025	0.04
793.332	0.04
793.639	0.04
793.945	0.05
794.252	0.05
794.559	0.04
794.865	0.04
795.172	0.05
795.478	0.04
795.784	0.04
796.091	0.04
796.397	0.05
796.703	0.05
797.009	0.05
797.315	0.05
797.622	0.05
797.927	0.05
798.233	0.04
798.539	0.05
798.845	0.05
799.151	0.05
799.456	0.05
799.762	0.04
800.068	0.05
800.373	0.06
800.679	0.05
800.984	0.04
801.289	0.04
801.595	0.05
801.9	0.04
802.205	0.04
802.51	0.04
802.815	0.04
803.12	0.04
803.425	0.04
803.73	0.04
804.035	0.04
804.339	0.04
804.644	0.04
804.949	0.04
805.253	0.04
805.558	0.04
805.862	0.04
806.167	0.04
806.471	0.04
806.775	0.04
807.08	0.04
807.384	0.03
807.688	0.04
807.992	0.05
808.296	0.04
808.6	0.04
808.904	0.05
809.207	0.04
809.511	0.04
809.815	0.06
810.119	0.05
810.422	0.06
810.726	0.06
811.029	0.06
811.332	0.05
811.636	0.06
811.939	0.05
812.242	0.06
812.546	0.05
812.849	0.06
813.152	0.06
813.455	0.06
813.758	0.06
814.06	0.06
814.363	0.06
814.666	0.06
814.969	0.06
815.271	0.06
815.574	0.05
815.877	0.05
816.179	0.05
816.481	0.05
816.784	0.05
817.086	0.04
817.388	0.04
817.69	0.04
817.993	0.04
818.295	0.03
818.597	0.04
818.899	0.03
819.2	0.03
819.502	0.04
819.804	0.04
820.106	0.03
820.407	0.03
820.709	0.04
821.01	0.04
821.312	0.04
821.613	0.03
821.915	0.04
822.216	0.03
822.517	0.02
822.818	0.02
823.119	0.04
823.42	0.04
823.721	0.03
824.022	0.02
824.323	0.02
824.624	0.03
824.925	0.03
825.226	0.03
825.526	0.04
825.827	0.03
826.127	0.04
826.428	0.03
826.728	0.02
827.028	0.02
827.329	0.03
827.629	0.02
827.929	0.03
828.229	0.03
828.529	0.04
828.829	0.03
829.129	0.03
829.429	0.03
829.729	0.03
830.029	0.02
830.328	0.03
830.628	0.02
830.927	0.01
831.227	0.02
831.526	0.03
831.826	0.03
832.125	0.02
832.424	0.02
832.724	0.03
833.023	0.02
833.322	0.02
833.621	0.02
833.92	0.01
834.219	0.02
834.518	0.02
834.816	0.01
835.115	0.02
835.414	0.01
835.712	0.01
836.011	0.01
836.309	-0
836.608	0
836.906	0
837.205	0
837.503	0
837.801	-0
838.099	-0.01
838.397	-0.01
838.695	-0.01
838.993	-0
839.291	-0.02
839.589	-0.01
839.887	-0
840.184	-0.01
840.482	-0.02
840.78	-0
841.077	-0.01
841.375	-0.01
841.672	-0.01
841.969	-0.01
842.267	-0.02
842.564	-0.01
842.861	-0.01
843.158	-0.01
843.455	-0.03
843.752	-0.03
844.049	-0.03
844.346	-0.02
844.643	-0.04
844.94	-0.04
845.236	-0.02
845.533	-0.03
845.83	-0.02
846.126	-0.04
846.423	-0.04
846.719	-0.04
847.015	-0.04
847.312	-0.05
847.608	-0.05
847.904	-0.05
848.2	-0.05
848.496	-0.04
848.792	-0.04
849.088	-0.04
849.384	-0.05
849.68	-0.05
849.975	-0.04
850.271	-0.06
850.567	-0.06
850.862	-0.06
851.158	-0.05
851.453	-0.05
851.748	-0.07
852.044	-0.06
852.339	-0.05
852.634	-0.07
852.929	-0.06
853.224	-0.07
853.519	-0.07
853.814	-0.06
854.109	-0.07
854.404	-0.07
854.699	-0.07
854.994	-0.07
855.288	-0.06
855.583	-0.06
855.877	-0.07
856.172	-0.07
856.466	-0.08
856.76	-0.07
857.055	-0.08
857.349	-0.09
857.643	-0.09
857.937	-0.1
858.231	-0.1
858.525	-0.11
858.819	-0.1
859.113	-0.11
859.407	-0.11
859.701	-0.12
859.994	-0.11
860.288	-0.1
860.581	-0.11
860.875	-0.11
861.168	-0.11
861.462	-0.11
861.755	-0.1
862.048	-0.12
862.341	-0.11
862.634	-0.1
862.928	-0.11
863.221	-0.11
863.513	-0.12
863.806	-0.12
864.099	-0.12
864.392	-0.11
864.685	-0.11
864.977	-0.12
865.27	-0.12
865.562	-0.13
865.855	-0.12
866.147	-0.12
866.44	-0.11
866.732	-0.13
867.024	-0.12
867.316	-0.12
867.608	-0.13
867.9	-0.13
868.192	-0.14
868.484	-0.13
868.776	-0.13
869.068	-0.13
869.359	-0.13
869.651	-0.14
869.943	-0.14
870.234	-0.15
870.526	-0.15
870.817	-0.16
871.108	-0.14
871.4	-0.14
871.691	-0.15
871.982	-0.15
872.273	-0.17
872.564	-0.16
872.855	-0.17
873.146	-0.16
873.437	-0.16
873.728	-0.17
874.019	-0.16
874.309	-0.16
874.6	-0.16
874.89	-0.18
875.181	-0.17
875.471	-0.16
875.762	-0.17
876.052	-0.17
876.342	-0.16
876.632	-0.16
876.922	-0.17
877.213	-0.16
877.503	-0.18
877.792	-0.17
878.082	-0.17
878.372	-0.15
878.662	-0.18
878.952	-0.18
879.241	-0.17
879.531	-0.17
879.82	-0.17
880.11	-0.16
880.399	-0.17
880.688	-0.16
880.978	-0.16
881.267	-0.16
