Data from 12-12-AQDScycling_Absorbance__269__00269.txt Node

Date: Tue Dec 12 12:05:01 EST 2023
User: kyuminlee
Spectrometer: FLMS00943
Trigger mode: 0
Integration Time (sec): 1.000000E-1
Scans to average: 1
Electric dark correction enabled: true
Nonlinearity correction enabled: false
Boxcar width: 0
XAxis mode: Wavelengths
Number of Pixels in Spectrum: 2048
>>>>>Begin Spectral Data<<<<<
179.651	-0.24
180.037	-0.24
180.424	-0.24
180.81	-0.33
181.197	0.03
181.583	0
181.97	-0.55
182.356	-0
182.743	-1.26
183.129	0.22
183.515	1.56
183.901	-2.38
184.288	0.4
184.674	-0
185.06	-0.99
185.446	-0
185.832	-1.26
186.218	0.1
186.604	-0
186.99	0.17
187.376	0.2
187.762	0.03
188.148	0.47
188.534	-0.07
188.92	-0
189.305	0.06
189.691	0.27
190.077	0.24
190.463	0.06
190.848	0.34
191.234	0.06
191.619	0.01
192.005	0.18
192.391	0.07
192.776	0.1
193.161	0.04
193.547	0.24
193.932	0.12
194.318	0.1
194.703	0.28
195.088	0.09
195.473	0.09
195.859	0.15
196.244	0.17
196.629	0.1
197.014	0.12
197.399	0.14
197.784	0.25
198.169	0.23
198.554	0.28
198.939	0.07
199.324	0.12
199.709	0.16
200.094	0.16
200.478	0.07
200.863	0.16
201.248	0.35
201.633	0.23
202.017	0.15
202.402	0.32
202.787	0.22
203.171	0.16
203.556	0.14
203.94	0.12
204.325	0.33
204.709	0.25
205.093	0.11
205.478	0.17
205.862	0.06
206.246	0.11
206.631	0.05
207.015	0.15
207.399	0.12
207.783	0.18
208.167	0.07
208.551	0.15
208.935	0.19
209.319	0.23
209.703	0.29
210.087	0.24
210.471	0.24
210.855	0.23
211.239	0.27
211.623	0.36
212.007	0.22
212.39	0.36
212.774	0.08
213.158	0.13
213.541	0.19
213.925	0.53
214.309	0.31
214.692	0.25
215.076	0.33
215.459	0.12
215.842	0.17
216.226	0.18
216.609	0.27
216.993	0.12
217.376	0.49
217.759	0.14
218.142	0.33
218.525	0.68
218.909	0.21
219.292	0.35
219.675	0.44
220.058	0.39
220.441	0.62
220.824	0.49
221.207	0.51
221.59	0.46
221.973	0.45
222.355	0.55
222.738	0.58
223.121	0.56
223.504	0.58
223.886	0.73
224.269	0.82
224.652	0.59
225.034	0.7
225.417	0.68
225.799	0.81
226.182	0.86
226.564	0.98
226.947	0.85
227.329	0.9
227.711	1.15
228.094	0.98
228.476	0.95
228.858	0.8
229.24	0.89
229.623	0.92
230.005	0.87
230.387	0.86
230.769	0.78
231.151	0.98
231.533	0.97
231.915	0.94
232.297	1.01
232.679	0.95
233.061	1.07
233.442	0.99
233.824	1.05
234.206	1.19
234.588	1.14
234.969	0.96
235.351	1.16
235.733	1.06
236.114	1.23
236.496	1.11
236.877	1.15
237.259	1
237.64	1.07
238.022	1.12
238.403	1.03
238.784	0.99
239.165	1.01
239.547	1.23
239.928	1.06
240.309	1.02
240.69	1.02
241.071	1.13
241.452	1.13
241.834	1.13
242.215	1.15
242.595	1.13
242.976	1.25
243.357	1.09
243.738	1.06
244.119	1.27
244.5	1.11
244.881	1.22
245.261	1.12
245.642	1.23
246.023	1.14
246.403	1.21
246.784	1.25
247.164	1.37
247.545	1.3
247.925	1.41
248.306	1.21
248.686	1.29
249.067	1.14
249.447	1.38
249.827	1.51
250.207	1.48
250.588	1.19
250.968	1.38
251.348	1.24
251.728	1.44
252.108	1.42
252.488	1.43
252.868	1.29
253.248	1.35
253.628	1.48
254.008	1.5
254.388	1.28
254.768	1.42
255.147	1.56
255.527	1.51
255.907	1.45
256.287	1.32
256.666	1.57
257.046	1.47
257.425	1.49
257.805	1.4
258.184	1.5
258.564	1.41
258.943	1.39
259.323	1.56
259.702	1.52
260.081	1.45
260.461	1.43
260.84	1.35
261.219	1.62
261.598	1.45
261.977	1.45
262.356	1.45
262.736	1.57
263.115	1.77
263.494	1.46
263.873	1.53
264.251	1.68
264.63	1.39
265.009	1.47
265.388	1.37
265.767	1.37
266.145	1.42
266.524	1.52
266.903	1.42
267.281	1.38
267.66	1.58
268.039	1.54
268.417	1.44
268.796	1.38
269.174	1.5
269.552	1.45
269.931	1.41
270.309	1.4
270.687	1.66
271.066	1.75
271.444	1.52
271.822	1.55
272.2	1.43
272.578	1.41
272.956	1.45
273.334	1.35
273.712	1.55
274.09	1.45
274.468	1.39
274.846	1.32
275.224	1.44
275.602	1.5
275.98	1.51
276.357	1.47
276.735	1.5
277.113	1.51
277.49	1.4
277.868	1.32
278.246	1.5
278.623	1.33
279.001	1.34
279.378	1.31
279.756	1.6
280.133	1.57
280.51	1.47
280.888	1.51
281.265	1.44
281.642	1.64
282.019	1.49
282.396	1.5
282.773	1.53
283.151	1.52
283.528	1.56
283.905	1.34
284.282	1.52
284.659	1.56
285.035	1.32
285.412	1.41
285.789	1.43
286.166	1.45
286.543	1.46
286.919	1.53
287.296	1.42
287.673	1.7
288.049	1.51
288.426	1.57
288.802	1.55
289.179	1.5
289.555	1.62
289.932	1.37
290.308	1.35
290.684	1.53
291.061	1.37
291.437	1.7
291.813	1.35
292.189	1.31
292.565	1.27
292.942	1.27
293.318	1.45
293.694	1.41
294.07	1.49
294.446	1.52
294.822	1.79
295.197	1.39
295.573	1.58
295.949	1.53
296.325	1.65
296.701	1.44
297.076	1.56
297.452	1.59
297.828	1.37
298.203	1.54
298.579	1.43
298.954	1.7
299.33	1.51
299.705	1.49
300.081	1.45
300.456	1.52
300.831	1.46
301.206	1.47
301.582	1.58
301.957	1.48
302.332	1.59
302.707	1.46
303.082	1.44
303.457	1.54
303.832	1.56
304.207	1.44
304.582	1.38
304.957	1.48
305.332	1.47
305.707	1.48
306.082	1.49
306.456	1.56
306.831	1.36
307.206	1.47
307.58	1.45
307.955	1.47
308.33	1.43
308.704	1.42
309.079	1.51
309.453	1.63
309.828	1.42
310.202	1.45
310.576	1.45
310.951	1.49
311.325	1.46
311.699	1.48
312.073	1.34
312.447	1.42
312.821	1.41
313.196	1.55
313.57	1.36
313.944	1.46
314.317	1.44
314.691	1.4
315.065	1.5
315.439	1.52
315.813	1.47
316.187	1.3
316.56	1.53
316.934	1.49
317.308	1.46
317.681	1.48
318.055	1.41
318.428	1.51
318.802	1.52
319.175	1.61
319.549	1.47
319.922	1.27
320.295	1.47
320.669	1.61
321.042	1.51
321.415	1.92
321.788	1.45
322.162	1.42
322.535	1.59
322.908	1.52
323.281	1.49
323.654	1.63
324.027	1.38
324.4	1.68
324.773	1.62
325.145	1.48
325.518	1.46
325.891	1.49
326.264	1.52
326.636	1.49
327.009	1.51
327.382	1.49
327.754	1.72
328.127	1.44
328.499	1.45
328.872	1.66
329.244	1.45
329.616	1.44
329.989	1.53
330.361	1.61
330.733	1.44
331.106	1.46
331.478	1.47
331.85	1.51
332.222	1.48
332.594	1.49
332.966	1.61
333.338	1.65
333.71	1.42
334.082	1.66
334.454	1.49
334.826	1.5
335.197	1.61
335.569	1.52
335.941	1.41
336.312	1.51
336.684	1.5
337.056	1.55
337.427	1.64
337.799	1.63
338.17	1.62
338.542	1.4
338.913	1.58
339.284	1.53
339.656	1.42
340.027	1.68
340.398	1.48
340.769	1.48
341.141	1.76
341.512	1.43
341.883	1.62
342.254	1.5
342.625	1.6
342.996	1.49
343.367	1.56
343.738	1.52
344.108	1.48
344.479	1.63
344.85	1.52
345.221	1.65
345.591	1.42
345.962	1.46
346.333	1.54
346.703	1.27
347.074	1.37
347.444	1.38
347.815	1.46
348.185	1.42
348.556	1.33
348.926	1.36
349.296	1.42
349.666	1.43
350.037	1.29
350.407	1.26
350.777	1.5
351.147	1.43
351.517	1.32
351.887	1.28
352.257	1.42
352.627	1.28
352.997	1.29
353.367	1.35
353.737	1.38
354.106	1.4
354.476	1.39
354.846	1.37
355.216	1.31
355.585	1.41
355.955	1.31
356.324	1.35
356.694	1.33
357.063	1.38
357.433	1.33
357.802	1.34
358.171	1.39
358.541	1.27
358.91	1.34
359.279	1.32
359.648	1.27
360.017	1.38
360.387	1.3
360.756	1.25
361.125	1.29
361.494	1.31
361.863	1.27
362.231	1.29
362.6	1.27
362.969	1.26
363.338	1.25
363.707	1.23
364.075	1.31
364.444	1.15
364.813	1.23
365.181	1.25
365.55	1.18
365.918	1.28
366.287	1.19
366.655	1.22
367.024	1.27
367.392	1.32
367.76	1.23
368.128	1.22
368.497	1.19
368.865	1.21
369.233	1.16
369.601	1.2
369.969	1.2
370.337	1.26
370.705	1.17
371.073	1.19
371.441	1.18
371.809	1.19
372.177	1.17
372.544	1.2
372.912	1.2
373.28	1.2
373.647	1.26
374.015	1.24
374.383	1.32
374.75	1.37
375.118	1.24
375.485	1.28
375.853	1.24
376.22	1.31
376.587	1.21
376.955	1.24
377.322	1.24
377.689	1.27
378.056	1.24
378.423	1.19
378.79	1.27
379.157	1.26
379.524	1.22
379.891	1.18
380.258	1.25
380.625	1.32
380.992	1.27
381.359	1.31
381.726	1.42
382.092	1.27
382.459	1.25
382.826	1.31
383.192	1.33
383.559	1.27
383.925	1.31
384.292	1.35
384.658	1.45
385.025	1.28
385.391	1.37
385.757	1.42
386.123	1.38
386.49	1.36
386.856	1.42
387.222	1.34
387.588	1.38
387.954	1.41
388.32	1.38
388.686	1.42
389.052	1.42
389.418	1.49
389.784	1.35
390.15	1.41
390.515	1.3
390.881	1.55
391.247	1.33
391.613	1.46
391.978	1.41
392.344	1.46
392.709	1.43
393.075	1.46
393.44	1.52
393.806	1.4
394.171	1.29
394.536	1.3
394.902	1.45
395.267	1.34
395.632	1.3
395.997	1.38
396.362	1.28
396.727	1.36
397.092	1.31
397.457	1.35
397.822	1.37
398.187	1.41
398.552	1.34
398.917	1.44
399.282	1.25
399.646	1.4
400.011	1.35
400.376	1.23
400.74	1.3
401.105	1.27
401.47	1.33
401.834	1.36
402.199	1.26
402.563	1.32
402.927	1.29
403.292	1.3
403.656	1.32
404.02	1.31
404.384	1.28
404.749	1.26
405.113	1.27
405.477	1.23
405.841	1.22
406.205	1.21
406.569	1.16
406.933	1.14
407.296	1.16
407.66	1.23
408.024	1.17
408.388	1.18
408.752	1.15
409.115	1.2
409.479	1.11
409.842	1.08
410.206	1.08
410.569	1.13
410.933	1.14
411.296	1.09
411.66	1.13
412.023	1.07
412.386	1.06
412.749	1.08
413.113	1.07
413.476	1.05
413.839	1.09
414.202	1.08
414.565	1.05
414.928	1.06
415.291	1.02
415.654	1.04
416.017	1.03
416.38	0.99
416.742	1.02
417.105	0.96
417.468	1.02
417.83	1.01
418.193	1.02
418.556	1
418.918	0.97
419.281	0.94
419.643	0.98
420.005	0.98
420.368	1.03
420.73	0.99
421.092	1
421.455	1
421.817	0.94
422.179	0.97
422.541	0.96
422.903	1.02
423.265	0.98
423.627	0.96
423.989	0.93
424.351	0.95
424.713	0.94
425.075	0.94
425.436	0.96
425.798	0.91
426.16	0.94
426.521	0.93
426.883	0.96
427.245	0.93
427.606	0.95
427.967	0.9
428.329	0.91
428.69	0.95
429.052	0.91
429.413	0.96
429.774	0.93
430.135	0.91
430.497	0.89
430.858	0.9
431.219	0.91
431.58	0.91
431.941	0.9
432.302	0.87
432.663	0.89
433.024	0.91
433.384	0.9
433.745	0.87
434.106	0.9
434.467	0.91
434.827	0.86
435.188	0.9
435.548	0.89
435.909	0.85
436.269	0.89
436.63	0.86
436.99	0.85
437.351	0.85
437.711	0.86
438.071	0.82
438.431	0.82
438.792	0.85
439.152	0.83
439.512	0.82
439.872	0.83
440.232	0.84
440.592	0.81
440.952	0.83
441.312	0.8
441.671	0.79
442.031	0.81
442.391	0.81
442.751	0.8
443.11	0.8
443.47	0.79
443.83	0.77
444.189	0.76
444.549	0.78
444.908	0.77
445.267	0.74
445.627	0.76
445.986	0.76
446.345	0.73
446.705	0.77
447.064	0.76
447.423	0.73
447.782	0.73
448.141	0.73
448.5	0.71
448.859	0.71
449.218	0.7
449.577	0.73
449.936	0.72
450.295	0.69
450.653	0.68
451.012	0.69
451.371	0.7
451.729	0.69
452.088	0.69
452.447	0.69
452.805	0.69
453.163	0.68
453.522	0.67
453.88	0.66
454.239	0.66
454.597	0.64
454.955	0.64
455.313	0.63
455.671	0.64
456.029	0.62
456.388	0.61
456.746	0.62
457.104	0.6
457.461	0.6
457.819	0.6
458.177	0.58
458.535	0.57
458.893	0.58
459.25	0.57
459.608	0.57
459.966	0.54
460.323	0.55
460.681	0.54
461.038	0.53
461.396	0.53
461.753	0.54
462.111	0.53
462.468	0.51
462.825	0.51
463.182	0.51
463.54	0.49
463.897	0.5
464.254	0.49
464.611	0.49
464.968	0.48
465.325	0.48
465.682	0.47
466.039	0.47
466.395	0.46
466.752	0.45
467.109	0.45
467.466	0.44
467.822	0.45
468.179	0.44
468.535	0.43
468.892	0.42
469.248	0.42
469.605	0.41
469.961	0.41
470.318	0.42
470.674	0.42
471.03	0.4
471.386	0.41
471.743	0.39
472.099	0.4
472.455	0.38
472.811	0.38
473.167	0.38
473.523	0.36
473.879	0.35
474.235	0.35
474.59	0.35
474.946	0.34
475.302	0.34
475.657	0.34
476.013	0.34
476.369	0.32
476.724	0.33
477.08	0.33
477.435	0.31
477.791	0.31
478.146	0.32
478.501	0.3
478.857	0.31
479.212	0.31
479.567	0.3
479.922	0.29
480.277	0.29
480.632	0.28
480.987	0.29
481.342	0.28
481.697	0.28
482.052	0.27
482.407	0.27
482.762	0.26
483.116	0.26
483.471	0.26
483.826	0.25
484.18	0.25
484.535	0.25
484.89	0.24
485.244	0.25
485.598	0.24
485.953	0.24
486.307	0.24
486.661	0.23
487.016	0.23
487.37	0.23
487.724	0.23
488.078	0.23
488.432	0.23
488.786	0.22
489.14	0.22
489.494	0.22
489.848	0.22
490.202	0.22
490.556	0.21
490.91	0.21
491.263	0.21
491.617	0.21
491.971	0.21
492.324	0.2
492.678	0.2
493.031	0.2
493.385	0.2
493.738	0.2
494.091	0.2
494.445	0.2
494.798	0.19
495.151	0.19
495.504	0.19
495.857	0.18
496.21	0.19
496.564	0.19
496.916	0.19
497.269	0.18
497.622	0.18
497.975	0.19
498.328	0.19
498.681	0.18
499.033	0.18
499.386	0.18
499.739	0.18
500.091	0.18
500.444	0.18
500.796	0.18
501.149	0.17
501.501	0.17
501.854	0.17
502.206	0.17
502.558	0.17
502.91	0.17
503.263	0.17
503.615	0.17
503.967	0.16
504.319	0.17
504.671	0.16
505.023	0.16
505.375	0.17
505.726	0.16
506.078	0.16
506.43	0.15
506.782	0.16
507.133	0.15
507.485	0.16
507.837	0.16
508.188	0.16
508.54	0.16
508.891	0.17
509.243	0.16
509.594	0.16
509.945	0.15
510.296	0.16
510.648	0.16
510.999	0.15
511.35	0.16
511.701	0.15
512.052	0.16
512.403	0.16
512.754	0.16
513.105	0.16
513.456	0.15
513.807	0.15
514.157	0.16
514.508	0.15
514.859	0.15
515.209	0.15
515.56	0.16
515.91	0.15
516.261	0.15
516.611	0.15
516.962	0.15
517.312	0.15
517.662	0.15
518.013	0.15
518.363	0.15
518.713	0.15
519.063	0.15
519.413	0.15
519.763	0.15
520.113	0.15
520.463	0.16
520.813	0.16
521.163	0.15
521.512	0.15
521.862	0.15
522.212	0.15
522.562	0.15
522.911	0.15
523.261	0.15
523.61	0.15
523.96	0.15
524.309	0.15
524.658	0.16
525.008	0.15
525.357	0.15
525.706	0.16
526.056	0.15
526.405	0.15
526.754	0.15
527.103	0.14
527.452	0.15
527.801	0.16
528.15	0.15
528.499	0.15
528.847	0.15
529.196	0.16
529.545	0.16
529.893	0.16
530.242	0.16
530.591	0.16
530.939	0.17
531.288	0.16
531.636	0.16
531.985	0.16
532.333	0.16
532.681	0.16
533.029	0.16
533.378	0.17
533.726	0.17
534.074	0.17
534.422	0.16
534.77	0.16
535.118	0.16
535.466	0.16
535.814	0.16
536.162	0.16
536.509	0.16
536.857	0.17
537.205	0.17
537.552	0.16
537.9	0.17
538.248	0.15
538.595	0.16
538.943	0.17
539.29	0.16
539.637	0.16
539.985	0.16
540.332	0.16
540.679	0.16
541.026	0.15
541.373	0.16
541.721	0.15
542.068	0.16
542.415	0.16
542.762	0.15
543.108	0.15
543.455	0.15
543.802	0.15
544.149	0.15
544.496	0.16
544.842	0.14
545.189	0.14
545.535	0.15
545.882	0.15
546.228	0.15
546.575	0.15
546.921	0.15
547.267	0.15
547.614	0.15
547.96	0.15
548.306	0.15
548.652	0.14
548.998	0.16
549.344	0.15
549.69	0.16
550.036	0.16
550.382	0.16
550.728	0.15
551.074	0.16
551.42	0.16
551.765	0.16
552.111	0.16
552.457	0.17
552.802	0.15
553.148	0.16
553.493	0.16
553.839	0.16
554.184	0.16
554.529	0.16
554.875	0.16
555.22	0.16
555.565	0.15
555.91	0.16
556.255	0.16
556.6	0.17
556.945	0.15
557.29	0.16
557.635	0.17
557.98	0.16
558.325	0.16
558.67	0.16
559.014	0.16
559.359	0.16
559.704	0.17
560.048	0.15
560.393	0.16
560.737	0.15
561.082	0.16
561.426	0.15
561.77	0.16
562.115	0.16
562.459	0.16
562.803	0.15
563.147	0.15
563.491	0.16
563.835	0.16
564.179	0.16
564.523	0.15
564.867	0.15
565.211	0.15
565.555	0.16
565.899	0.16
566.242	0.16
566.586	0.16
566.93	0.16
567.273	0.17
567.617	0.17
567.96	0.16
568.304	0.16
568.647	0.17
568.99	0.17
569.334	0.16
569.677	0.16
570.02	0.17
570.363	0.17
570.706	0.16
571.049	0.16
571.392	0.17
571.735	0.16
572.078	0.16
572.421	0.17
572.764	0.17
573.106	0.16
573.449	0.15
573.792	0.16
574.134	0.16
574.477	0.16
574.819	0.16
575.162	0.16
575.504	0.16
575.847	0.16
576.189	0.17
576.531	0.16
576.873	0.16
577.215	0.16
577.558	0.16
577.9	0.16
578.242	0.16
578.584	0.16
578.926	0.16
579.267	0.16
579.609	0.16
579.951	0.16
580.293	0.16
580.634	0.16
580.976	0.16
581.318	0.16
581.659	0.16
582.001	0.16
582.342	0.15
582.683	0.16
583.025	0.15
583.366	0.15
583.707	0.16
584.049	0.16
584.39	0.15
584.731	0.16
585.072	0.15
585.413	0.16
585.754	0.16
586.095	0.17
586.435	0.17
586.776	0.17
587.117	0.16
587.458	0.16
587.798	0.16
588.139	0.16
588.48	0.15
588.82	0.16
589.161	0.16
589.501	0.16
589.841	0.16
590.182	0.16
590.522	0.16
590.862	0.16
591.202	0.15
591.542	0.16
591.882	0.16
592.222	0.16
592.562	0.15
592.902	0.15
593.242	0.15
593.582	0.16
593.922	0.16
594.261	0.15
594.601	0.16
594.941	0.16
595.28	0.16
595.62	0.16
595.959	0.15
596.299	0.15
596.638	0.15
596.977	0.16
597.317	0.17
597.656	0.16
597.995	0.16
598.334	0.16
598.673	0.15
599.012	0.15
599.351	0.15
599.69	0.15
600.029	0.16
600.368	0.15
600.707	0.15
601.046	0.15
601.384	0.16
601.723	0.16
602.061	0.16
602.4	0.16
602.738	0.16
603.077	0.15
603.415	0.15
603.754	0.16
604.092	0.16
604.43	0.16
604.768	0.16
605.107	0.16
605.445	0.15
605.783	0.16
606.121	0.15
606.459	0.16
606.796	0.15
607.134	0.16
607.472	0.15
607.81	0.16
608.148	0.14
608.485	0.16
608.823	0.15
609.16	0.15
609.498	0.16
609.835	0.15
610.173	0.15
610.51	0.16
610.847	0.16
611.185	0.16
611.522	0.16
611.859	0.17
612.196	0.16
612.533	0.16
612.87	0.17
613.207	0.16
613.544	0.16
613.881	0.17
614.217	0.16
614.554	0.15
614.891	0.16
615.228	0.15
615.564	0.16
615.901	0.16
616.237	0.16
616.574	0.15
616.91	0.17
617.246	0.16
617.583	0.16
617.919	0.17
618.255	0.16
618.591	0.17
618.927	0.17
619.263	0.17
619.599	0.17
619.935	0.16
620.271	0.17
620.607	0.16
620.943	0.16
621.279	0.16
621.614	0.16
621.95	0.16
622.286	0.16
622.621	0.15
622.957	0.15
623.292	0.15
623.627	0.15
623.963	0.15
624.298	0.15
624.633	0.15
624.968	0.14
625.304	0.15
625.639	0.15
625.974	0.15
626.309	0.15
626.644	0.15
626.979	0.15
627.313	0.14
627.648	0.14
627.983	0.15
628.318	0.14
628.652	0.13
628.987	0.15
629.321	0.14
629.656	0.14
629.99	0.14
630.325	0.15
630.659	0.15
630.993	0.14
631.327	0.14
631.662	0.14
631.996	0.14
632.33	0.14
632.664	0.15
632.998	0.14
633.332	0.14
633.666	0.14
633.999	0.15
634.333	0.14
634.667	0.14
635.001	0.13
635.334	0.14
635.668	0.14
636.001	0.14
636.335	0.14
636.668	0.14
637.001	0.13
637.335	0.14
637.668	0.14
638.001	0.13
638.334	0.14
638.668	0.13
639.001	0.13
639.334	0.13
639.667	0.13
639.999	0.12
640.332	0.13
640.665	0.13
640.998	0.12
641.331	0.13
641.663	0.13
641.996	0.13
642.328	0.13
642.661	0.13
642.993	0.12
643.326	0.13
643.658	0.12
643.99	0.13
644.323	0.12
644.655	0.13
644.987	0.12
645.319	0.13
645.651	0.12
645.983	0.13
646.315	0.13
646.647	0.13
646.979	0.13
647.31	0.14
647.642	0.13
647.974	0.13
648.305	0.14
648.637	0.13
648.968	0.14
649.3	0.13
649.631	0.14
649.963	0.14
650.294	0.14
650.625	0.14
650.957	0.14
651.288	0.14
651.619	0.14
651.95	0.14
652.281	0.14
652.612	0.14
652.943	0.14
653.274	0.14
653.604	0.14
653.935	0.14
654.266	0.14
654.596	0.13
654.927	0.13
655.258	0.14
655.588	0.14
655.918	0.13
656.249	0.12
656.579	0.13
656.909	0.14
657.24	0.13
657.57	0.14
657.9	0.13
658.23	0.13
658.56	0.14
658.89	0.14
659.22	0.13
659.55	0.13
659.88	0.14
660.209	0.14
660.539	0.15
660.869	0.14
661.198	0.14
661.528	0.14
661.857	0.13
662.187	0.14
662.516	0.14
662.846	0.14
663.175	0.14
663.504	0.13
663.833	0.13
664.163	0.13
664.492	0.13
664.821	0.13
665.15	0.13
665.479	0.13
665.807	0.13
666.136	0.13
666.465	0.12
666.794	0.12
667.122	0.12
667.451	0.12
667.78	0.13
668.108	0.12
668.437	0.12
668.765	0.13
669.093	0.12
669.422	0.12
669.75	0.12
670.078	0.12
670.406	0.13
670.734	0.12
671.062	0.12
671.39	0.13
671.718	0.13
672.046	0.13
672.374	0.12
672.702	0.12
673.029	0.12
673.357	0.12
673.685	0.13
674.012	0.13
674.34	0.12
674.667	0.13
674.995	0.13
675.322	0.13
675.649	0.12
675.977	0.12
676.304	0.12
676.631	0.12
676.958	0.12
677.285	0.12
677.612	0.11
677.939	0.12
678.266	0.12
678.593	0.12
678.92	0.12
679.246	0.11
679.573	0.11
679.9	0.12
680.226	0.11
680.553	0.11
680.879	0.12
681.206	0.12
681.532	0.11
681.858	0.11
682.184	0.1
682.511	0.11
682.837	0.11
683.163	0.12
683.489	0.11
683.815	0.11
684.141	0.11
684.467	0.11
684.793	0.11
685.118	0.1
685.444	0.11
685.77	0.11
686.095	0.11
686.421	0.11
686.746	0.11
687.072	0.11
687.397	0.11
687.723	0.12
688.048	0.12
688.373	0.12
688.698	0.12
689.023	0.11
689.349	0.11
689.674	0.11
689.999	0.1
690.323	0.11
690.648	0.1
690.973	0.11
691.298	0.11
691.623	0.1
691.947	0.11
692.272	0.1
692.596	0.1
692.921	0.11
693.245	0.1
693.57	0.1
693.894	0.1
694.218	0.1
694.543	0.1
694.867	0.1
695.191	0.09
695.515	0.11
695.839	0.1
696.163	0.1
696.487	0.11
696.811	0.1
697.135	0.1
697.458	0.11
697.782	0.1
698.106	0.1
698.429	0.1
698.753	0.1
699.076	0.1
699.4	0.09
699.723	0.09
700.046	0.09
700.37	0.1
700.693	0.1
701.016	0.1
701.339	0.1
701.662	0.11
701.985	0.1
702.308	0.1
702.631	0.09
702.954	0.1
703.277	0.09
703.599	0.1
703.922	0.09
704.245	0.09
704.567	0.09
704.89	0.09
705.212	0.1
705.535	0.08
705.857	0.09
706.179	0.08
706.502	0.09
706.824	0.09
707.146	0.09
707.468	0.09
707.79	0.09
708.112	0.09
708.434	0.09
708.756	0.09
709.078	0.1
709.399	0.08
709.721	0.09
710.043	0.1
710.364	0.09
710.686	0.09
711.007	0.09
711.329	0.1
711.65	0.09
711.972	0.09
712.293	0.1
712.614	0.1
712.935	0.09
713.256	0.1
713.577	0.1
713.898	0.09
714.219	0.09
714.54	0.09
714.861	0.08
715.182	0.08
715.503	0.08
715.823	0.08
716.144	0.08
716.464	0.08
716.785	0.08
717.105	0.08
717.426	0.08
717.746	0.07
718.066	0.07
718.387	0.07
718.707	0.07
719.027	0.08
719.347	0.07
719.667	0.08
719.987	0.07
720.307	0.07
720.627	0.07
720.947	0.07
721.266	0.07
721.586	0.06
721.906	0.06
722.225	0.06
722.545	0.07
722.864	0.06
723.184	0.07
723.503	0.06
723.823	0.07
724.142	0.06
724.461	0.06
724.78	0.06
725.099	0.07
725.418	0.07
725.737	0.07
726.056	0.07
726.375	0.07
726.694	0.07
727.013	0.07
727.331	0.07
727.65	0.07
727.969	0.07
728.287	0.07
728.606	0.07
728.924	0.06
729.242	0.06
729.561	0.07
729.879	0.07
730.197	0.07
730.515	0.07
730.834	0.07
731.152	0.06
731.47	0.07
731.788	0.07
732.105	0.06
732.423	0.06
732.741	0.06
733.059	0.07
733.376	0.07
733.694	0.05
734.012	0.06
734.329	0.06
734.647	0.07
734.964	0.07
735.281	0.07
735.599	0.06
735.916	0.07
736.233	0.06
736.55	0.06
736.867	0.06
737.184	0.07
737.501	0.06
737.818	0.07
738.135	0.08
738.452	0.07
738.768	0.06
739.085	0.07
739.402	0.06
739.718	0.07
740.035	0.07
740.351	0.07
740.668	0.07
740.984	0.06
741.3	0.06
741.617	0.07
741.933	0.06
742.249	0.07
742.565	0.06
742.881	0.07
743.197	0.07
743.513	0.06
743.829	0.06
744.144	0.06
744.46	0.06
744.776	0.08
745.091	0.06
745.407	0.06
745.722	0.06
746.038	0.07
746.353	0.06
746.669	0.07
746.984	0.06
747.299	0.06
747.614	0.06
747.93	0.07
748.245	0.06
748.56	0.06
748.875	0.06
749.189	0.07
749.504	0.07
749.819	0.07
750.134	0.07
750.448	0.07
750.763	0.06
751.078	0.06
751.392	0.07
751.707	0.07
752.021	0.07
752.335	0.07
752.65	0.08
752.964	0.06
753.278	0.05
753.592	0.07
753.906	0.05
754.22	0.07
754.534	0.06
754.848	0.06
755.162	0.06
755.476	0.07
755.789	0.07
756.103	0.06
756.417	0.07
756.73	0.07
757.044	0.07
757.357	0.06
757.671	0.07
757.984	0.06
758.297	0.07
758.61	0.07
758.924	0.07
759.237	0.07
759.55	0.06
759.863	0.07
760.176	0.07
760.488	0.07
760.801	0.06
761.114	0.06
761.427	0.07
761.739	0.07
762.052	0.06
762.365	0.06
762.677	0.06
762.99	0.05
763.302	0.06
763.614	0.06
763.926	0.06
764.239	0.07
764.551	0.06
764.863	0.06
765.175	0.07
765.487	0.06
765.799	0.05
766.111	0.05
766.423	0.06
766.734	0.05
767.046	0.05
767.358	0.05
767.669	0.06
767.981	0.06
768.292	0.06
768.604	0.06
768.915	0.06
769.226	0.05
769.537	0.05
769.849	0.06
770.16	0.06
770.471	0.05
770.782	0.05
771.093	0.06
771.404	0.04
771.715	0.04
772.025	0.05
772.336	0.05
772.647	0.04
772.957	0.05
773.268	0.05
773.578	0.04
773.889	0.05
774.199	0.05
774.51	0.05
774.82	0.05
775.13	0.05
775.44	0.05
775.75	0.05
776.06	0.05
776.37	0.05
776.68	0.05
776.99	0.05
777.3	0.06
777.61	0.06
777.92	0.05
778.229	0.04
778.539	0.05
778.848	0.06
779.158	0.06
779.467	0.06
779.777	0.05
780.086	0.06
780.395	0.05
780.704	0.04
781.013	0.04
781.323	0.05
781.632	0.05
781.941	0.05
782.249	0.05
782.558	0.05
782.867	0.05
783.176	0.05
783.485	0.04
783.793	0.05
784.102	0.05
784.41	0.05
784.719	0.05
785.027	0.04
785.335	0.04
785.644	0.04
785.952	0.05
786.26	0.05
786.568	0.04
786.876	0.04
787.184	0.05
787.492	0.05
787.8	0.04
788.108	0.04
788.416	0.04
788.723	0.05
789.031	0.04
789.338	0.04
789.646	0.04
789.953	0.05
790.261	0.04
790.568	0.05
790.876	0.04
791.183	0.05
791.49	0.04
791.797	0.04
792.104	0.04
792.411	0.05
792.718	0.04
793.025	0.05
793.332	0.05
793.639	0.05
793.945	0.06
794.252	0.05
794.559	0.05
794.865	0.05
795.172	0.05
795.478	0.05
795.784	0.06
796.091	0.07
796.397	0.06
796.703	0.06
797.009	0.06
797.315	0.05
797.622	0.05
797.927	0.05
798.233	0.05
798.539	0.06
798.845	0.06
799.151	0.05
799.456	0.07
799.762	0.05
800.068	0.04
800.373	0.06
800.679	0.05
800.984	0.04
801.289	0.04
801.595	0.05
801.9	0.05
802.205	0.04
802.51	0.05
802.815	0.04
803.12	0.05
803.425	0.05
803.73	0.05
804.035	0.05
804.339	0.04
804.644	0.05
804.949	0.05
805.253	0.05
805.558	0.05
805.862	0.04
806.167	0.05
806.471	0.04
806.775	0.05
807.08	0.06
807.384	0.05
807.688	0.05
807.992	0.05
808.296	0.05
808.6	0.05
808.904	0.05
809.207	0.05
809.511	0.06
809.815	0.06
810.119	0.05
810.422	0.06
810.726	0.06
811.029	0.06
811.332	0.05
811.636	0.06
811.939	0.05
812.242	0.06
812.546	0.05
812.849	0.05
813.152	0.05
813.455	0.05
813.758	0.05
814.06	0.06
814.363	0.05
814.666	0.06
814.969	0.05
815.271	0.05
815.574	0.05
815.877	0.05
816.179	0.05
816.481	0.04
816.784	0.04
817.086	0.04
817.388	0.04
817.69	0.03
817.993	0.04
818.295	0.03
818.597	0.04
818.899	0.03
819.2	0.03
819.502	0.03
819.804	0.04
820.106	0.03
820.407	0.02
820.709	0.04
821.01	0.04
821.312	0.05
821.613	0.03
821.915	0.03
822.216	0.03
822.517	0.03
822.818	0.04
823.119	0.03
823.42	0.04
823.721	0.02
824.022	0.03
824.323	0.04
824.624	0.03
824.925	0.03
825.226	0.05
825.526	0.04
825.827	0.04
826.127	0.04
826.428	0.04
826.728	0.04
827.028	0.04
827.329	0.04
827.629	0.03
827.929	0.04
828.229	0.04
828.529	0.04
828.829	0.04
829.129	0.03
829.429	0.03
829.729	0.03
830.029	0.02
830.328	0.03
830.628	0.02
830.927	0.02
831.227	0.02
831.526	0.03
831.826	0.03
832.125	0.03
832.424	0.02
832.724	0.02
833.023	0.02
833.322	0.03
833.621	0.03
833.92	0.03
834.219	0.02
834.518	0.02
834.816	0.02
835.115	0.02
835.414	0.02
835.712	0.02
836.011	0.02
836.309	0.02
836.608	0.01
836.906	0.01
837.205	0.01
837.503	0.02
837.801	0.02
838.099	0.01
838.397	0
838.695	0
838.993	0.01
839.291	0
839.589	0
839.887	0
840.184	0
840.482	-0.01
840.78	-0.01
841.077	-0.02
841.375	-0.01
841.672	-0.01
841.969	-0.02
842.267	-0.02
842.564	-0.01
842.861	-0.01
843.158	-0.02
843.455	-0.03
843.752	-0.04
844.049	-0.02
844.346	-0.03
844.643	-0.04
844.94	-0.04
845.236	-0.02
845.533	-0.03
845.83	-0.04
846.126	-0.04
846.423	-0.04
846.719	-0.05
847.015	-0.05
847.312	-0.05
847.608	-0.06
847.904	-0.06
848.2	-0.06
848.496	-0.06
848.792	-0.06
849.088	-0.05
849.384	-0.06
849.68	-0.06
849.975	-0.06
850.271	-0.06
850.567	-0.07
850.862	-0.06
851.158	-0.07
851.453	-0.07
851.748	-0.07
852.044	-0.06
852.339	-0.07
852.634	-0.08
852.929	-0.07
853.224	-0.07
853.519	-0.08
853.814	-0.07
854.109	-0.08
854.404	-0.07
854.699	-0.08
854.994	-0.07
855.288	-0.07
855.583	-0.07
855.877	-0.07
856.172	-0.07
856.466	-0.08
856.76	-0.08
857.055	-0.08
857.349	-0.09
857.643	-0.09
857.937	-0.1
858.231	-0.09
858.525	-0.09
858.819	-0.09
859.113	-0.1
859.407	-0.1
859.701	-0.11
859.994	-0.12
860.288	-0.09
860.581	-0.11
860.875	-0.11
861.168	-0.12
861.462	-0.11
861.755	-0.1
862.048	-0.12
862.341	-0.12
862.634	-0.12
862.928	-0.11
863.221	-0.11
863.513	-0.12
863.806	-0.12
864.099	-0.12
864.392	-0.12
864.685	-0.11
864.977	-0.12
865.27	-0.12
865.562	-0.12
865.855	-0.12
866.147	-0.13
866.44	-0.13
866.732	-0.13
867.024	-0.14
867.316	-0.13
867.608	-0.14
867.9	-0.13
868.192	-0.14
868.484	-0.14
868.776	-0.15
869.068	-0.14
869.359	-0.14
869.651	-0.15
869.943	-0.17
870.234	-0.16
870.526	-0.16
870.817	-0.16
871.108	-0.15
871.4	-0.15
871.691	-0.16
871.982	-0.16
872.273	-0.17
872.564	-0.16
872.855	-0.16
873.146	-0.17
873.437	-0.17
873.728	-0.17
874.019	-0.16
874.309	-0.18
874.6	-0.17
874.89	-0.17
875.181	-0.18
875.471	-0.16
875.762	-0.16
876.052	-0.18
876.342	-0.16
876.632	-0.17
876.922	-0.18
877.213	-0.17
877.503	-0.2
877.792	-0.18
878.082	-0.17
878.372	-0.16
878.662	-0.19
878.952	-0.19
879.241	-0.18
879.531	-0.17
879.82	-0.18
880.11	-0.19
880.399	-0.18
880.688	-0.16
880.978	-0.16
881.267	-0.16
