Data from 12-12-AQDScycling_Absorbance__26__00026.txt Node

Date: Tue Dec 12 11:03:14 EST 2023
User: kyuminlee
Spectrometer: FLMS00943
Trigger mode: 0
Integration Time (sec): 1.000000E-1
Scans to average: 1
Electric dark correction enabled: true
Nonlinearity correction enabled: false
Boxcar width: 0
XAxis mode: Wavelengths
Number of Pixels in Spectrum: 2048
>>>>>Begin Spectral Data<<<<<
179.651	1.34
180.037	1.34
180.424	1.34
180.81	-0.46
181.197	0.19
181.583	-0
181.97	-0.63
182.356	-0
182.743	-0.55
183.129	-0.02
183.515	0.83
183.901	-0
184.288	0.09
184.674	-0
185.06	-0
185.446	-0
185.832	-0
186.218	-0
186.604	0.01
186.99	-0
187.376	-0
187.762	0.34
188.148	-0
188.534	-0.1
188.92	0.01
189.305	0.08
189.691	0.17
190.077	0.18
190.463	0.19
190.848	-0.06
191.234	0.05
191.619	0.07
192.005	0.1
192.391	0.08
192.776	0.12
193.161	0.25
193.547	0.09
193.932	0.03
194.318	0.12
194.703	0.26
195.088	0.31
195.473	0.19
195.859	0.16
196.244	0.24
196.629	0.16
197.014	0.2
197.399	0.16
197.784	0.24
198.169	0.17
198.554	0.17
198.939	0.05
199.324	0.25
199.709	0.04
200.094	0.04
200.478	-0.02
200.863	0.12
201.248	0.31
201.633	0.27
202.017	0.26
202.402	0.24
202.787	0.13
203.171	0.04
203.556	0.21
203.94	0.15
204.325	0.26
204.709	0.29
205.093	0.09
205.478	0.18
205.862	0.09
206.246	0.1
206.631	0.42
207.015	0.15
207.399	0.1
207.783	0.16
208.167	0.17
208.551	0.31
208.935	0.2
209.319	0.21
209.703	0.31
210.087	0.17
210.471	0.06
210.855	0.07
211.239	0.23
211.623	0.36
212.007	0.26
212.39	0.23
212.774	0.03
213.158	0.16
213.541	0.25
213.925	0.29
214.309	0.29
214.692	0.23
215.076	0.27
215.459	0.3
215.842	0.33
216.226	0.24
216.609	0.37
216.993	0.13
217.376	0.3
217.759	0.25
218.142	0.25
218.525	0.55
218.909	0.45
219.292	0.33
219.675	0.59
220.058	0.35
220.441	0.51
220.824	0.48
221.207	0.56
221.59	0.45
221.973	0.59
222.355	0.44
222.738	0.66
223.121	0.6
223.504	0.58
223.886	0.6
224.269	0.75
224.652	0.58
225.034	0.78
225.417	0.77
225.799	0.86
226.182	0.77
226.564	0.9
226.947	0.83
227.329	0.81
227.711	0.96
228.094	0.99
228.476	0.95
228.858	0.76
229.24	0.85
229.623	0.96
230.005	0.8
230.387	0.83
230.769	0.82
231.151	0.93
231.533	0.89
231.915	1.03
232.297	1.03
232.679	1.08
233.061	1.05
233.442	1.01
233.824	1.08
234.206	1.28
234.588	1.1
234.969	1.12
235.351	1.07
235.733	1.05
236.114	1.17
236.496	1.09
236.877	1.13
237.259	1.04
237.64	1.15
238.022	0.94
238.403	0.99
238.784	1.06
239.165	1.01
239.547	1.09
239.928	1.07
240.309	1.06
240.69	1.11
241.071	1.06
241.452	1.07
241.834	0.98
242.215	1.02
242.595	1.1
242.976	1.13
243.357	1.06
243.738	1.04
244.119	1.21
244.5	1.07
244.881	1.21
245.261	1.07
245.642	1.27
246.023	1.12
246.403	1.26
246.784	1.14
247.164	1.22
247.545	1.15
247.925	1.39
248.306	1.27
248.686	1.44
249.067	1.22
249.447	1.39
249.827	1.6
250.207	1.43
250.588	1.31
250.968	1.47
251.348	1.4
251.728	1.55
252.108	1.3
252.488	1.41
252.868	1.41
253.248	1.28
253.628	1.49
254.008	1.48
254.388	1.32
254.768	1.48
255.147	1.47
255.527	1.46
255.907	1.48
256.287	1.32
256.666	1.27
257.046	1.41
257.425	1.65
257.805	1.31
258.184	1.32
258.564	1.29
258.943	1.29
259.323	1.48
259.702	1.47
260.081	1.6
260.461	1.46
260.84	1.43
261.219	1.69
261.598	1.42
261.977	1.49
262.356	1.53
262.736	1.4
263.115	1.6
263.494	1.5
263.873	1.47
264.251	1.52
264.63	1.58
265.009	1.51
265.388	1.35
265.767	1.42
266.145	1.42
266.524	1.36
266.903	1.4
267.281	1.54
267.66	1.53
268.039	1.57
268.417	1.4
268.796	1.44
269.174	1.52
269.552	1.51
269.931	1.47
270.309	1.46
270.687	1.56
271.066	1.48
271.444	1.35
271.822	1.46
272.2	1.49
272.578	1.44
272.956	1.37
273.334	1.52
273.712	1.38
274.09	1.49
274.468	1.37
274.846	1.27
275.224	1.33
275.602	1.52
275.98	1.51
276.357	1.53
276.735	1.42
277.113	1.4
277.49	1.32
277.868	1.33
278.246	1.46
278.623	1.32
279.001	1.33
279.378	1.45
279.756	1.44
280.133	1.59
280.51	1.48
280.888	1.34
281.265	1.37
281.642	1.44
282.019	1.52
282.396	1.72
282.773	1.42
283.151	1.5
283.528	1.43
283.905	1.47
284.282	1.69
284.659	1.45
285.035	1.37
285.412	1.29
285.789	1.6
286.166	1.37
286.543	1.54
286.919	1.41
287.296	1.43
287.673	1.74
288.049	1.66
288.426	1.63
288.802	1.49
289.179	1.46
289.555	1.84
289.932	1.49
290.308	1.34
290.684	1.35
291.061	1.39
291.437	1.53
291.813	1.44
292.189	1.4
292.565	1.34
292.942	1.36
293.318	1.43
293.694	1.43
294.07	1.31
294.446	1.46
294.822	1.55
295.197	1.48
295.573	1.46
295.949	1.54
296.325	1.6
296.701	1.56
297.076	1.68
297.452	1.57
297.828	1.44
298.203	1.54
298.579	1.51
298.954	1.47
299.33	1.52
299.705	1.44
300.081	1.53
300.456	1.53
300.831	1.42
301.206	1.41
301.582	1.65
301.957	1.52
302.332	1.59
302.707	1.4
303.082	1.35
303.457	1.48
303.832	1.42
304.207	1.49
304.582	1.44
304.957	1.56
305.332	1.54
305.707	1.51
306.082	1.44
306.456	1.74
306.831	1.52
307.206	1.45
307.58	1.53
307.955	1.6
308.33	1.58
308.704	1.51
309.079	1.57
309.453	1.63
309.828	1.47
310.202	1.43
310.576	1.52
310.951	1.54
311.325	1.56
311.699	1.53
312.073	1.44
312.447	1.44
312.821	1.48
313.196	1.58
313.57	1.45
313.944	1.5
314.317	1.32
314.691	1.45
315.065	1.44
315.439	1.81
315.813	1.58
316.187	1.42
316.56	1.49
316.934	1.72
317.308	1.57
317.681	1.54
318.055	1.59
318.428	1.49
318.802	1.63
319.175	1.53
319.549	1.5
319.922	1.4
320.295	1.46
320.669	1.72
321.042	1.59
321.415	1.75
321.788	1.52
322.162	1.39
322.535	1.54
322.908	1.67
323.281	1.5
323.654	1.73
324.027	1.5
324.4	1.72
324.773	1.79
325.145	1.51
325.518	1.42
325.891	1.51
326.264	1.59
326.636	1.41
327.009	1.52
327.382	1.43
327.754	1.66
328.127	1.45
328.499	1.53
328.872	1.49
329.244	1.58
329.616	1.43
329.989	1.54
330.361	1.55
330.733	1.55
331.106	1.44
331.478	1.62
331.85	1.55
332.222	1.44
332.594	1.55
332.966	1.52
333.338	1.76
333.71	1.58
334.082	1.82
334.454	1.4
334.826	1.56
335.197	1.62
335.569	1.49
335.941	1.4
336.312	1.47
336.684	1.51
337.056	1.52
337.427	1.52
337.799	1.68
338.17	1.51
338.542	1.51
338.913	1.61
339.284	1.81
339.656	1.52
340.027	1.61
340.398	1.63
340.769	1.55
341.141	1.64
341.512	1.56
341.883	1.41
342.254	1.59
342.625	1.57
342.996	1.53
343.367	1.56
343.738	1.55
344.108	1.43
344.479	1.77
344.85	1.45
345.221	1.56
345.591	1.36
345.962	1.47
346.333	1.35
346.703	1.3
347.074	1.36
347.444	1.42
347.815	1.65
348.185	1.42
348.556	1.43
348.926	1.32
349.296	1.37
349.666	1.34
350.037	1.29
350.407	1.37
350.777	1.34
351.147	1.35
351.517	1.45
351.887	1.34
352.257	1.37
352.627	1.25
352.997	1.35
353.367	1.41
353.737	1.3
354.106	1.35
354.476	1.34
354.846	1.41
355.216	1.44
355.585	1.37
355.955	1.25
356.324	1.34
356.694	1.36
357.063	1.25
357.433	1.25
357.802	1.24
358.171	1.3
358.541	1.31
358.91	1.25
359.279	1.28
359.648	1.13
360.017	1.2
360.387	1.14
360.756	1.15
361.125	1.2
361.494	1.22
361.863	1.07
362.231	1.1
362.6	1.09
362.969	1.13
363.338	1.1
363.707	1.08
364.075	1.06
364.444	1
364.813	1.01
365.181	0.99
365.55	1.01
365.918	1.04
366.287	1
366.655	0.98
367.024	0.95
367.392	0.99
367.76	0.93
368.128	0.97
368.497	0.94
368.865	0.91
369.233	0.93
369.601	0.91
369.969	0.9
370.337	0.89
370.705	0.92
371.073	0.88
371.441	0.85
371.809	0.87
372.177	0.84
372.544	0.86
372.912	0.85
373.28	0.88
373.647	0.85
374.015	0.84
374.383	0.88
374.75	0.88
375.118	0.84
375.485	0.84
375.853	0.83
376.22	0.83
376.587	0.84
376.955	0.83
377.322	0.83
377.689	0.81
378.056	0.81
378.423	0.79
378.79	0.84
379.157	0.84
379.524	0.81
379.891	0.82
380.258	0.81
380.625	0.82
380.992	0.82
381.359	0.81
381.726	0.83
382.092	0.8
382.459	0.83
382.826	0.84
383.192	0.84
383.559	0.83
383.925	0.88
384.292	0.87
384.658	0.86
385.025	0.82
385.391	0.88
385.757	0.85
386.123	0.85
386.49	0.84
386.856	0.89
387.222	0.86
387.588	0.85
387.954	0.89
388.32	0.88
388.686	0.87
389.052	0.89
389.418	0.87
389.784	0.89
390.15	0.92
390.515	0.87
390.881	0.94
391.247	0.88
391.613	0.92
391.978	0.87
392.344	0.9
392.709	0.92
393.075	0.91
393.44	0.89
393.806	0.88
394.171	0.93
394.536	0.87
394.902	0.89
395.267	0.89
395.632	0.87
395.997	0.88
396.362	0.83
396.727	0.89
397.092	0.86
397.457	0.82
397.822	0.82
398.187	0.84
398.552	0.87
398.917	0.82
399.282	0.83
399.646	0.81
400.011	0.87
400.376	0.81
400.74	0.81
401.105	0.77
401.47	0.82
401.834	0.79
402.199	0.77
402.563	0.77
402.927	0.75
403.292	0.78
403.656	0.76
404.02	0.75
404.384	0.76
404.749	0.75
405.113	0.73
405.477	0.74
405.841	0.71
406.205	0.7
406.569	0.71
406.933	0.69
407.296	0.67
407.66	0.69
408.024	0.68
408.388	0.67
408.752	0.68
409.115	0.67
409.479	0.66
409.842	0.67
410.206	0.65
410.569	0.65
410.933	0.64
411.296	0.66
411.66	0.67
412.023	0.63
412.386	0.64
412.749	0.64
413.113	0.62
413.476	0.61
413.839	0.62
414.202	0.62
414.565	0.6
414.928	0.58
415.291	0.59
415.654	0.61
416.017	0.61
416.38	0.59
416.742	0.58
417.105	0.57
417.468	0.57
417.83	0.58
418.193	0.59
418.556	0.57
418.918	0.56
419.281	0.56
419.643	0.56
420.005	0.56
420.368	0.56
420.73	0.56
421.092	0.57
421.455	0.56
421.817	0.54
422.179	0.56
422.541	0.55
422.903	0.56
423.265	0.55
423.627	0.55
423.989	0.53
424.351	0.52
424.713	0.54
425.075	0.52
425.436	0.54
425.798	0.51
426.16	0.53
426.521	0.53
426.883	0.54
427.245	0.53
427.606	0.5
427.967	0.51
428.329	0.52
428.69	0.53
429.052	0.51
429.413	0.52
429.774	0.52
430.135	0.5
430.497	0.49
430.858	0.49
431.219	0.49
431.58	0.49
431.941	0.5
432.302	0.49
432.663	0.49
433.024	0.5
433.384	0.5
433.745	0.47
434.106	0.49
434.467	0.48
434.827	0.5
435.188	0.5
435.548	0.49
435.909	0.47
436.269	0.49
436.63	0.47
436.99	0.48
437.351	0.46
437.711	0.48
438.071	0.47
438.431	0.47
438.792	0.47
439.152	0.44
439.512	0.44
439.872	0.46
440.232	0.46
440.592	0.45
440.952	0.45
441.312	0.44
441.671	0.45
442.031	0.43
442.391	0.43
442.751	0.44
443.11	0.43
443.47	0.44
443.83	0.43
444.189	0.43
444.549	0.43
444.908	0.43
445.267	0.42
445.627	0.42
445.986	0.42
446.345	0.41
446.705	0.41
447.064	0.4
447.423	0.4
447.782	0.41
448.141	0.4
448.5	0.39
448.859	0.4
449.218	0.4
449.577	0.4
449.936	0.39
450.295	0.39
450.653	0.38
451.012	0.4
451.371	0.38
451.729	0.38
452.088	0.39
452.447	0.39
452.805	0.39
453.163	0.38
453.522	0.39
453.88	0.37
454.239	0.37
454.597	0.36
454.955	0.37
455.313	0.35
455.671	0.36
456.029	0.35
456.388	0.35
456.746	0.35
457.104	0.35
457.461	0.34
457.819	0.33
458.177	0.33
458.535	0.32
458.893	0.33
459.25	0.33
459.608	0.32
459.966	0.31
460.323	0.31
460.681	0.3
461.038	0.31
461.396	0.3
461.753	0.31
462.111	0.29
462.468	0.31
462.825	0.3
463.182	0.29
463.54	0.28
463.897	0.29
464.254	0.28
464.611	0.27
464.968	0.28
465.325	0.28
465.682	0.26
466.039	0.27
466.395	0.26
466.752	0.26
467.109	0.26
467.466	0.26
467.822	0.26
468.179	0.25
468.535	0.25
468.892	0.25
469.248	0.24
469.605	0.25
469.961	0.25
470.318	0.25
470.674	0.24
471.03	0.23
471.386	0.24
471.743	0.22
472.099	0.23
472.455	0.22
472.811	0.22
473.167	0.22
473.523	0.21
473.879	0.21
474.235	0.21
474.59	0.21
474.946	0.2
475.302	0.21
475.657	0.2
476.013	0.2
476.369	0.2
476.724	0.2
477.08	0.19
477.435	0.19
477.791	0.19
478.146	0.19
478.501	0.19
478.857	0.19
479.212	0.19
479.567	0.18
479.922	0.17
480.277	0.17
480.632	0.17
480.987	0.17
481.342	0.17
481.697	0.16
482.052	0.17
482.407	0.16
482.762	0.16
483.116	0.16
483.471	0.16
483.826	0.15
484.18	0.16
484.535	0.16
484.89	0.15
485.244	0.15
485.598	0.16
485.953	0.15
486.307	0.15
486.661	0.15
487.016	0.14
487.37	0.14
487.724	0.14
488.078	0.14
488.432	0.14
488.786	0.15
489.14	0.14
489.494	0.14
489.848	0.14
490.202	0.13
490.556	0.13
490.91	0.14
491.263	0.13
491.617	0.14
491.971	0.13
492.324	0.13
492.678	0.13
493.031	0.13
493.385	0.12
493.738	0.13
494.091	0.12
494.445	0.12
494.798	0.12
495.151	0.12
495.504	0.13
495.857	0.12
496.21	0.13
496.564	0.12
496.916	0.13
497.269	0.12
497.622	0.12
497.975	0.12
498.328	0.13
498.681	0.12
499.033	0.12
499.386	0.12
499.739	0.12
500.091	0.12
500.444	0.11
500.796	0.12
501.149	0.11
501.501	0.11
501.854	0.12
502.206	0.11
502.558	0.11
502.91	0.11
503.263	0.11
503.615	0.11
503.967	0.11
504.319	0.1
504.671	0.11
505.023	0.1
505.375	0.11
505.726	0.1
506.078	0.1
506.43	0.11
506.782	0.11
507.133	0.1
507.485	0.11
507.837	0.12
508.188	0.11
508.54	0.1
508.891	0.11
509.243	0.1
509.594	0.1
509.945	0.1
510.296	0.1
510.648	0.1
510.999	0.09
511.35	0.1
511.701	0.1
512.052	0.1
512.403	0.1
512.754	0.09
513.105	0.09
513.456	0.09
513.807	0.09
514.157	0.09
514.508	0.09
514.859	0.09
515.209	0.09
515.56	0.09
515.91	0.09
516.261	0.1
516.611	0.08
516.962	0.1
517.312	0.1
517.662	0.09
518.013	0.1
518.363	0.09
518.713	0.09
519.063	0.1
519.413	0.09
519.763	0.09
520.113	0.09
520.463	0.1
520.813	0.1
521.163	0.1
521.512	0.09
521.862	0.1
522.212	0.1
522.562	0.09
522.911	0.09
523.261	0.1
523.61	0.1
523.96	0.09
524.309	0.1
524.658	0.1
525.008	0.1
525.357	0.1
525.706	0.1
526.056	0.1
526.405	0.1
526.754	0.1
527.103	0.09
527.452	0.1
527.801	0.1
528.15	0.1
528.499	0.09
528.847	0.09
529.196	0.1
529.545	0.1
529.893	0.1
530.242	0.09
530.591	0.1
530.939	0.1
531.288	0.1
531.636	0.1
531.985	0.1
532.333	0.1
532.681	0.1
533.029	0.1
533.378	0.1
533.726	0.1
534.074	0.11
534.422	0.1
534.77	0.1
535.118	0.1
535.466	0.1
535.814	0.1
536.162	0.1
536.509	0.1
536.857	0.1
537.205	0.1
537.552	0.1
537.9	0.1
538.248	0.09
538.595	0.09
538.943	0.09
539.29	0.09
539.637	0.09
539.985	0.09
540.332	0.09
540.679	0.09
541.026	0.09
541.373	0.1
541.721	0.09
542.068	0.1
542.415	0.1
542.762	0.09
543.108	0.09
543.455	0.09
543.802	0.09
544.149	0.1
544.496	0.09
544.842	0.09
545.189	0.08
545.535	0.1
545.882	0.1
546.228	0.09
546.575	0.08
546.921	0.09
547.267	0.09
547.614	0.09
547.96	0.09
548.306	0.09
548.652	0.09
548.998	0.1
549.344	0.09
549.69	0.09
550.036	0.09
550.382	0.09
550.728	0.09
551.074	0.1
551.42	0.09
551.765	0.09
552.111	0.1
552.457	0.09
552.802	0.09
553.148	0.09
553.493	0.09
553.839	0.1
554.184	0.1
554.529	0.09
554.875	0.1
555.22	0.1
555.565	0.1
555.91	0.09
556.255	0.11
556.6	0.1
556.945	0.1
557.29	0.09
557.635	0.1
557.98	0.09
558.325	0.09
558.67	0.1
559.014	0.09
559.359	0.09
559.704	0.1
560.048	0.08
560.393	0.09
560.737	0.08
561.082	0.09
561.426	0.08
561.77	0.09
562.115	0.08
562.459	0.09
562.803	0.08
563.147	0.08
563.491	0.08
563.835	0.09
564.179	0.09
564.523	0.09
564.867	0.08
565.211	0.09
565.555	0.09
565.899	0.1
566.242	0.09
566.586	0.08
566.93	0.09
567.273	0.1
567.617	0.1
567.96	0.1
568.304	0.09
568.647	0.09
568.99	0.1
569.334	0.1
569.677	0.09
570.02	0.1
570.363	0.1
570.706	0.1
571.049	0.1
571.392	0.1
571.735	0.1
572.078	0.1
572.421	0.11
572.764	0.1
573.106	0.11
573.449	0.1
573.792	0.1
574.134	0.1
574.477	0.09
574.819	0.09
575.162	0.1
575.504	0.09
575.847	0.09
576.189	0.1
576.531	0.1
576.873	0.1
577.215	0.1
577.558	0.1
577.9	0.09
578.242	0.09
578.584	0.1
578.926	0.09
579.267	0.09
579.609	0.09
579.951	0.09
580.293	0.09
580.634	0.09
580.976	0.09
581.318	0.09
581.659	0.09
582.001	0.09
582.342	0.09
582.683	0.1
583.025	0.09
583.366	0.09
583.707	0.1
584.049	0.08
584.39	0.09
584.731	0.09
585.072	0.09
585.413	0.1
585.754	0.09
586.095	0.09
586.435	0.09
586.776	0.1
587.117	0.09
587.458	0.09
587.798	0.09
588.139	0.09
588.48	0.09
588.82	0.09
589.161	0.08
589.501	0.08
589.841	0.09
590.182	0.08
590.522	0.08
590.862	0.09
591.202	0.09
591.542	0.08
591.882	0.09
592.222	0.08
592.562	0.09
592.902	0.08
593.242	0.09
593.582	0.09
593.922	0.09
594.261	0.08
594.601	0.08
594.941	0.09
595.28	0.09
595.62	0.09
595.959	0.09
596.299	0.09
596.638	0.08
596.977	0.08
597.317	0.09
597.656	0.1
597.995	0.09
598.334	0.1
598.673	0.09
599.012	0.09
599.351	0.1
599.69	0.09
600.029	0.09
600.368	0.09
600.707	0.09
601.046	0.09
601.384	0.1
601.723	0.1
602.061	0.09
602.4	0.09
602.738	0.08
603.077	0.09
603.415	0.09
603.754	0.09
604.092	0.09
604.43	0.09
604.768	0.1
605.107	0.1
605.445	0.09
605.783	0.09
606.121	0.09
606.459	0.09
606.796	0.09
607.134	0.09
607.472	0.09
607.81	0.09
608.148	0.09
608.485	0.09
608.823	0.1
609.16	0.09
609.498	0.09
609.835	0.09
610.173	0.09
610.51	0.1
610.847	0.1
611.185	0.09
611.522	0.11
611.859	0.1
612.196	0.1
612.533	0.11
612.87	0.11
613.207	0.11
613.544	0.1
613.881	0.11
614.217	0.1
614.554	0.1
614.891	0.1
615.228	0.1
615.564	0.1
615.901	0.1
616.237	0.1
616.574	0.1
616.91	0.11
617.246	0.1
617.583	0.1
617.919	0.11
618.255	0.11
618.591	0.1
618.927	0.1
619.263	0.11
619.599	0.1
619.935	0.1
620.271	0.1
620.607	0.1
620.943	0.1
621.279	0.1
621.614	0.1
621.95	0.1
622.286	0.1
622.621	0.1
622.957	0.1
623.292	0.09
623.627	0.1
623.963	0.1
624.298	0.09
624.633	0.1
624.968	0.1
625.304	0.09
625.639	0.09
625.974	0.09
626.309	0.09
626.644	0.09
626.979	0.1
627.313	0.1
627.648	0.09
627.983	0.09
628.318	0.09
628.652	0.09
628.987	0.1
629.321	0.09
629.656	0.09
629.99	0.09
630.325	0.09
630.659	0.09
630.993	0.09
631.327	0.09
631.662	0.08
631.996	0.09
632.33	0.08
632.664	0.08
632.998	0.08
633.332	0.08
633.666	0.08
633.999	0.08
634.333	0.07
634.667	0.08
635.001	0.08
635.334	0.07
635.668	0.08
636.001	0.08
636.335	0.08
636.668	0.08
637.001	0.07
637.335	0.08
637.668	0.08
638.001	0.08
638.334	0.07
638.668	0.08
639.001	0.08
639.334	0.08
639.667	0.07
639.999	0.08
640.332	0.08
640.665	0.08
640.998	0.08
641.331	0.08
641.663	0.08
641.996	0.08
642.328	0.08
642.661	0.08
642.993	0.08
643.326	0.09
643.658	0.08
643.99	0.08
644.323	0.08
644.655	0.08
644.987	0.08
645.319	0.08
645.651	0.09
645.983	0.08
646.315	0.08
646.647	0.09
646.979	0.09
647.31	0.09
647.642	0.09
647.974	0.09
648.305	0.09
648.637	0.1
648.968	0.09
649.3	0.09
649.631	0.09
649.963	0.09
650.294	0.09
650.625	0.09
650.957	0.09
651.288	0.09
651.619	0.09
651.95	0.08
652.281	0.09
652.612	0.09
652.943	0.09
653.274	0.09
653.604	0.08
653.935	0.08
654.266	0.09
654.596	0.08
654.927	0.09
655.258	0.09
655.588	0.09
655.918	0.09
656.249	0.07
656.579	0.09
656.909	0.08
657.24	0.08
657.57	0.09
657.9	0.09
658.23	0.09
658.56	0.09
658.89	0.1
659.22	0.09
659.55	0.08
659.88	0.09
660.209	0.09
660.539	0.1
660.869	0.09
661.198	0.09
661.528	0.09
661.857	0.09
662.187	0.09
662.516	0.09
662.846	0.08
663.175	0.08
663.504	0.09
663.833	0.09
664.163	0.09
664.492	0.09
664.821	0.09
665.15	0.09
665.479	0.08
665.807	0.08
666.136	0.09
666.465	0.09
666.794	0.09
667.122	0.08
667.451	0.08
667.78	0.08
668.108	0.09
668.437	0.08
668.765	0.08
669.093	0.09
669.422	0.08
669.75	0.09
670.078	0.08
670.406	0.09
670.734	0.09
671.062	0.09
671.39	0.08
671.718	0.08
672.046	0.08
672.374	0.08
672.702	0.07
673.029	0.08
673.357	0.09
673.685	0.09
674.012	0.08
674.34	0.08
674.667	0.08
674.995	0.08
675.322	0.09
675.649	0.07
675.977	0.08
676.304	0.08
676.631	0.08
676.958	0.07
677.285	0.07
677.612	0.07
677.939	0.07
678.266	0.07
678.593	0.07
678.92	0.07
679.246	0.06
679.573	0.06
679.9	0.07
680.226	0.06
680.553	0.06
680.879	0.07
681.206	0.06
681.532	0.07
681.858	0.06
682.184	0.07
682.511	0.06
682.837	0.06
683.163	0.07
683.489	0.07
683.815	0.06
684.141	0.07
684.467	0.07
684.793	0.06
685.118	0.07
685.444	0.08
685.77	0.07
686.095	0.07
686.421	0.07
686.746	0.07
687.072	0.07
687.397	0.06
687.723	0.07
688.048	0.07
688.373	0.06
688.698	0.07
689.023	0.07
689.349	0.07
689.674	0.07
689.999	0.06
690.323	0.06
690.648	0.06
690.973	0.06
691.298	0.06
691.623	0.06
691.947	0.06
692.272	0.06
692.596	0.06
692.921	0.07
693.245	0.05
693.57	0.06
693.894	0.07
694.218	0.07
694.543	0.06
694.867	0.06
695.191	0.06
695.515	0.06
695.839	0.05
696.163	0.05
696.487	0.06
696.811	0.06
697.135	0.06
697.458	0.06
697.782	0.06
698.106	0.06
698.429	0.06
698.753	0.06
699.076	0.06
699.4	0.06
699.723	0.07
700.046	0.05
700.37	0.06
700.693	0.06
701.016	0.06
701.339	0.06
701.662	0.07
701.985	0.06
702.308	0.05
702.631	0.07
702.954	0.06
703.277	0.06
703.599	0.06
703.922	0.06
704.245	0.05
704.567	0.05
704.89	0.05
705.212	0.06
705.535	0.04
705.857	0.04
706.179	0.04
706.502	0.05
706.824	0.04
707.146	0.04
707.468	0.05
707.79	0.04
708.112	0.05
708.434	0.05
708.756	0.05
709.078	0.04
709.399	0.04
709.721	0.04
710.043	0.04
710.364	0.04
710.686	0.05
711.007	0.05
711.329	0.05
711.65	0.05
711.972	0.05
712.293	0.05
712.614	0.05
712.935	0.05
713.256	0.05
713.577	0.05
713.898	0.05
714.219	0.05
714.54	0.05
714.861	0.05
715.182	0.06
715.503	0.05
715.823	0.06
716.144	0.05
716.464	0.05
716.785	0.05
717.105	0.05
717.426	0.05
717.746	0.05
718.066	0.04
718.387	0.05
718.707	0.04
719.027	0.05
719.347	0.04
719.667	0.05
719.987	0.04
720.307	0.04
720.627	0.04
720.947	0.04
721.266	0.04
721.586	0.03
721.906	0.05
722.225	0.04
722.545	0.04
722.864	0.04
723.184	0.05
723.503	0.05
723.823	0.05
724.142	0.04
724.461	0.04
724.78	0.05
725.099	0.04
725.418	0.05
725.737	0.05
726.056	0.06
726.375	0.05
726.694	0.05
727.013	0.05
727.331	0.04
727.65	0.04
727.969	0.04
728.287	0.05
728.606	0.04
728.924	0.04
729.242	0.04
729.561	0.04
729.879	0.04
730.197	0.05
730.515	0.04
730.834	0.03
731.152	0.04
731.47	0.04
731.788	0.04
732.105	0.03
732.423	0.04
732.741	0.04
733.059	0.04
733.376	0.04
733.694	0.03
734.012	0.03
734.329	0.04
734.647	0.04
734.964	0.04
735.281	0.04
735.599	0.04
735.916	0.04
736.233	0.03
736.55	0.04
736.867	0.04
737.184	0.05
737.501	0.04
737.818	0.04
738.135	0.05
738.452	0.04
738.768	0.04
739.085	0.04
739.402	0.03
739.718	0.04
740.035	0.04
740.351	0.05
740.668	0.05
740.984	0.04
741.3	0.04
741.617	0.05
741.933	0.04
742.249	0.05
742.565	0.04
742.881	0.05
743.197	0.04
743.513	0.03
743.829	0.04
744.144	0.03
744.46	0.03
744.776	0.04
745.091	0.03
745.407	0.04
745.722	0.04
746.038	0.04
746.353	0.03
746.669	0.04
746.984	0.03
747.299	0.04
747.614	0.05
747.93	0.04
748.245	0.04
748.56	0.04
748.875	0.04
749.189	0.03
749.504	0.03
749.819	0.03
750.134	0.03
750.448	0.04
750.763	0.03
751.078	0.03
751.392	0.04
751.707	0.04
752.021	0.04
752.335	0.04
752.65	0.04
752.964	0.04
753.278	0.04
753.592	0.05
753.906	0.04
754.22	0.04
754.534	0.04
754.848	0.04
755.162	0.04
755.476	0.05
755.789	0.05
756.103	0.03
756.417	0.04
756.73	0.04
757.044	0.04
757.357	0.05
757.671	0.05
757.984	0.04
758.297	0.05
758.61	0.05
758.924	0.04
759.237	0.03
759.55	0.04
759.863	0.03
760.176	0.05
760.488	0.04
760.801	0.04
761.114	0.04
761.427	0.04
761.739	0.04
762.052	0.04
762.365	0.04
762.677	0.04
762.99	0.04
763.302	0.04
763.614	0.04
763.926	0.04
764.239	0.04
764.551	0.03
764.863	0.04
765.175	0.04
765.487	0.04
765.799	0.03
766.111	0.03
766.423	0.04
766.734	0.04
767.046	0.04
767.358	0.04
767.669	0.04
767.981	0.04
768.292	0.04
768.604	0.04
768.915	0.03
769.226	0.04
769.537	0.03
769.849	0.04
770.16	0.03
770.471	0.03
770.782	0.03
771.093	0.04
771.404	0.02
771.715	0.03
772.025	0.03
772.336	0.03
772.647	0.03
772.957	0.02
773.268	0.03
773.578	0.03
773.889	0.03
774.199	0.04
774.51	0.03
774.82	0.03
775.13	0.03
775.44	0.03
775.75	0.03
776.06	0.03
776.37	0.03
776.68	0.03
776.99	0.03
777.3	0.03
777.61	0.03
777.92	0.03
778.229	0.02
778.539	0.03
778.848	0.03
779.158	0.03
779.467	0.04
779.777	0.03
780.086	0.03
780.395	0.03
780.704	0.03
781.013	0.02
781.323	0.02
781.632	0.03
781.941	0.03
782.249	0.03
782.558	0.03
782.867	0.04
783.176	0.03
783.485	0.03
783.793	0.03
784.102	0.03
784.41	0.03
784.719	0.03
785.027	0.03
785.335	0.03
785.644	0.04
785.952	0.03
786.26	0.03
786.568	0.02
786.876	0.03
787.184	0.03
787.492	0.03
787.8	0.03
788.108	0.03
788.416	0.04
788.723	0.04
789.031	0.03
789.338	0.03
789.646	0.03
789.953	0.04
790.261	0.04
790.568	0.03
790.876	0.04
791.183	0.04
791.49	0.03
791.797	0.04
792.104	0.03
792.411	0.04
792.718	0.03
793.025	0.04
793.332	0.03
793.639	0.04
793.945	0.04
794.252	0.04
794.559	0.04
794.865	0.04
795.172	0.04
795.478	0.04
795.784	0.04
796.091	0.04
796.397	0.04
796.703	0.04
797.009	0.05
797.315	0.03
797.622	0.04
797.927	0.04
798.233	0.03
798.539	0.04
798.845	0.03
799.151	0.03
799.456	0.04
799.762	0.02
800.068	0.03
800.373	0.04
800.679	0.03
800.984	0.03
801.289	0.03
801.595	0.04
801.9	0.03
802.205	0.03
802.51	0.03
802.815	0.03
803.12	0.02
803.425	0.03
803.73	0.03
804.035	0.02
804.339	0.03
804.644	0.03
804.949	0.03
805.253	0.02
805.558	0.03
805.862	0.03
806.167	0.03
806.471	0.03
806.775	0.04
807.08	0.03
807.384	0.03
807.688	0.03
807.992	0.04
808.296	0.03
808.6	0.03
808.904	0.04
809.207	0.03
809.511	0.04
809.815	0.04
810.119	0.04
810.422	0.05
810.726	0.04
811.029	0.05
811.332	0.04
811.636	0.04
811.939	0.04
812.242	0.04
812.546	0.04
812.849	0.03
813.152	0.04
813.455	0.04
813.758	0.04
814.06	0.04
814.363	0.04
814.666	0.05
814.969	0.04
815.271	0.05
815.574	0.05
815.877	0.04
816.179	0.04
816.481	0.04
816.784	0.04
817.086	0.04
817.388	0.04
817.69	0.04
817.993	0.03
818.295	0.03
818.597	0.03
818.899	0.03
819.2	0.02
819.502	0.03
819.804	0.03
820.106	0.03
820.407	0.02
820.709	0.03
821.01	0.02
821.312	0.03
821.613	0.02
821.915	0.02
822.216	0.02
822.517	0.01
822.818	0.01
823.119	0.01
823.42	0.02
823.721	0
824.022	0.01
824.323	0.02
824.624	0.01
824.925	0.02
825.226	0.02
825.526	0.01
825.827	0.01
826.127	0.01
826.428	0.02
826.728	0.01
827.028	0.01
827.329	0
827.629	0.01
827.929	0.01
828.229	0.01
828.529	0.02
828.829	0.01
829.129	0.01
829.429	0.02
829.729	0.02
830.029	0.01
830.328	0.01
830.628	0.01
830.927	-0
831.227	0.01
831.526	0.01
831.826	0.01
832.125	0
832.424	0
832.724	0.01
833.023	0.01
833.322	0.01
833.621	0.01
833.92	0
834.219	0
834.518	0.01
834.816	-0
835.115	0
835.414	0
835.712	-0
836.011	-0
836.309	-0.01
836.608	-0.01
836.906	-0.01
837.205	-0.02
837.503	-0.01
837.801	-0.01
838.099	-0.03
838.397	-0.03
838.695	-0.02
838.993	-0.02
839.291	-0.03
839.589	-0.03
839.887	-0.03
840.184	-0.03
840.482	-0.03
840.78	-0.04
841.077	-0.03
841.375	-0.03
841.672	-0.03
841.969	-0.04
842.267	-0.04
842.564	-0.04
842.861	-0.03
843.158	-0.03
843.455	-0.05
843.752	-0.05
844.049	-0.04
844.346	-0.04
844.643	-0.04
844.94	-0.04
845.236	-0.04
845.533	-0.05
845.83	-0.05
846.126	-0.05
846.423	-0.04
846.719	-0.06
847.015	-0.05
847.312	-0.05
847.608	-0.06
847.904	-0.06
848.2	-0.06
848.496	-0.07
848.792	-0.06
849.088	-0.06
849.384	-0.07
849.68	-0.07
849.975	-0.08
850.271	-0.08
850.567	-0.07
850.862	-0.09
851.158	-0.08
851.453	-0.09
851.748	-0.09
852.044	-0.09
852.339	-0.09
852.634	-0.1
852.929	-0.09
853.224	-0.1
853.519	-0.1
853.814	-0.09
854.109	-0.11
854.404	-0.1
854.699	-0.11
854.994	-0.1
855.288	-0.1
855.583	-0.09
855.877	-0.1
856.172	-0.1
856.466	-0.11
856.76	-0.11
857.055	-0.12
857.349	-0.12
857.643	-0.12
857.937	-0.13
858.231	-0.12
858.525	-0.13
858.819	-0.12
859.113	-0.13
859.407	-0.13
859.701	-0.13
859.994	-0.13
860.288	-0.12
860.581	-0.13
860.875	-0.13
861.168	-0.13
861.462	-0.13
861.755	-0.12
862.048	-0.13
862.341	-0.12
862.634	-0.14
862.928	-0.12
863.221	-0.13
863.513	-0.13
863.806	-0.12
864.099	-0.13
864.392	-0.13
864.685	-0.12
864.977	-0.12
865.27	-0.13
865.562	-0.12
865.855	-0.13
866.147	-0.14
866.44	-0.13
866.732	-0.13
867.024	-0.14
867.316	-0.14
867.608	-0.14
867.9	-0.13
868.192	-0.14
868.484	-0.14
868.776	-0.14
869.068	-0.15
869.359	-0.14
869.651	-0.15
869.943	-0.16
870.234	-0.14
870.526	-0.15
870.817	-0.16
871.108	-0.14
871.4	-0.14
871.691	-0.15
871.982	-0.16
872.273	-0.16
872.564	-0.16
872.855	-0.17
873.146	-0.16
873.437	-0.16
873.728	-0.17
874.019	-0.16
874.309	-0.16
874.6	-0.16
874.89	-0.17
875.181	-0.16
875.471	-0.16
875.762	-0.16
876.052	-0.16
876.342	-0.16
876.632	-0.16
876.922	-0.16
877.213	-0.17
877.503	-0.18
877.792	-0.17
878.082	-0.17
878.372	-0.16
878.662	-0.19
878.952	-0.18
879.241	-0.17
879.531	-0.17
879.82	-0.18
880.11	-0.18
880.399	-0.17
880.688	-0.16
880.978	-0.16
881.267	-0.16
