Data from 12-12-AQDScycling_Absorbance__343__00343.txt Node

Date: Tue Dec 12 12:22:29 EST 2023
User: kyuminlee
Spectrometer: FLMS00943
Trigger mode: 0
Integration Time (sec): 1.000000E-1
Scans to average: 1
Electric dark correction enabled: true
Nonlinearity correction enabled: false
Boxcar width: 0
XAxis mode: Wavelengths
Number of Pixels in Spectrum: 2048
>>>>>Begin Spectral Data<<<<<
179.651	-0
180.037	-0
180.424	-0
180.81	0.63
181.197	0.29
181.583	-0
181.97	0.09
182.356	-0
182.743	-0
183.129	-0.2
183.515	0.32
183.901	-1.97
184.288	0.44
184.674	0.24
185.06	-0.79
185.446	0.34
185.832	-0.82
186.218	-0
186.604	0.01
186.99	-0
187.376	0.11
187.762	-0
188.148	0.09
188.534	-0.22
188.92	-0.03
189.305	-0
189.691	0.07
190.077	0.12
190.463	0.14
190.848	0.13
191.234	0.12
191.619	0.12
192.005	0.14
192.391	0.15
192.776	0.12
193.161	0.12
193.547	0.16
193.932	-0.04
194.318	0.05
194.703	0.07
195.088	0.02
195.473	0.22
195.859	0.18
196.244	0.09
196.629	0.12
197.014	0.03
197.399	0.24
197.784	0.18
198.169	0.37
198.554	0.2
198.939	0.06
199.324	0.08
199.709	0.05
200.094	0.12
200.478	0.17
200.863	0.12
201.248	0.18
201.633	0.13
202.017	0.14
202.402	0.12
202.787	0.05
203.171	0.37
203.556	0.24
203.94	0.14
204.325	0.15
204.709	0.1
205.093	0.1
205.478	0.07
205.862	0.25
206.246	0.22
206.631	0.19
207.015	0.07
207.399	0.23
207.783	0.02
208.167	0.2
208.551	0.26
208.935	0.2
209.319	0.09
209.703	0.23
210.087	0.39
210.471	0.11
210.855	0.15
211.239	0.14
211.623	0.21
212.007	0.11
212.39	0.21
212.774	0.19
213.158	0.11
213.541	0.11
213.925	0.29
214.309	0.33
214.692	0.18
215.076	0.18
215.459	0.2
215.842	0.15
216.226	0.21
216.609	0.3
216.993	0.13
217.376	0.32
217.759	0.22
218.142	0.28
218.525	0.39
218.909	0.36
219.292	0.26
219.675	0.37
220.058	0.32
220.441	0.43
220.824	0.41
221.207	0.51
221.59	0.43
221.973	0.57
222.355	0.67
222.738	0.72
223.121	0.59
223.504	0.67
223.886	0.59
224.269	0.62
224.652	0.57
225.034	0.73
225.417	0.64
225.799	0.79
226.182	0.81
226.564	0.9
226.947	0.7
227.329	0.83
227.711	1.04
228.094	0.84
228.476	1.02
228.858	0.75
229.24	0.76
229.623	0.87
230.005	0.81
230.387	0.91
230.769	0.81
231.151	0.91
231.533	0.93
231.915	1.03
232.297	0.93
232.679	1.04
233.061	0.96
233.442	1.04
233.824	0.94
234.206	1.2
234.588	1.05
234.969	1.05
235.351	0.97
235.733	0.98
236.114	1.1
236.496	1.05
236.877	1.05
237.259	0.95
237.64	1.03
238.022	1.01
238.403	0.96
238.784	1.02
239.165	1.03
239.547	0.92
239.928	1.09
240.309	1.03
240.69	0.99
241.071	1.16
241.452	1.13
241.834	1.01
242.215	1.04
242.595	1.12
242.976	1.21
243.357	1.14
243.738	0.95
244.119	1.17
244.5	1.11
244.881	1.19
245.261	1.24
245.642	1.16
246.023	1.15
246.403	1.14
246.784	1.23
247.164	1.32
247.545	1.28
247.925	1.28
248.306	1.16
248.686	1.25
249.067	1.18
249.447	1.35
249.827	1.47
250.207	1.34
250.588	1.2
250.968	1.39
251.348	1.23
251.728	1.39
252.108	1.34
252.488	1.37
252.868	1.28
253.248	1.32
253.628	1.33
254.008	1.63
254.388	1.38
254.768	1.46
255.147	1.38
255.527	1.45
255.907	1.32
256.287	1.37
256.666	1.31
257.046	1.36
257.425	1.5
257.805	1.35
258.184	1.25
258.564	1.27
258.943	1.3
259.323	1.49
259.702	1.45
260.081	1.41
260.461	1.49
260.84	1.51
261.219	1.7
261.598	1.49
261.977	1.49
262.356	1.43
262.736	1.43
263.115	1.69
263.494	1.39
263.873	1.43
264.251	1.42
264.63	1.52
265.009	1.4
265.388	1.38
265.767	1.35
266.145	1.43
266.524	1.48
266.903	1.34
267.281	1.33
267.66	1.42
268.039	1.54
268.417	1.38
268.796	1.55
269.174	1.4
269.552	1.35
269.931	1.68
270.309	1.38
270.687	1.8
271.066	1.52
271.444	1.25
271.822	1.4
272.2	1.33
272.578	1.35
272.956	1.27
273.334	1.41
273.712	1.47
274.09	1.41
274.468	1.45
274.846	1.35
275.224	1.36
275.602	1.38
275.98	1.4
276.357	1.39
276.735	1.46
277.113	1.37
277.49	1.33
277.868	1.24
278.246	1.46
278.623	1.27
279.001	1.38
279.378	1.42
279.756	1.41
280.133	1.46
280.51	1.48
280.888	1.39
281.265	1.32
281.642	1.41
282.019	1.52
282.396	1.53
282.773	1.41
283.151	1.44
283.528	1.39
283.905	1.46
284.282	1.5
284.659	1.54
285.035	1.34
285.412	1.32
285.789	1.49
286.166	1.33
286.543	1.37
286.919	1.47
287.296	1.34
287.673	1.55
288.049	1.47
288.426	1.48
288.802	1.38
289.179	1.53
289.555	1.59
289.932	1.44
290.308	1.26
290.684	1.34
291.061	1.38
291.437	1.51
291.813	1.3
292.189	1.26
292.565	1.3
292.942	1.26
293.318	1.31
293.694	1.41
294.07	1.2
294.446	1.48
294.822	1.49
295.197	1.44
295.573	1.42
295.949	1.32
296.325	1.32
296.701	1.45
297.076	1.47
297.452	1.41
297.828	1.45
298.203	1.51
298.579	1.32
298.954	1.32
299.33	1.27
299.705	1.29
300.081	1.36
300.456	1.26
300.831	1.19
301.206	1.23
301.582	1.21
301.957	1.19
302.332	1.24
302.707	1.13
303.082	1.11
303.457	1.12
303.832	1.15
304.207	1.06
304.582	1.09
304.957	1.06
305.332	1.03
305.707	1.03
306.082	1
306.456	0.96
306.831	0.92
307.206	0.91
307.58	0.95
307.955	0.9
308.33	0.9
308.704	0.89
309.079	0.86
309.453	0.85
309.828	0.85
310.202	0.81
310.576	0.81
310.951	0.81
311.325	0.77
311.699	0.8
312.073	0.73
312.447	0.74
312.821	0.72
313.196	0.75
313.57	0.71
313.944	0.67
314.317	0.66
314.691	0.7
315.065	0.66
315.439	0.66
315.813	0.66
316.187	0.64
316.56	0.66
316.934	0.64
317.308	0.63
317.681	0.61
318.055	0.62
318.428	0.6
318.802	0.62
319.175	0.58
319.549	0.58
319.922	0.59
320.295	0.61
320.669	0.61
321.042	0.6
321.415	0.58
321.788	0.58
322.162	0.55
322.535	0.58
322.908	0.55
323.281	0.56
323.654	0.56
324.027	0.55
324.4	0.55
324.773	0.55
325.145	0.59
325.518	0.54
325.891	0.54
326.264	0.55
326.636	0.55
327.009	0.56
327.382	0.58
327.754	0.58
328.127	0.55
328.499	0.55
328.872	0.58
329.244	0.58
329.616	0.59
329.989	0.57
330.361	0.6
330.733	0.58
331.106	0.61
331.478	0.6
331.85	0.62
332.222	0.62
332.594	0.62
332.966	0.65
333.338	0.66
333.71	0.66
334.082	0.68
334.454	0.69
334.826	0.69
335.197	0.67
335.569	0.7
335.941	0.67
336.312	0.69
336.684	0.72
337.056	0.73
337.427	0.75
337.799	0.75
338.17	0.79
338.542	0.78
338.913	0.77
339.284	0.79
339.656	0.77
340.027	0.79
340.398	0.81
340.769	0.8
341.141	0.87
341.512	0.83
341.883	0.83
342.254	0.87
342.625	0.91
342.996	0.88
343.367	0.88
343.738	0.91
344.108	0.88
344.479	0.97
344.85	0.93
345.221	0.99
345.591	0.93
345.962	1.03
346.333	1.03
346.703	0.94
347.074	1.06
347.444	0.99
347.815	1.09
348.185	1.09
348.556	1.05
348.926	1.07
349.296	1.05
349.666	1.08
350.037	1.07
350.407	1.03
350.777	1.06
351.147	1.24
351.517	1.16
351.887	1.3
352.257	1.26
352.627	1.15
352.997	1.23
353.367	1.35
353.737	1.34
354.106	1.29
354.476	1.3
354.846	1.41
355.216	1.39
355.585	1.5
355.955	1.44
356.324	1.44
356.694	1.42
357.063	1.43
357.433	1.35
357.802	1.43
358.171	1.47
358.541	1.39
358.91	1.51
359.279	1.49
359.648	1.36
360.017	1.5
360.387	1.5
360.756	1.45
361.125	1.61
361.494	1.65
361.863	1.48
362.231	1.46
362.6	1.53
362.969	1.64
363.338	1.42
363.707	1.57
364.075	1.59
364.444	1.37
364.813	1.5
365.181	1.46
365.55	1.43
365.918	1.6
366.287	1.57
366.655	1.62
367.024	1.52
367.392	1.57
367.76	1.47
368.128	1.45
368.497	1.58
368.865	1.45
369.233	1.4
369.601	1.55
369.969	1.63
370.337	1.51
370.705	1.53
371.073	1.47
371.441	1.63
371.809	1.49
372.177	1.48
372.544	1.56
372.912	1.6
373.28	1.42
373.647	1.65
374.015	1.57
374.383	1.74
374.75	1.66
375.118	1.52
375.485	1.59
375.853	1.8
376.22	1.72
376.587	1.59
376.955	1.68
377.322	1.59
377.689	1.51
378.056	1.4
378.423	1.58
378.79	1.56
379.157	1.6
379.524	1.63
379.891	1.43
380.258	1.69
380.625	1.46
380.992	1.53
381.359	1.51
381.726	1.65
382.092	1.52
382.459	1.57
382.826	1.51
383.192	1.6
383.559	1.45
383.925	1.51
384.292	1.52
384.658	1.68
385.025	1.52
385.391	1.81
385.757	1.58
386.123	1.54
386.49	1.48
386.856	1.52
387.222	1.59
387.588	1.61
387.954	1.9
388.32	1.8
388.686	1.48
389.052	1.59
389.418	1.66
389.784	1.45
390.15	1.53
390.515	1.35
390.881	1.67
391.247	1.44
391.613	1.63
391.978	1.43
392.344	1.61
392.709	1.53
393.075	1.68
393.44	1.57
393.806	1.58
394.171	1.43
394.536	1.47
394.902	1.78
395.267	1.54
395.632	1.43
395.997	1.42
396.362	1.5
396.727	1.53
397.092	1.57
397.457	1.54
397.822	1.46
398.187	1.5
398.552	1.63
398.917	1.64
399.282	1.5
399.646	1.51
400.011	1.67
400.376	1.5
400.74	1.48
401.105	1.5
401.47	1.61
401.834	1.53
402.199	1.48
402.563	1.55
402.927	1.48
403.292	1.64
403.656	1.58
404.02	1.68
404.384	1.78
404.749	1.55
405.113	1.57
405.477	1.76
405.841	1.61
406.205	1.64
406.569	1.49
406.933	1.61
407.296	1.56
407.66	1.49
408.024	1.46
408.388	1.68
408.752	1.55
409.115	1.61
409.479	1.65
409.842	1.65
410.206	1.56
410.569	1.59
410.933	1.63
411.296	1.51
411.66	1.49
412.023	1.41
412.386	1.61
412.749	1.49
413.113	1.47
413.476	1.39
413.839	1.45
414.202	1.56
414.565	1.39
414.928	1.5
415.291	1.49
415.654	1.44
416.017	1.59
416.38	1.46
416.742	1.45
417.105	1.43
417.468	1.46
417.83	1.71
418.193	1.48
418.556	1.64
418.918	1.47
419.281	1.59
419.643	1.7
420.005	1.37
420.368	1.52
420.73	1.43
421.092	1.66
421.455	1.55
421.817	1.5
422.179	1.46
422.541	1.51
422.903	1.77
423.265	1.64
423.627	1.44
423.989	1.57
424.351	1.48
424.713	1.45
425.075	1.41
425.436	1.46
425.798	1.49
426.16	1.55
426.521	1.57
426.883	1.55
427.245	1.52
427.606	1.42
427.967	1.43
428.329	1.47
428.69	1.59
429.052	1.41
429.413	1.64
429.774	1.56
430.135	1.6
430.497	1.53
430.858	1.53
431.219	1.57
431.58	1.49
431.941	1.46
432.302	1.49
432.663	1.5
433.024	1.58
433.384	1.67
433.745	1.48
434.106	1.58
434.467	1.55
434.827	1.5
435.188	1.49
435.548	1.66
435.909	1.59
436.269	1.57
436.63	1.58
436.99	1.55
437.351	1.4
437.711	1.73
438.071	1.54
438.431	1.5
438.792	1.52
439.152	1.54
439.512	1.45
439.872	1.47
440.232	1.52
440.592	1.49
440.952	1.54
441.312	1.48
441.671	1.51
442.031	1.54
442.391	1.45
442.751	1.42
443.11	1.51
443.47	1.37
443.83	1.45
444.189	1.38
444.549	1.43
444.908	1.42
445.267	1.39
445.627	1.38
445.986	1.46
446.345	1.38
446.705	1.44
447.064	1.45
447.423	1.42
447.782	1.41
448.141	1.37
448.5	1.34
448.859	1.39
449.218	1.41
449.577	1.39
449.936	1.39
450.295	1.4
450.653	1.37
451.012	1.31
451.371	1.32
451.729	1.35
452.088	1.37
452.447	1.32
452.805	1.32
453.163	1.27
453.522	1.33
453.88	1.28
454.239	1.3
454.597	1.27
454.955	1.22
455.313	1.25
455.671	1.24
456.029	1.21
456.388	1.21
456.746	1.2
457.104	1.19
457.461	1.18
457.819	1.16
458.177	1.17
458.535	1.13
458.893	1.12
459.25	1.09
459.608	1.08
459.966	1.05
460.323	1.04
460.681	1.06
461.038	1.01
461.396	1.01
461.753	0.99
462.111	0.99
462.468	0.96
462.825	0.95
463.182	0.95
463.54	0.9
463.897	0.94
464.254	0.9
464.611	0.89
464.968	0.88
465.325	0.88
465.682	0.85
466.039	0.85
466.395	0.81
466.752	0.82
467.109	0.79
467.466	0.8
467.822	0.78
468.179	0.75
468.535	0.76
468.892	0.73
469.248	0.73
469.605	0.7
469.961	0.7
470.318	0.72
470.674	0.68
471.03	0.67
471.386	0.67
471.743	0.65
472.099	0.65
472.455	0.63
472.811	0.62
473.167	0.61
473.523	0.59
473.879	0.58
474.235	0.57
474.59	0.56
474.946	0.55
475.302	0.55
475.657	0.52
476.013	0.51
476.369	0.5
476.724	0.5
477.08	0.49
477.435	0.47
477.791	0.47
478.146	0.47
478.501	0.46
478.857	0.44
479.212	0.44
479.567	0.43
479.922	0.41
480.277	0.41
480.632	0.4
480.987	0.4
481.342	0.38
481.697	0.37
482.052	0.36
482.407	0.35
482.762	0.35
483.116	0.34
483.471	0.33
483.826	0.33
484.18	0.32
484.535	0.3
484.89	0.3
485.244	0.3
485.598	0.29
485.953	0.29
486.307	0.28
486.661	0.29
487.016	0.27
487.37	0.27
487.724	0.26
488.078	0.26
488.432	0.24
488.786	0.24
489.14	0.24
489.494	0.23
489.848	0.22
490.202	0.22
490.556	0.21
490.91	0.21
491.263	0.2
491.617	0.2
491.971	0.19
492.324	0.19
492.678	0.19
493.031	0.19
493.385	0.19
493.738	0.18
494.091	0.17
494.445	0.17
494.798	0.16
495.151	0.16
495.504	0.16
495.857	0.15
496.21	0.15
496.564	0.14
496.916	0.15
497.269	0.14
497.622	0.14
497.975	0.14
498.328	0.14
498.681	0.13
499.033	0.13
499.386	0.12
499.739	0.12
500.091	0.12
500.444	0.12
500.796	0.11
501.149	0.11
501.501	0.11
501.854	0.11
502.206	0.11
502.558	0.1
502.91	0.1
503.263	0.09
503.615	0.09
503.967	0.1
504.319	0.09
504.671	0.09
505.023	0.09
505.375	0.08
505.726	0.08
506.078	0.08
506.43	0.07
506.782	0.07
507.133	0.07
507.485	0.07
507.837	0.09
508.188	0.08
508.54	0.07
508.891	0.08
509.243	0.07
509.594	0.08
509.945	0.06
510.296	0.07
510.648	0.07
510.999	0.06
511.35	0.05
511.701	0.06
512.052	0.06
512.403	0.06
512.754	0.06
513.105	0.05
513.456	0.05
513.807	0.05
514.157	0.06
514.508	0.05
514.859	0.05
515.209	0.05
515.56	0.06
515.91	0.05
516.261	0.05
516.611	0.05
516.962	0.05
517.312	0.05
517.662	0.05
518.013	0.05
518.363	0.05
518.713	0.04
519.063	0.05
519.413	0.04
519.763	0.05
520.113	0.04
520.463	0.05
520.813	0.04
521.163	0.04
521.512	0.05
521.862	0.04
522.212	0.05
522.562	0.04
522.911	0.04
523.261	0.04
523.61	0.04
523.96	0.04
524.309	0.04
524.658	0.04
525.008	0.04
525.357	0.03
525.706	0.04
526.056	0.04
526.405	0.03
526.754	0.04
527.103	0.03
527.452	0.04
527.801	0.04
528.15	0.04
528.499	0.03
528.847	0.04
529.196	0.04
529.545	0.04
529.893	0.04
530.242	0.04
530.591	0.04
530.939	0.05
531.288	0.04
531.636	0.04
531.985	0.04
532.333	0.04
532.681	0.04
533.029	0.03
533.378	0.04
533.726	0.04
534.074	0.04
534.422	0.03
534.77	0.04
535.118	0.04
535.466	0.03
535.814	0.03
536.162	0.03
536.509	0.04
536.857	0.03
537.205	0.03
537.552	0.04
537.9	0.04
538.248	0.03
538.595	0.04
538.943	0.04
539.29	0.04
539.637	0.03
539.985	0.04
540.332	0.03
540.679	0.03
541.026	0.03
541.373	0.04
541.721	0.03
542.068	0.03
542.415	0.03
542.762	0.03
543.108	0.02
543.455	0.02
543.802	0.02
544.149	0.02
544.496	0.02
544.842	0.02
545.189	0.02
545.535	0.02
545.882	0.02
546.228	0.02
546.575	0.02
546.921	0.01
547.267	0.01
547.614	0.01
547.96	0.02
548.306	0.01
548.652	0.02
548.998	0.02
549.344	0.01
549.69	0.01
550.036	0.02
550.382	0.02
550.728	0.02
551.074	0.02
551.42	0.02
551.765	0.02
552.111	0.03
552.457	0.03
552.802	0.03
553.148	0.02
553.493	0.02
553.839	0.03
554.184	0.03
554.529	0.01
554.875	0.02
555.22	0.03
555.565	0.02
555.91	0.02
556.255	0.04
556.6	0.02
556.945	0.02
557.29	0.03
557.635	0.03
557.98	0.02
558.325	0.02
558.67	0.02
559.014	0.02
559.359	0.02
559.704	0.03
560.048	0.02
560.393	0.02
560.737	0.01
561.082	0.02
561.426	0.01
561.77	0.02
562.115	0.02
562.459	0.01
562.803	0.01
563.147	0.02
563.491	0.01
563.835	0.02
564.179	0.01
564.523	0.02
564.867	0.01
565.211	0.02
565.555	0.02
565.899	0.02
566.242	0.02
566.586	0.01
566.93	0.02
567.273	0.02
567.617	0.01
567.96	0.02
568.304	0.02
568.647	0.02
568.99	0.03
569.334	0.03
569.677	0.02
570.02	0.03
570.363	0.03
570.706	0.02
571.049	0.02
571.392	0.02
571.735	0.01
572.078	0.02
572.421	0.03
572.764	0.02
573.106	0.02
573.449	0.02
573.792	0.02
574.134	0.02
574.477	0.02
574.819	0.01
575.162	0.02
575.504	0.02
575.847	0.02
576.189	0.02
576.531	0.02
576.873	0.02
577.215	0.02
577.558	0.03
577.9	0.02
578.242	0.02
578.584	0.02
578.926	0.02
579.267	0.02
579.609	0.02
579.951	0.02
580.293	0.02
580.634	0.02
580.976	0.03
581.318	0.02
581.659	0.02
582.001	0.03
582.342	0.02
582.683	0.02
583.025	0.01
583.366	0.02
583.707	0.02
584.049	0.02
584.39	0.02
584.731	0.01
585.072	0.01
585.413	0.02
585.754	0.02
586.095	0.02
586.435	0.02
586.776	0.02
587.117	0.01
587.458	0.01
587.798	0.02
588.139	0.02
588.48	0.02
588.82	0.02
589.161	0.02
589.501	0.02
589.841	0.01
590.182	0.02
590.522	0.02
590.862	0.02
591.202	0.02
591.542	0.02
591.882	0.01
592.222	0.02
592.562	0.02
592.902	0.02
593.242	0.01
593.582	0.03
593.922	0.01
594.261	0.01
594.601	0.02
594.941	0.02
595.28	0.02
595.62	0.02
595.959	0.02
596.299	0.02
596.638	0.01
596.977	0.02
597.317	0.02
597.656	0.02
597.995	0.02
598.334	0.03
598.673	0.02
599.012	0.02
599.351	0.02
599.69	0.02
600.029	0.02
600.368	0.02
600.707	0.02
601.046	0.02
601.384	0.02
601.723	0.03
602.061	0.02
602.4	0.02
602.738	0.03
603.077	0.02
603.415	0.02
603.754	0.02
604.092	0.02
604.43	0.02
604.768	0.02
605.107	0.02
605.445	0.02
605.783	0.02
606.121	0.02
606.459	0.02
606.796	0.02
607.134	0.02
607.472	0.02
607.81	0.02
608.148	0.01
608.485	0.02
608.823	0.02
609.16	0.01
609.498	0.02
609.835	0.02
610.173	0.01
610.51	0.02
610.847	0.02
611.185	0.03
611.522	0.03
611.859	0.03
612.196	0.03
612.533	0.03
612.87	0.03
613.207	0.03
613.544	0.03
613.881	0.04
614.217	0.03
614.554	0.03
614.891	0.03
615.228	0.03
615.564	0.03
615.901	0.03
616.237	0.03
616.574	0.02
616.91	0.03
617.246	0.03
617.583	0.04
617.919	0.04
618.255	0.03
618.591	0.03
618.927	0.03
619.263	0.04
619.599	0.04
619.935	0.03
620.271	0.03
620.607	0.04
620.943	0.03
621.279	0.04
621.614	0.03
621.95	0.03
622.286	0.03
622.621	0.03
622.957	0.03
623.292	0.02
623.627	0.02
623.963	0.02
624.298	0.02
624.633	0.02
624.968	0.02
625.304	0.02
625.639	0.02
625.974	0.02
626.309	0.02
626.644	0.02
626.979	0.03
627.313	0.02
627.648	0.03
627.983	0.02
628.318	0.02
628.652	0.01
628.987	0.02
629.321	0.02
629.656	0.01
629.99	0.02
630.325	0.02
630.659	0.02
630.993	0.02
631.327	0.02
631.662	0.01
631.996	0.02
632.33	0.02
632.664	0.02
632.998	0.02
633.332	0.02
633.666	0.02
633.999	0.02
634.333	0.02
634.667	0.01
635.001	0.01
635.334	0.02
635.668	0.02
636.001	0.02
636.335	0.02
636.668	0.02
637.001	0.01
637.335	0.02
637.668	0.01
638.001	0.01
638.334	0.02
638.668	0.01
639.001	0.01
639.334	0.01
639.667	0.01
639.999	0.01
640.332	0.01
640.665	0.01
640.998	0.01
641.331	0.01
641.663	0.01
641.996	0.01
642.328	0.01
642.661	0.02
642.993	0.01
643.326	0.02
643.658	0.02
643.99	0.01
644.323	0.01
644.655	0.01
644.987	0.01
645.319	0.01
645.651	0.01
645.983	0.01
646.315	0.01
646.647	0.01
646.979	0.03
647.31	0.02
647.642	0.01
647.974	0.01
648.305	0.02
648.637	0.02
648.968	0.02
649.3	0.02
649.631	0.02
649.963	0.02
650.294	0.03
650.625	0.02
650.957	0.03
651.288	0.03
651.619	0.02
651.95	0.03
652.281	0.03
652.612	0.03
652.943	0.03
653.274	0.03
653.604	0.03
653.935	0.03
654.266	0.03
654.596	0.03
654.927	0.02
655.258	0.03
655.588	0.03
655.918	0.03
656.249	0.02
656.579	0.03
656.909	0.02
657.24	0.03
657.57	0.03
657.9	0.03
658.23	0.03
658.56	0.03
658.89	0.03
659.22	0.03
659.55	0.03
659.88	0.03
660.209	0.03
660.539	0.05
660.869	0.04
661.198	0.04
661.528	0.03
661.857	0.04
662.187	0.04
662.516	0.04
662.846	0.03
663.175	0.03
663.504	0.03
663.833	0.03
664.163	0.04
664.492	0.03
664.821	0.03
665.15	0.03
665.479	0.03
665.807	0.03
666.136	0.03
666.465	0.03
666.794	0.04
667.122	0.03
667.451	0.02
667.78	0.02
668.108	0.03
668.437	0.03
668.765	0.03
669.093	0.03
669.422	0.03
669.75	0.03
670.078	0.03
670.406	0.03
670.734	0.03
671.062	0.03
671.39	0.02
671.718	0.03
672.046	0.03
672.374	0.02
672.702	0.03
673.029	0.03
673.357	0.03
673.685	0.04
674.012	0.03
674.34	0.03
674.667	0.04
674.995	0.03
675.322	0.04
675.649	0.03
675.977	0.03
676.304	0.03
676.631	0.03
676.958	0.03
677.285	0.03
677.612	0.03
677.939	0.04
678.266	0.04
678.593	0.03
678.92	0.04
679.246	0.03
679.573	0.03
679.9	0.03
680.226	0.04
680.553	0.03
680.879	0.03
681.206	0.03
681.532	0.03
681.858	0.03
682.184	0.03
682.511	0.03
682.837	0.02
683.163	0.03
683.489	0.03
683.815	0.02
684.141	0.03
684.467	0.02
684.793	0.02
685.118	0.03
685.444	0.03
685.77	0.02
686.095	0.03
686.421	0.03
686.746	0.03
687.072	0.03
687.397	0.03
687.723	0.04
688.048	0.04
688.373	0.03
688.698	0.03
689.023	0.03
689.349	0.04
689.674	0.04
689.999	0.04
690.323	0.03
690.648	0.03
690.973	0.02
691.298	0.03
691.623	0.02
691.947	0.03
692.272	0.03
692.596	0.03
692.921	0.03
693.245	0.03
693.57	0.03
693.894	0.04
694.218	0.03
694.543	0.03
694.867	0.03
695.191	0.03
695.515	0.03
695.839	0.02
696.163	0.03
696.487	0.03
696.811	0.02
697.135	0.03
697.458	0.03
697.782	0.02
698.106	0.03
698.429	0.03
698.753	0.02
699.076	0.03
699.4	0.03
699.723	0.03
700.046	0.02
700.37	0.03
700.693	0.04
701.016	0.02
701.339	0.03
701.662	0.04
701.985	0.04
702.308	0.02
702.631	0.03
702.954	0.03
703.277	0.03
703.599	0.03
703.922	0.03
704.245	0.03
704.567	0.02
704.89	0.03
705.212	0.03
705.535	0.02
705.857	0.02
706.179	0.02
706.502	0.02
706.824	0.02
707.146	0.02
707.468	0.02
707.79	0.03
708.112	0.03
708.434	0.03
708.756	0.02
709.078	0.03
709.399	0.03
709.721	0.02
710.043	0.03
710.364	0.02
710.686	0.03
711.007	0.03
711.329	0.04
711.65	0.03
711.972	0.03
712.293	0.03
712.614	0.04
712.935	0.04
713.256	0.03
713.577	0.04
713.898	0.03
714.219	0.03
714.54	0.03
714.861	0.02
715.182	0.03
715.503	0.03
715.823	0.02
716.144	0.02
716.464	0.02
716.785	0.02
717.105	0.02
717.426	0.02
717.746	0.02
718.066	0.02
718.387	0.02
718.707	0.02
719.027	0.02
719.347	0.01
719.667	0.03
719.987	0.02
720.307	0.01
720.627	0.02
720.947	0.02
721.266	0.02
721.586	0.02
721.906	0.02
722.225	0.01
722.545	0.02
722.864	0.02
723.184	0.02
723.503	0.02
723.823	0.02
724.142	0.01
724.461	0.02
724.78	0.01
725.099	0.02
725.418	0.02
725.737	0.02
726.056	0.02
726.375	0.02
726.694	0.02
727.013	0.02
727.331	0.02
727.65	0.02
727.969	0.02
728.287	0.03
728.606	0.02
728.924	0.02
729.242	0.02
729.561	0.03
729.879	0.02
730.197	0.02
730.515	0.02
730.834	0.02
731.152	0.02
731.47	0.02
731.788	0.02
732.105	0.02
732.423	0.02
732.741	0.02
733.059	0.02
733.376	0.03
733.694	0.02
734.012	0.02
734.329	0.03
734.647	0.02
734.964	0.02
735.281	0.02
735.599	0.02
735.916	0.03
736.233	0.02
736.55	0.02
736.867	0.03
737.184	0.03
737.501	0.02
737.818	0.02
738.135	0.03
738.452	0.03
738.768	0.02
739.085	0.02
739.402	0.02
739.718	0.03
740.035	0.03
740.351	0.03
740.668	0.03
740.984	0.03
741.3	0.03
741.617	0.03
741.933	0.03
742.249	0.03
742.565	0.03
742.881	0.03
743.197	0.03
743.513	0.03
743.829	0.02
744.144	0.02
744.46	0.03
744.776	0.02
745.091	0.02
745.407	0.02
745.722	0.02
746.038	0.02
746.353	0.02
746.669	0.02
746.984	0.02
747.299	0.02
747.614	0.03
747.93	0.03
748.245	0.02
748.56	0.03
748.875	0.02
749.189	0.02
749.504	0.03
749.819	0.03
750.134	0.03
750.448	0.03
750.763	0.03
751.078	0.02
751.392	0.03
751.707	0.04
752.021	0.03
752.335	0.04
752.65	0.04
752.964	0.03
753.278	0.03
753.592	0.03
753.906	0.02
754.22	0.03
754.534	0.03
754.848	0.03
755.162	0.03
755.476	0.03
755.789	0.03
756.103	0.02
756.417	0.03
756.73	0.04
757.044	0.03
757.357	0.03
757.671	0.04
757.984	0.03
758.297	0.03
758.61	0.04
758.924	0.03
759.237	0.03
759.55	0.03
759.863	0.03
760.176	0.04
760.488	0.03
760.801	0.03
761.114	0.03
761.427	0.03
761.739	0.03
762.052	0.03
762.365	0.03
762.677	0.03
762.99	0.02
763.302	0.03
763.614	0.03
763.926	0.03
764.239	0.02
764.551	0.02
764.863	0.03
765.175	0.03
765.487	0.03
765.799	0.02
766.111	0.02
766.423	0.03
766.734	0.02
767.046	0.03
767.358	0.03
767.669	0.03
767.981	0.03
768.292	0.03
768.604	0.03
768.915	0.03
769.226	0.03
769.537	0.02
769.849	0.03
770.16	0.03
770.471	0.02
770.782	0.03
771.093	0.02
771.404	0.02
771.715	0.02
772.025	0.02
772.336	0.02
772.647	0.01
772.957	0.02
773.268	0.02
773.578	0.02
773.889	0.03
774.199	0.03
774.51	0.03
774.82	0.02
775.13	0.03
775.44	0.02
775.75	0.03
776.06	0.02
776.37	0.02
776.68	0.03
776.99	0.03
777.3	0.02
777.61	0.04
777.92	0.03
778.229	0.03
778.539	0.03
778.848	0.02
779.158	0.02
779.467	0.03
779.777	0.03
780.086	0.03
780.395	0.03
780.704	0.02
781.013	0.02
781.323	0.02
781.632	0.03
781.941	0.03
782.249	0.03
782.558	0.02
782.867	0.03
783.176	0.02
783.485	0.02
783.793	0.03
784.102	0.02
784.41	0.03
784.719	0.02
785.027	0.02
785.335	0.02
785.644	0.03
785.952	0.02
786.26	0.03
786.568	0.02
786.876	0.02
787.184	0.03
787.492	0.03
787.8	0.02
788.108	0.03
788.416	0.02
788.723	0.03
789.031	0.02
789.338	0.02
789.646	0.03
789.953	0.02
790.261	0.03
790.568	0.02
790.876	0.03
791.183	0.03
791.49	0.03
791.797	0.03
792.104	0.02
792.411	0.03
792.718	0.03
793.025	0.03
793.332	0.03
793.639	0.04
793.945	0.04
794.252	0.03
794.559	0.04
794.865	0.04
795.172	0.04
795.478	0.03
795.784	0.04
796.091	0.05
796.397	0.04
796.703	0.05
797.009	0.05
797.315	0.04
797.622	0.04
797.927	0.04
798.233	0.03
798.539	0.04
798.845	0.04
799.151	0.04
799.456	0.04
799.762	0.03
800.068	0.04
800.373	0.04
800.679	0.03
800.984	0.04
801.289	0.04
801.595	0.03
801.9	0.04
802.205	0.03
802.51	0.03
802.815	0.04
803.12	0.03
803.425	0.04
803.73	0.04
804.035	0.03
804.339	0.03
804.644	0.04
804.949	0.04
805.253	0.04
805.558	0.04
805.862	0.03
806.167	0.03
806.471	0.03
806.775	0.03
807.08	0.03
807.384	0.03
807.688	0.03
807.992	0.03
808.296	0.04
808.6	0.04
808.904	0.05
809.207	0.04
809.511	0.05
809.815	0.05
810.119	0.04
810.422	0.05
810.726	0.05
811.029	0.05
811.332	0.05
811.636	0.05
811.939	0.04
812.242	0.05
812.546	0.04
812.849	0.04
813.152	0.05
813.455	0.04
813.758	0.05
814.06	0.05
814.363	0.05
814.666	0.05
814.969	0.05
815.271	0.05
815.574	0.04
815.877	0.04
816.179	0.04
816.481	0.04
816.784	0.04
817.086	0.04
817.388	0.03
817.69	0.03
817.993	0.03
818.295	0.03
818.597	0.04
818.899	0.03
819.2	0.03
819.502	0.03
819.804	0.03
820.106	0.03
820.407	0.02
820.709	0.04
821.01	0.03
821.312	0.04
821.613	0.02
821.915	0.03
822.216	0.03
822.517	0.03
822.818	0.03
823.119	0.03
823.42	0.04
823.721	0.02
824.022	0.02
824.323	0.03
824.624	0.02
824.925	0.04
825.226	0.03
825.526	0.03
825.827	0.03
826.127	0.03
826.428	0.03
826.728	0.02
827.028	0.03
827.329	0.03
827.629	0.02
827.929	0.02
828.229	0.03
828.529	0.03
828.829	0.02
829.129	0.03
829.429	0.03
829.729	0.02
830.029	0.02
830.328	0.02
830.628	0.02
830.927	0.01
831.227	0.02
831.526	0.02
831.826	0.02
832.125	0.02
832.424	0.01
832.724	0.01
833.023	0.01
833.322	0.02
833.621	0.02
833.92	0.01
834.219	0.01
834.518	0.02
834.816	0
835.115	0.01
835.414	0.01
835.712	0.01
836.011	0.01
836.309	0.01
836.608	0
836.906	0
837.205	-0.01
837.503	0
837.801	0
838.099	-0.01
838.397	-0.01
838.695	-0.01
838.993	-0
839.291	-0.01
839.589	-0
839.887	-0.01
840.184	-0.01
840.482	-0.02
840.78	-0.01
841.077	-0.02
841.375	-0.01
841.672	-0.02
841.969	-0.02
842.267	-0.02
842.564	-0.02
842.861	-0.01
843.158	-0.03
843.455	-0.04
843.752	-0.03
844.049	-0.04
844.346	-0.03
844.643	-0.05
844.94	-0.04
845.236	-0.03
845.533	-0.04
845.83	-0.04
846.126	-0.05
846.423	-0.04
846.719	-0.05
847.015	-0.05
847.312	-0.06
847.608	-0.06
847.904	-0.06
848.2	-0.05
848.496	-0.06
848.792	-0.05
849.088	-0.05
849.384	-0.06
849.68	-0.06
849.975	-0.06
850.271	-0.07
850.567	-0.07
850.862	-0.07
851.158	-0.07
851.453	-0.07
851.748	-0.08
852.044	-0.07
852.339	-0.07
852.634	-0.09
852.929	-0.07
853.224	-0.08
853.519	-0.08
853.814	-0.08
854.109	-0.08
854.404	-0.09
854.699	-0.08
854.994	-0.07
855.288	-0.08
855.583	-0.07
855.877	-0.08
856.172	-0.08
856.466	-0.08
856.76	-0.08
857.055	-0.09
857.349	-0.09
857.643	-0.1
857.937	-0.1
858.231	-0.1
858.525	-0.1
858.819	-0.1
859.113	-0.12
859.407	-0.11
859.701	-0.12
859.994	-0.11
860.288	-0.1
860.581	-0.11
860.875	-0.11
861.168	-0.11
861.462	-0.11
861.755	-0.11
862.048	-0.12
862.341	-0.11
862.634	-0.12
862.928	-0.1
863.221	-0.12
863.513	-0.13
863.806	-0.12
864.099	-0.13
864.392	-0.12
864.685	-0.12
864.977	-0.12
865.27	-0.13
865.562	-0.12
865.855	-0.13
866.147	-0.12
866.44	-0.12
866.732	-0.13
867.024	-0.12
867.316	-0.13
867.608	-0.13
867.9	-0.14
868.192	-0.13
868.484	-0.14
868.776	-0.14
869.068	-0.14
869.359	-0.14
869.651	-0.15
869.943	-0.16
870.234	-0.15
870.526	-0.16
870.817	-0.16
871.108	-0.14
871.4	-0.15
871.691	-0.16
871.982	-0.17
872.273	-0.17
872.564	-0.17
872.855	-0.16
873.146	-0.18
873.437	-0.17
873.728	-0.17
874.019	-0.17
874.309	-0.18
874.6	-0.17
874.89	-0.17
875.181	-0.17
875.471	-0.17
875.762	-0.17
876.052	-0.17
876.342	-0.16
876.632	-0.19
876.922	-0.18
877.213	-0.17
877.503	-0.18
877.792	-0.17
878.082	-0.18
878.372	-0.17
878.662	-0.19
878.952	-0.18
879.241	-0.18
879.531	-0.17
879.82	-0.17
880.11	-0.18
880.399	-0.17
880.688	-0.17
880.978	-0.17
881.267	-0.17
