Data from 12-12-AQDScycling_Absorbance__371__00371.txt Node

Date: Tue Dec 12 12:29:29 EST 2023
User: kyuminlee
Spectrometer: FLMS00943
Trigger mode: 0
Integration Time (sec): 1.000000E-1
Scans to average: 1
Electric dark correction enabled: true
Nonlinearity correction enabled: false
Boxcar width: 0
XAxis mode: Wavelengths
Number of Pixels in Spectrum: 2048
>>>>>Begin Spectral Data<<<<<
179.651	-0
180.037	-0
180.424	-0
180.81	-0.44
181.197	0.18
181.583	-0.56
181.97	-0.44
182.356	-0
182.743	0.88
183.129	-0
183.515	0.35
183.901	-0
184.288	-0
184.674	-0
185.06	-0.63
185.446	-0
185.832	-0
186.218	0.25
186.604	-0
186.99	-0
187.376	-0
187.762	0.65
188.148	0.27
188.534	0.19
188.92	0
189.305	0.11
189.691	0.17
190.077	0.17
190.463	0.1
190.848	0
191.234	0.01
191.619	0.01
192.005	0.13
192.391	0.02
192.776	0.2
193.161	0.06
193.547	0.19
193.932	0.03
194.318	0.12
194.703	0.02
195.088	0.17
195.473	0.17
195.859	0.25
196.244	0.16
196.629	-0.05
197.014	0.02
197.399	0.11
197.784	0.09
198.169	0.09
198.554	0.13
198.939	0.11
199.324	0.04
199.709	0.09
200.094	0.04
200.478	-0.03
200.863	0.25
201.248	0.11
201.633	0.05
202.017	0.18
202.402	0.14
202.787	0.15
203.171	0.26
203.556	0.24
203.94	0.05
204.325	0.18
204.709	0.24
205.093	0.22
205.478	0.06
205.862	0.08
206.246	0.16
206.631	0.14
207.015	0.06
207.399	0.09
207.783	0.17
208.167	0.13
208.551	0.28
208.935	0.07
209.319	0.19
209.703	0.07
210.087	0.24
210.471	0.06
210.855	0.08
211.239	0.32
211.623	0.29
212.007	0.22
212.39	0.19
212.774	0.21
213.158	0.08
213.541	0.26
213.925	0.2
214.309	0.34
214.692	0.21
215.076	0.17
215.459	0.09
215.842	0.22
216.226	0.2
216.609	0.27
216.993	0.19
217.376	0.37
217.759	0.22
218.142	0.29
218.525	0.55
218.909	0.18
219.292	0.32
219.675	0.54
220.058	0.46
220.441	0.47
220.824	0.51
221.207	0.55
221.59	0.55
221.973	0.7
222.355	0.55
222.738	0.61
223.121	0.6
223.504	0.52
223.886	0.7
224.269	0.77
224.652	0.62
225.034	0.72
225.417	0.69
225.799	0.75
226.182	0.74
226.564	0.95
226.947	0.77
227.329	0.86
227.711	0.96
228.094	1.02
228.476	0.93
228.858	0.81
229.24	0.87
229.623	0.94
230.005	0.86
230.387	0.88
230.769	0.84
231.151	1.03
231.533	0.96
231.915	0.96
232.297	0.97
232.679	1.09
233.061	1.02
233.442	0.93
233.824	0.96
234.206	1.04
234.588	1.05
234.969	1.13
235.351	0.99
235.733	0.99
236.114	1.07
236.496	1.05
236.877	1.08
237.259	0.94
237.64	0.97
238.022	1.09
238.403	1.08
238.784	1
239.165	1.04
239.547	1.13
239.928	1.2
240.309	1.16
240.69	1.1
241.071	1.11
241.452	1.27
241.834	0.98
242.215	0.99
242.595	1.06
242.976	1.19
243.357	1.26
243.738	1.15
244.119	1.28
244.5	1.09
244.881	1.24
245.261	1.3
245.642	1.12
246.023	1.24
246.403	1.24
246.784	1.28
247.164	1.28
247.545	1.36
247.925	1.43
248.306	1.21
248.686	1.39
249.067	1.32
249.447	1.23
249.827	1.54
250.207	1.39
250.588	1.36
250.968	1.44
251.348	1.36
251.728	1.4
252.108	1.35
252.488	1.37
252.868	1.43
253.248	1.29
253.628	1.4
254.008	1.55
254.388	1.32
254.768	1.29
255.147	1.37
255.527	1.48
255.907	1.28
256.287	1.29
256.666	1.36
257.046	1.48
257.425	1.78
257.805	1.39
258.184	1.35
258.564	1.42
258.943	1.47
259.323	1.41
259.702	1.47
260.081	1.39
260.461	1.61
260.84	1.48
261.219	1.86
261.598	1.48
261.977	1.5
262.356	1.51
262.736	1.51
263.115	1.62
263.494	1.38
263.873	1.3
264.251	1.41
264.63	1.4
265.009	1.42
265.388	1.46
265.767	1.3
266.145	1.36
266.524	1.46
266.903	1.39
267.281	1.35
267.66	1.43
268.039	1.52
268.417	1.4
268.796	1.38
269.174	1.35
269.552	1.32
269.931	1.41
270.309	1.41
270.687	1.47
271.066	1.67
271.444	1.32
271.822	1.36
272.2	1.53
272.578	1.54
272.956	1.55
273.334	1.37
273.712	1.41
274.09	1.5
274.468	1.38
274.846	1.29
275.224	1.46
275.602	1.39
275.98	1.75
276.357	1.42
276.735	1.47
277.113	1.35
277.49	1.31
277.868	1.38
278.246	1.52
278.623	1.27
279.001	1.32
279.378	1.38
279.756	1.36
280.133	1.51
280.51	1.35
280.888	1.34
281.265	1.49
281.642	1.43
282.019	1.58
282.396	1.44
282.773	1.42
283.151	1.62
283.528	1.38
283.905	1.45
284.282	1.58
284.659	1.49
285.035	1.27
285.412	1.25
285.789	1.41
286.166	1.45
286.543	1.55
286.919	1.55
287.296	1.38
287.673	1.57
288.049	1.45
288.426	1.56
288.802	1.39
289.179	1.43
289.555	1.64
289.932	1.45
290.308	1.28
290.684	1.38
291.061	1.4
291.437	1.34
291.813	1.4
292.189	1.29
292.565	1.29
292.942	1.37
293.318	1.38
293.694	1.57
294.07	1.31
294.446	1.31
294.822	1.59
295.197	1.43
295.573	1.35
295.949	1.44
296.325	1.46
296.701	1.38
297.076	1.51
297.452	1.53
297.828	1.35
298.203	1.4
298.579	1.34
298.954	1.26
299.33	1.33
299.705	1.34
300.081	1.28
300.456	1.35
300.831	1.19
301.206	1.26
301.582	1.27
301.957	1.25
302.332	1.29
302.707	1.12
303.082	1.12
303.457	1.18
303.832	1.14
304.207	1.09
304.582	1.06
304.957	1.06
305.332	1.04
305.707	1.06
306.082	0.98
306.456	1.02
306.831	0.95
307.206	0.94
307.58	0.96
307.955	0.89
308.33	0.89
308.704	0.9
309.079	0.83
309.453	0.86
309.828	0.85
310.202	0.83
310.576	0.78
310.951	0.82
311.325	0.8
311.699	0.76
312.073	0.73
312.447	0.77
312.821	0.73
313.196	0.75
313.57	0.71
313.944	0.68
314.317	0.67
314.691	0.73
315.065	0.71
315.439	0.67
315.813	0.66
316.187	0.67
316.56	0.68
316.934	0.66
317.308	0.65
317.681	0.61
318.055	0.64
318.428	0.62
318.802	0.62
319.175	0.61
319.549	0.6
319.922	0.62
320.295	0.58
320.669	0.65
321.042	0.62
321.415	0.61
321.788	0.58
322.162	0.56
322.535	0.62
322.908	0.56
323.281	0.57
323.654	0.6
324.027	0.57
324.4	0.58
324.773	0.58
325.145	0.58
325.518	0.57
325.891	0.59
326.264	0.58
326.636	0.57
327.009	0.58
327.382	0.58
327.754	0.59
328.127	0.59
328.499	0.59
328.872	0.61
329.244	0.57
329.616	0.59
329.989	0.59
330.361	0.63
330.733	0.63
331.106	0.61
331.478	0.65
331.85	0.63
332.222	0.62
332.594	0.66
332.966	0.64
333.338	0.69
333.71	0.68
334.082	0.71
334.454	0.68
334.826	0.69
335.197	0.7
335.569	0.7
335.941	0.7
336.312	0.7
336.684	0.73
337.056	0.75
337.427	0.77
337.799	0.77
338.17	0.77
338.542	0.79
338.913	0.79
339.284	0.81
339.656	0.79
340.027	0.86
340.398	0.87
340.769	0.85
341.141	0.93
341.512	0.9
341.883	0.88
342.254	0.89
342.625	0.93
342.996	0.87
343.367	0.9
343.738	0.94
344.108	0.91
344.479	0.99
344.85	0.95
345.221	1.04
345.591	0.96
345.962	1.02
346.333	1.02
346.703	0.99
347.074	0.99
347.444	1.01
347.815	1.13
348.185	1.12
348.556	1.08
348.926	1.06
349.296	1.1
349.666	1.06
350.037	1.06
350.407	1.18
350.777	1.15
351.147	1.22
351.517	1.13
351.887	1.19
352.257	1.29
352.627	1.23
352.997	1.19
353.367	1.27
353.737	1.35
354.106	1.32
354.476	1.27
354.846	1.37
355.216	1.38
355.585	1.5
355.955	1.44
356.324	1.4
356.694	1.4
357.063	1.38
357.433	1.43
357.802	1.51
358.171	1.46
358.541	1.48
358.91	1.45
359.279	1.49
359.648	1.49
360.017	1.54
360.387	1.5
360.756	1.45
361.125	1.48
361.494	1.6
361.863	1.48
362.231	1.48
362.6	1.51
362.969	1.63
363.338	1.42
363.707	1.51
364.075	1.63
364.444	1.45
364.813	1.46
365.181	1.5
365.55	1.44
365.918	1.65
366.287	1.55
366.655	1.52
367.024	1.72
367.392	1.51
367.76	1.51
368.128	1.61
368.497	1.56
368.865	1.46
369.233	1.47
369.601	1.59
369.969	1.59
370.337	1.51
370.705	1.59
371.073	1.58
371.441	1.64
371.809	1.56
372.177	1.5
372.544	1.48
372.912	1.7
373.28	1.58
373.647	1.68
374.015	1.6
374.383	1.71
374.75	1.59
375.118	1.57
375.485	1.81
375.853	1.66
376.22	1.7
376.587	1.61
376.955	1.61
377.322	1.76
377.689	1.48
378.056	1.48
378.423	1.36
378.79	1.67
379.157	1.58
379.524	1.61
379.891	1.54
380.258	1.62
380.625	1.64
380.992	1.54
381.359	1.59
381.726	1.6
382.092	1.44
382.459	1.53
382.826	1.51
383.192	1.55
383.559	1.54
383.925	1.49
384.292	1.48
384.658	1.59
385.025	1.49
385.391	1.69
385.757	1.54
386.123	1.46
386.49	1.7
386.856	1.47
387.222	1.59
387.588	1.61
387.954	1.76
388.32	1.64
388.686	1.62
389.052	1.49
389.418	1.55
389.784	1.54
390.15	1.58
390.515	1.47
390.881	1.66
391.247	1.4
391.613	1.79
391.978	1.5
392.344	1.73
392.709	1.52
393.075	1.59
393.44	1.56
393.806	1.58
394.171	1.46
394.536	1.64
394.902	1.49
395.267	1.45
395.632	1.49
395.997	1.46
396.362	1.49
396.727	1.63
397.092	1.51
397.457	1.59
397.822	1.54
398.187	1.44
398.552	1.51
398.917	1.58
399.282	1.51
399.646	1.59
400.011	1.66
400.376	1.46
400.74	1.54
401.105	1.41
401.47	1.61
401.834	1.51
402.199	1.58
402.563	1.5
402.927	1.48
403.292	1.71
403.656	1.61
404.02	1.61
404.384	1.61
404.749	1.54
405.113	1.6
405.477	1.77
405.841	1.75
406.205	1.56
406.569	1.62
406.933	1.5
407.296	1.49
407.66	1.59
408.024	1.48
408.388	1.61
408.752	1.63
409.115	1.7
409.479	1.64
409.842	1.45
410.206	1.43
410.569	1.56
410.933	1.5
411.296	1.47
411.66	1.66
412.023	1.42
412.386	1.53
412.749	1.43
413.113	1.62
413.476	1.55
413.839	1.65
414.202	1.48
414.565	1.52
414.928	1.52
415.291	1.41
415.654	1.51
416.017	1.71
416.38	1.45
416.742	1.5
417.105	1.39
417.468	1.4
417.83	1.56
418.193	1.77
418.556	1.39
418.918	1.39
419.281	1.56
419.643	1.58
420.005	1.55
420.368	1.5
420.73	1.43
421.092	1.57
421.455	1.53
421.817	1.45
422.179	1.43
422.541	1.53
422.903	1.9
423.265	1.5
423.627	1.52
423.989	1.43
424.351	1.39
424.713	1.53
425.075	1.44
425.436	1.47
425.798	1.43
426.16	1.48
426.521	1.52
426.883	1.68
427.245	1.47
427.606	1.48
427.967	1.48
428.329	1.44
428.69	1.65
429.052	1.39
429.413	1.51
429.774	1.63
430.135	1.59
430.497	1.6
430.858	1.56
431.219	1.64
431.58	1.54
431.941	1.53
432.302	1.48
432.663	1.54
433.024	1.81
433.384	1.68
433.745	1.5
434.106	1.67
434.467	1.48
434.827	1.49
435.188	1.55
435.548	1.68
435.909	1.47
436.269	1.68
436.63	1.56
436.99	1.64
437.351	1.48
437.711	1.55
438.071	1.47
438.431	1.52
438.792	1.58
439.152	1.54
439.512	1.51
439.872	1.47
440.232	1.51
440.592	1.48
440.952	1.53
441.312	1.44
441.671	1.51
442.031	1.5
442.391	1.55
442.751	1.49
443.11	1.49
443.47	1.4
443.83	1.39
444.189	1.41
444.549	1.41
444.908	1.39
445.267	1.46
445.627	1.37
445.986	1.4
446.345	1.39
446.705	1.45
447.064	1.44
447.423	1.47
447.782	1.35
448.141	1.37
448.5	1.37
448.859	1.34
449.218	1.4
449.577	1.41
449.936	1.35
450.295	1.37
450.653	1.33
451.012	1.34
451.371	1.33
451.729	1.35
452.088	1.34
452.447	1.35
452.805	1.3
453.163	1.29
453.522	1.29
453.88	1.32
454.239	1.24
454.597	1.21
454.955	1.22
455.313	1.26
455.671	1.23
456.029	1.23
456.388	1.18
456.746	1.16
457.104	1.17
457.461	1.16
457.819	1.14
458.177	1.12
458.535	1.12
458.893	1.1
459.25	1.1
459.608	1.08
459.966	1.05
460.323	1.07
460.681	1.03
461.038	1.03
461.396	0.99
461.753	0.98
462.111	0.99
462.468	0.95
462.825	0.94
463.182	0.94
463.54	0.92
463.897	0.91
464.254	0.9
464.611	0.89
464.968	0.87
465.325	0.87
465.682	0.85
466.039	0.83
466.395	0.82
466.752	0.81
467.109	0.8
467.466	0.79
467.822	0.77
468.179	0.74
468.535	0.75
468.892	0.73
469.248	0.71
469.605	0.7
469.961	0.7
470.318	0.7
470.674	0.68
471.03	0.66
471.386	0.66
471.743	0.64
472.099	0.62
472.455	0.62
472.811	0.6
473.167	0.59
473.523	0.57
473.879	0.57
474.235	0.55
474.59	0.55
474.946	0.53
475.302	0.52
475.657	0.51
476.013	0.5
476.369	0.49
476.724	0.5
477.08	0.48
477.435	0.47
477.791	0.45
478.146	0.45
478.501	0.45
478.857	0.44
479.212	0.43
479.567	0.42
479.922	0.41
480.277	0.4
480.632	0.39
480.987	0.39
481.342	0.38
481.697	0.36
482.052	0.35
482.407	0.35
482.762	0.34
483.116	0.33
483.471	0.33
483.826	0.31
484.18	0.31
484.535	0.3
484.89	0.3
485.244	0.29
485.598	0.29
485.953	0.28
486.307	0.28
486.661	0.28
487.016	0.26
487.37	0.26
487.724	0.25
488.078	0.25
488.432	0.24
488.786	0.24
489.14	0.23
489.494	0.22
489.848	0.22
490.202	0.22
490.556	0.21
490.91	0.21
491.263	0.2
491.617	0.19
491.971	0.19
492.324	0.19
492.678	0.18
493.031	0.18
493.385	0.18
493.738	0.17
494.091	0.17
494.445	0.17
494.798	0.16
495.151	0.16
495.504	0.15
495.857	0.15
496.21	0.15
496.564	0.14
496.916	0.15
497.269	0.13
497.622	0.13
497.975	0.13
498.328	0.13
498.681	0.13
499.033	0.13
499.386	0.12
499.739	0.12
500.091	0.11
500.444	0.11
500.796	0.11
501.149	0.11
501.501	0.1
501.854	0.1
502.206	0.1
502.558	0.1
502.91	0.11
503.263	0.09
503.615	0.09
503.967	0.09
504.319	0.09
504.671	0.09
505.023	0.08
505.375	0.08
505.726	0.08
506.078	0.08
506.43	0.07
506.782	0.08
507.133	0.08
507.485	0.07
507.837	0.08
508.188	0.08
508.54	0.07
508.891	0.07
509.243	0.07
509.594	0.07
509.945	0.07
510.296	0.07
510.648	0.07
510.999	0.07
511.35	0.06
511.701	0.06
512.052	0.07
512.403	0.06
512.754	0.06
513.105	0.06
513.456	0.05
513.807	0.05
514.157	0.06
514.508	0.05
514.859	0.06
515.209	0.06
515.56	0.06
515.91	0.05
516.261	0.06
516.611	0.05
516.962	0.05
517.312	0.05
517.662	0.05
518.013	0.05
518.363	0.05
518.713	0.05
519.063	0.06
519.413	0.06
519.763	0.04
520.113	0.05
520.463	0.05
520.813	0.05
521.163	0.05
521.512	0.05
521.862	0.05
522.212	0.05
522.562	0.05
522.911	0.04
523.261	0.04
523.61	0.04
523.96	0.05
524.309	0.05
524.658	0.04
525.008	0.04
525.357	0.04
525.706	0.05
526.056	0.04
526.405	0.04
526.754	0.04
527.103	0.04
527.452	0.04
527.801	0.05
528.15	0.04
528.499	0.04
528.847	0.04
529.196	0.04
529.545	0.05
529.893	0.05
530.242	0.04
530.591	0.04
530.939	0.05
531.288	0.05
531.636	0.05
531.985	0.04
532.333	0.04
532.681	0.05
533.029	0.04
533.378	0.05
533.726	0.04
534.074	0.04
534.422	0.04
534.77	0.05
535.118	0.04
535.466	0.04
535.814	0.04
536.162	0.05
536.509	0.04
536.857	0.04
537.205	0.05
537.552	0.04
537.9	0.04
538.248	0.04
538.595	0.04
538.943	0.05
539.29	0.04
539.637	0.04
539.985	0.04
540.332	0.04
540.679	0.04
541.026	0.03
541.373	0.04
541.721	0.03
542.068	0.03
542.415	0.04
542.762	0.03
543.108	0.03
543.455	0.03
543.802	0.03
544.149	0.02
544.496	0.03
544.842	0.03
545.189	0.02
545.535	0.02
545.882	0.03
546.228	0.03
546.575	0.03
546.921	0.03
547.267	0.03
547.614	0.03
547.96	0.03
548.306	0.02
548.652	0.03
548.998	0.04
549.344	0.02
549.69	0.02
550.036	0.02
550.382	0.02
550.728	0.04
551.074	0.03
551.42	0.03
551.765	0.03
552.111	0.03
552.457	0.04
552.802	0.04
553.148	0.03
553.493	0.03
553.839	0.03
554.184	0.04
554.529	0.02
554.875	0.04
555.22	0.04
555.565	0.04
555.91	0.03
556.255	0.04
556.6	0.04
556.945	0.03
557.29	0.03
557.635	0.03
557.98	0.03
558.325	0.03
558.67	0.03
559.014	0.03
559.359	0.03
559.704	0.03
560.048	0.03
560.393	0.03
560.737	0.03
561.082	0.04
561.426	0.03
561.77	0.03
562.115	0.02
562.459	0.03
562.803	0.03
563.147	0.03
563.491	0.02
563.835	0.03
564.179	0.03
564.523	0.03
564.867	0.02
565.211	0.02
565.555	0.03
565.899	0.03
566.242	0.03
566.586	0.03
566.93	0.03
567.273	0.04
567.617	0.03
567.96	0.03
568.304	0.04
568.647	0.03
568.99	0.03
569.334	0.04
569.677	0.03
570.02	0.04
570.363	0.04
570.706	0.03
571.049	0.04
571.392	0.03
571.735	0.03
572.078	0.02
572.421	0.04
572.764	0.03
573.106	0.03
573.449	0.03
573.792	0.03
574.134	0.03
574.477	0.03
574.819	0.03
575.162	0.03
575.504	0.02
575.847	0.03
576.189	0.03
576.531	0.03
576.873	0.03
577.215	0.03
577.558	0.03
577.9	0.03
578.242	0.03
578.584	0.03
578.926	0.03
579.267	0.03
579.609	0.03
579.951	0.03
580.293	0.03
580.634	0.03
580.976	0.03
581.318	0.03
581.659	0.03
582.001	0.04
582.342	0.03
582.683	0.03
583.025	0.02
583.366	0.02
583.707	0.02
584.049	0.03
584.39	0.03
584.731	0.03
585.072	0.02
585.413	0.03
585.754	0.03
586.095	0.03
586.435	0.03
586.776	0.03
587.117	0.03
587.458	0.02
587.798	0.03
588.139	0.03
588.48	0.02
588.82	0.03
589.161	0.03
589.501	0.02
589.841	0.03
590.182	0.02
590.522	0.02
590.862	0.03
591.202	0.02
591.542	0.02
591.882	0.02
592.222	0.03
592.562	0.03
592.902	0.02
593.242	0.02
593.582	0.04
593.922	0.03
594.261	0.02
594.601	0.03
594.941	0.03
595.28	0.03
595.62	0.03
595.959	0.03
596.299	0.03
596.638	0.03
596.977	0.03
597.317	0.03
597.656	0.03
597.995	0.03
598.334	0.04
598.673	0.03
599.012	0.03
599.351	0.03
599.69	0.03
600.029	0.03
600.368	0.03
600.707	0.03
601.046	0.03
601.384	0.03
601.723	0.03
602.061	0.03
602.4	0.03
602.738	0.03
603.077	0.03
603.415	0.02
603.754	0.03
604.092	0.03
604.43	0.03
604.768	0.03
605.107	0.03
605.445	0.02
605.783	0.03
606.121	0.02
606.459	0.03
606.796	0.03
607.134	0.03
607.472	0.03
607.81	0.03
608.148	0.02
608.485	0.03
608.823	0.03
609.16	0.03
609.498	0.03
609.835	0.03
610.173	0.02
610.51	0.03
610.847	0.03
611.185	0.03
611.522	0.03
611.859	0.04
612.196	0.04
612.533	0.04
612.87	0.04
613.207	0.05
613.544	0.04
613.881	0.05
614.217	0.04
614.554	0.04
614.891	0.04
615.228	0.04
615.564	0.04
615.901	0.04
616.237	0.04
616.574	0.03
616.91	0.04
617.246	0.04
617.583	0.05
617.919	0.04
618.255	0.05
618.591	0.05
618.927	0.04
619.263	0.05
619.599	0.05
619.935	0.04
620.271	0.05
620.607	0.04
620.943	0.04
621.279	0.04
621.614	0.04
621.95	0.05
622.286	0.04
622.621	0.03
622.957	0.04
623.292	0.03
623.627	0.03
623.963	0.03
624.298	0.04
624.633	0.02
624.968	0.03
625.304	0.04
625.639	0.03
625.974	0.03
626.309	0.02
626.644	0.04
626.979	0.04
627.313	0.03
627.648	0.03
627.983	0.03
628.318	0.03
628.652	0.02
628.987	0.03
629.321	0.03
629.656	0.03
629.99	0.02
630.325	0.03
630.659	0.03
630.993	0.03
631.327	0.04
631.662	0.02
631.996	0.03
632.33	0.03
632.664	0.03
632.998	0.03
633.332	0.03
633.666	0.03
633.999	0.03
634.333	0.02
634.667	0.03
635.001	0.03
635.334	0.02
635.668	0.03
636.001	0.03
636.335	0.03
636.668	0.02
637.001	0.02
637.335	0.02
637.668	0.03
638.001	0.03
638.334	0.02
638.668	0.02
639.001	0.02
639.334	0.02
639.667	0.02
639.999	0.02
640.332	0.02
640.665	0.02
640.998	0.02
641.331	0.02
641.663	0.02
641.996	0.02
642.328	0.02
642.661	0.02
642.993	0.02
643.326	0.02
643.658	0.02
643.99	0.02
644.323	0.02
644.655	0.02
644.987	0.02
645.319	0.02
645.651	0.02
645.983	0.02
646.315	0.02
646.647	0.03
646.979	0.03
647.31	0.03
647.642	0.03
647.974	0.02
648.305	0.03
648.637	0.03
648.968	0.03
649.3	0.03
649.631	0.03
649.963	0.03
650.294	0.03
650.625	0.03
650.957	0.03
651.288	0.03
651.619	0.03
651.95	0.03
652.281	0.03
652.612	0.03
652.943	0.04
653.274	0.04
653.604	0.03
653.935	0.03
654.266	0.03
654.596	0.03
654.927	0.03
655.258	0.03
655.588	0.05
655.918	0.04
656.249	0.01
656.579	0.03
656.909	0.03
657.24	0.03
657.57	0.04
657.9	0.04
658.23	0.04
658.56	0.03
658.89	0.04
659.22	0.03
659.55	0.04
659.88	0.04
660.209	0.04
660.539	0.05
660.869	0.04
661.198	0.05
661.528	0.04
661.857	0.04
662.187	0.05
662.516	0.04
662.846	0.04
663.175	0.04
663.504	0.04
663.833	0.04
664.163	0.04
664.492	0.03
664.821	0.04
665.15	0.04
665.479	0.04
665.807	0.03
666.136	0.04
666.465	0.03
666.794	0.04
667.122	0.03
667.451	0.03
667.78	0.04
668.108	0.04
668.437	0.03
668.765	0.04
669.093	0.03
669.422	0.04
669.75	0.03
670.078	0.04
670.406	0.04
670.734	0.04
671.062	0.03
671.39	0.03
671.718	0.04
672.046	0.04
672.374	0.04
672.702	0.04
673.029	0.04
673.357	0.04
673.685	0.04
674.012	0.04
674.34	0.04
674.667	0.05
674.995	0.04
675.322	0.04
675.649	0.04
675.977	0.04
676.304	0.04
676.631	0.03
676.958	0.04
677.285	0.04
677.612	0.04
677.939	0.04
678.266	0.04
678.593	0.04
678.92	0.04
679.246	0.03
679.573	0.04
679.9	0.04
680.226	0.04
680.553	0.04
680.879	0.04
681.206	0.04
681.532	0.03
681.858	0.03
682.184	0.03
682.511	0.04
682.837	0.03
683.163	0.04
683.489	0.04
683.815	0.04
684.141	0.03
684.467	0.03
684.793	0.03
685.118	0.03
685.444	0.03
685.77	0.04
686.095	0.03
686.421	0.04
686.746	0.04
687.072	0.04
687.397	0.04
687.723	0.04
688.048	0.05
688.373	0.04
688.698	0.05
689.023	0.04
689.349	0.04
689.674	0.05
689.999	0.04
690.323	0.03
690.648	0.04
690.973	0.03
691.298	0.04
691.623	0.04
691.947	0.04
692.272	0.04
692.596	0.04
692.921	0.04
693.245	0.04
693.57	0.04
693.894	0.04
694.218	0.04
694.543	0.04
694.867	0.04
695.191	0.04
695.515	0.04
695.839	0.03
696.163	0.04
696.487	0.04
696.811	0.03
697.135	0.04
697.458	0.04
697.782	0.03
698.106	0.04
698.429	0.04
698.753	0.03
699.076	0.04
699.4	0.04
699.723	0.04
700.046	0.03
700.37	0.03
700.693	0.04
701.016	0.03
701.339	0.03
701.662	0.04
701.985	0.04
702.308	0.04
702.631	0.04
702.954	0.04
703.277	0.04
703.599	0.04
703.922	0.03
704.245	0.03
704.567	0.03
704.89	0.03
705.212	0.03
705.535	0.02
705.857	0.02
706.179	0.02
706.502	0.02
706.824	0.02
707.146	0.02
707.468	0.03
707.79	0.03
708.112	0.03
708.434	0.03
708.756	0.03
709.078	0.03
709.399	0.03
709.721	0.03
710.043	0.03
710.364	0.03
710.686	0.03
711.007	0.03
711.329	0.04
711.65	0.04
711.972	0.04
712.293	0.04
712.614	0.04
712.935	0.04
713.256	0.04
713.577	0.04
713.898	0.04
714.219	0.03
714.54	0.04
714.861	0.02
715.182	0.03
715.503	0.03
715.823	0.03
716.144	0.03
716.464	0.03
716.785	0.03
717.105	0.03
717.426	0.03
717.746	0.03
718.066	0.02
718.387	0.01
718.707	0.01
719.027	0.02
719.347	0.02
719.667	0.03
719.987	0.02
720.307	0.02
720.627	0.02
720.947	0.03
721.266	0.03
721.586	0.02
721.906	0.02
722.225	0.02
722.545	0.02
722.864	0.02
723.184	0.03
723.503	0.03
723.823	0.02
724.142	0.01
724.461	0.03
724.78	0.02
725.099	0.02
725.418	0.02
725.737	0.03
726.056	0.03
726.375	0.03
726.694	0.02
727.013	0.02
727.331	0.02
727.65	0.02
727.969	0.02
728.287	0.02
728.606	0.03
728.924	0.03
729.242	0.03
729.561	0.02
729.879	0.03
730.197	0.03
730.515	0.02
730.834	0.03
731.152	0.03
731.47	0.03
731.788	0.03
732.105	0.02
732.423	0.02
732.741	0.02
733.059	0.02
733.376	0.02
733.694	0.02
734.012	0.02
734.329	0.03
734.647	0.03
734.964	0.03
735.281	0.03
735.599	0.03
735.916	0.03
736.233	0.03
736.55	0.03
736.867	0.03
737.184	0.04
737.501	0.03
737.818	0.03
738.135	0.03
738.452	0.03
738.768	0.03
739.085	0.03
739.402	0.02
739.718	0.03
740.035	0.03
740.351	0.03
740.668	0.04
740.984	0.03
741.3	0.03
741.617	0.03
741.933	0.03
742.249	0.04
742.565	0.03
742.881	0.03
743.197	0.04
743.513	0.03
743.829	0.03
744.144	0.03
744.46	0.03
744.776	0.03
745.091	0.03
745.407	0.03
745.722	0.02
746.038	0.03
746.353	0.02
746.669	0.03
746.984	0.02
747.299	0.03
747.614	0.03
747.93	0.03
748.245	0.03
748.56	0.03
748.875	0.03
749.189	0.02
749.504	0.02
749.819	0.03
750.134	0.03
750.448	0.03
750.763	0.04
751.078	0.03
751.392	0.03
751.707	0.04
752.021	0.04
752.335	0.04
752.65	0.04
752.964	0.04
753.278	0.03
753.592	0.03
753.906	0.03
754.22	0.03
754.534	0.04
754.848	0.03
755.162	0.04
755.476	0.03
755.789	0.04
756.103	0.03
756.417	0.04
756.73	0.03
757.044	0.04
757.357	0.04
757.671	0.04
757.984	0.03
758.297	0.04
758.61	0.04
758.924	0.03
759.237	0.03
759.55	0.04
759.863	0.04
760.176	0.04
760.488	0.04
760.801	0.03
761.114	0.03
761.427	0.03
761.739	0.03
762.052	0.03
762.365	0.03
762.677	0.03
762.99	0.03
763.302	0.03
763.614	0.04
763.926	0.04
764.239	0.04
764.551	0.03
764.863	0.03
765.175	0.04
765.487	0.03
765.799	0.03
766.111	0.02
766.423	0.03
766.734	0.03
767.046	0.02
767.358	0.03
767.669	0.04
767.981	0.03
768.292	0.03
768.604	0.03
768.915	0.03
769.226	0.03
769.537	0.02
769.849	0.03
770.16	0.02
770.471	0.02
770.782	0.03
771.093	0.03
771.404	0.02
771.715	0.02
772.025	0.02
772.336	0.02
772.647	0.02
772.957	0.03
773.268	0.03
773.578	0.03
773.889	0.03
774.199	0.04
774.51	0.03
774.82	0.03
775.13	0.04
775.44	0.02
775.75	0.03
776.06	0.02
776.37	0.02
776.68	0.03
776.99	0.03
777.3	0.02
777.61	0.03
777.92	0.03
778.229	0.02
778.539	0.03
778.848	0.03
779.158	0.04
779.467	0.04
779.777	0.03
780.086	0.04
780.395	0.03
780.704	0.03
781.013	0.02
781.323	0.03
781.632	0.03
781.941	0.03
782.249	0.04
782.558	0.03
782.867	0.04
783.176	0.02
783.485	0.03
783.793	0.03
784.102	0.02
784.41	0.03
784.719	0.03
785.027	0.03
785.335	0.03
785.644	0.03
785.952	0.02
786.26	0.03
786.568	0.01
786.876	0.02
787.184	0.03
787.492	0.03
787.8	0.03
788.108	0.02
788.416	0.03
788.723	0.03
789.031	0.02
789.338	0.03
789.646	0.03
789.953	0.03
790.261	0.04
790.568	0.03
790.876	0.03
791.183	0.03
791.49	0.03
791.797	0.03
792.104	0.03
792.411	0.04
792.718	0.03
793.025	0.04
793.332	0.03
793.639	0.04
793.945	0.04
794.252	0.04
794.559	0.03
794.865	0.04
795.172	0.03
795.478	0.04
795.784	0.04
796.091	0.04
796.397	0.05
796.703	0.04
797.009	0.05
797.315	0.05
797.622	0.04
797.927	0.04
798.233	0.04
798.539	0.05
798.845	0.04
799.151	0.05
799.456	0.05
799.762	0.04
800.068	0.04
800.373	0.05
800.679	0.04
800.984	0.04
801.289	0.04
801.595	0.04
801.9	0.04
802.205	0.04
802.51	0.04
802.815	0.04
803.12	0.03
803.425	0.04
803.73	0.03
804.035	0.04
804.339	0.03
804.644	0.03
804.949	0.04
805.253	0.04
805.558	0.04
805.862	0.04
806.167	0.04
806.471	0.03
806.775	0.04
807.08	0.04
807.384	0.03
807.688	0.04
807.992	0.04
808.296	0.03
808.6	0.04
808.904	0.04
809.207	0.04
809.511	0.05
809.815	0.05
810.119	0.04
810.422	0.05
810.726	0.06
811.029	0.06
811.332	0.05
811.636	0.05
811.939	0.05
812.242	0.05
812.546	0.06
812.849	0.04
813.152	0.06
813.455	0.06
813.758	0.05
814.06	0.05
814.363	0.05
814.666	0.05
814.969	0.05
815.271	0.04
815.574	0.04
815.877	0.04
816.179	0.04
816.481	0.04
816.784	0.04
817.086	0.04
817.388	0.04
817.69	0.03
817.993	0.03
818.295	0.04
818.597	0.03
818.899	0.03
819.2	0.02
819.502	0.04
819.804	0.03
820.106	0.03
820.407	0.03
820.709	0.03
821.01	0.03
821.312	0.04
821.613	0.03
821.915	0.02
822.216	0.03
822.517	0.02
822.818	0.03
823.119	0.03
823.42	0.03
823.721	0.02
824.022	0.02
824.323	0.03
824.624	0.03
824.925	0.03
825.226	0.04
825.526	0.03
825.827	0.02
826.127	0.03
826.428	0.03
826.728	0.02
827.028	0.03
827.329	0.03
827.629	0.02
827.929	0.02
828.229	0.03
828.529	0.04
828.829	0.03
829.129	0.03
829.429	0.03
829.729	0.03
830.029	0.02
830.328	0.03
830.628	0.01
830.927	0.01
831.227	0.02
831.526	0.02
831.826	0.02
832.125	0.02
832.424	0.01
832.724	0.02
833.023	0.02
833.322	0.02
833.621	0.02
833.92	0.01
834.219	0.01
834.518	0.02
834.816	0
835.115	0.02
835.414	0.01
835.712	0.01
836.011	0.01
836.309	0.01
836.608	0.01
836.906	0
837.205	-0.01
837.503	0.01
837.801	0
838.099	-0.01
838.397	-0.01
838.695	-0.01
838.993	-0
839.291	-0.01
839.589	-0
839.887	-0.01
840.184	-0.01
840.482	-0.01
840.78	-0.01
841.077	-0.02
841.375	-0.02
841.672	-0.01
841.969	-0.02
842.267	-0.02
842.564	-0.02
842.861	-0.02
843.158	-0.02
843.455	-0.04
843.752	-0.03
844.049	-0.03
844.346	-0.03
844.643	-0.03
844.94	-0.04
845.236	-0.03
845.533	-0.04
845.83	-0.04
846.126	-0.04
846.423	-0.04
846.719	-0.05
847.015	-0.04
847.312	-0.05
847.608	-0.05
847.904	-0.06
848.2	-0.07
848.496	-0.06
848.792	-0.05
849.088	-0.04
849.384	-0.05
849.68	-0.06
849.975	-0.05
850.271	-0.06
850.567	-0.06
850.862	-0.07
851.158	-0.06
851.453	-0.06
851.748	-0.07
852.044	-0.07
852.339	-0.07
852.634	-0.08
852.929	-0.07
853.224	-0.07
853.519	-0.08
853.814	-0.08
854.109	-0.08
854.404	-0.08
854.699	-0.08
854.994	-0.08
855.288	-0.08
855.583	-0.07
855.877	-0.08
856.172	-0.09
856.466	-0.08
856.76	-0.09
857.055	-0.08
857.349	-0.09
857.643	-0.09
857.937	-0.1
858.231	-0.1
858.525	-0.1
858.819	-0.11
859.113	-0.12
859.407	-0.11
859.701	-0.1
859.994	-0.11
860.288	-0.1
860.581	-0.12
860.875	-0.11
861.168	-0.11
861.462	-0.11
861.755	-0.1
862.048	-0.11
862.341	-0.11
862.634	-0.11
862.928	-0.1
863.221	-0.12
863.513	-0.11
863.806	-0.12
864.099	-0.12
864.392	-0.13
864.685	-0.12
864.977	-0.11
865.27	-0.12
865.562	-0.12
865.855	-0.12
866.147	-0.12
866.44	-0.11
866.732	-0.13
867.024	-0.13
867.316	-0.12
867.608	-0.13
867.9	-0.14
868.192	-0.14
868.484	-0.14
868.776	-0.14
869.068	-0.14
869.359	-0.14
869.651	-0.15
869.943	-0.16
870.234	-0.15
870.526	-0.15
870.817	-0.16
871.108	-0.15
871.4	-0.15
871.691	-0.16
871.982	-0.17
872.273	-0.18
872.564	-0.18
872.855	-0.16
873.146	-0.17
873.437	-0.17
873.728	-0.18
874.019	-0.17
874.309	-0.17
874.6	-0.17
874.89	-0.18
875.181	-0.18
875.471	-0.17
875.762	-0.16
876.052	-0.18
876.342	-0.16
876.632	-0.16
876.922	-0.17
877.213	-0.17
877.503	-0.18
877.792	-0.16
878.082	-0.18
878.372	-0.16
878.662	-0.19
878.952	-0.18
879.241	-0.18
879.531	-0.16
879.82	-0.18
880.11	-0.17
880.399	-0.18
880.688	-0.16
880.978	-0.16
881.267	-0.16
