Data from 12-12-AQDScycling_Absorbance__673__00673.txt Node

Date: Tue Dec 12 13:44:59 EST 2023
User: kyuminlee
Spectrometer: FLMS00943
Trigger mode: 0
Integration Time (sec): 1.000000E-1
Scans to average: 1
Electric dark correction enabled: true
Nonlinearity correction enabled: false
Boxcar width: 0
XAxis mode: Wavelengths
Number of Pixels in Spectrum: 2048
>>>>>Begin Spectral Data<<<<<
179.651	-0
180.037	-0
180.424	-0
180.81	-0.29
181.197	0.56
181.583	-0
181.97	-0.57
182.356	-0.64
182.743	-0.9
183.129	0.39
183.515	0.17
183.901	-1.62
184.288	0.36
184.674	-0
185.06	-0.24
185.446	-0
185.832	-0.67
186.218	0.94
186.604	-0
186.99	-0
187.376	0.86
187.762	0.62
188.148	0.37
188.534	0.25
188.92	0.12
189.305	0.08
189.691	0.27
190.077	0.17
190.463	0.08
190.848	0.01
191.234	0.22
191.619	0.12
192.005	0.22
192.391	0.11
192.776	0.11
193.161	0.32
193.547	0.15
193.932	0.06
194.318	0.08
194.703	0.17
195.088	0.15
195.473	0.21
195.859	0.39
196.244	0.32
196.629	0.08
197.014	0.17
197.399	0.13
197.784	0.3
198.169	0.16
198.554	0.32
198.939	0.14
199.324	0.21
199.709	0.1
200.094	0.11
200.478	0.16
200.863	0.14
201.248	0.2
201.633	0.18
202.017	0.1
202.402	0.15
202.787	0.13
203.171	0.18
203.556	0.14
203.94	0.14
204.325	0.3
204.709	0.2
205.093	0.1
205.478	0.11
205.862	0.24
206.246	0.15
206.631	0.21
207.015	0.06
207.399	0.19
207.783	0.06
208.167	0.2
208.551	0.24
208.935	0.14
209.319	0.23
209.703	0.18
210.087	0.26
210.471	0.12
210.855	0.26
211.239	0.25
211.623	0.33
212.007	0.13
212.39	0.34
212.774	0.14
213.158	0.17
213.541	0.39
213.925	0.24
214.309	0.27
214.692	0.25
215.076	0.2
215.459	0.2
215.842	0.22
216.226	0.31
216.609	0.31
216.993	0.21
217.376	0.59
217.759	0.12
218.142	0.28
218.525	0.48
218.909	0.34
219.292	0.32
219.675	0.4
220.058	0.42
220.441	0.54
220.824	0.58
221.207	0.61
221.59	0.57
221.973	0.56
222.355	0.65
222.738	0.69
223.121	0.49
223.504	0.61
223.886	0.56
224.269	0.75
224.652	0.57
225.034	0.78
225.417	0.74
225.799	0.83
226.182	0.94
226.564	0.76
226.947	0.73
227.329	0.88
227.711	0.88
228.094	0.88
228.476	1.24
228.858	0.76
229.24	0.75
229.623	0.84
230.005	0.89
230.387	0.87
230.769	0.87
231.151	0.92
231.533	0.92
231.915	0.93
232.297	1
232.679	1.08
233.061	1.11
233.442	1.06
233.824	1.07
234.206	1.17
234.588	1.2
234.969	1
235.351	1.05
235.733	1.08
236.114	1.34
236.496	1.14
236.877	1.14
237.259	1.03
237.64	1.07
238.022	1.17
238.403	1.03
238.784	1
239.165	1.02
239.547	1.09
239.928	1.14
240.309	1.1
240.69	1.07
241.071	1.3
241.452	1.25
241.834	1.13
242.215	1.26
242.595	1.11
242.976	1.18
243.357	1.21
243.738	1
244.119	1.21
244.5	1.15
244.881	1.2
245.261	1.21
245.642	1.12
246.023	1.12
246.403	1.19
246.784	1.36
247.164	1.44
247.545	1.34
247.925	1.43
248.306	1.25
248.686	1.35
249.067	1.2
249.447	1.61
249.827	1.48
250.207	1.43
250.588	1.21
250.968	1.31
251.348	1.4
251.728	1.53
252.108	1.43
252.488	1.4
252.868	1.31
253.248	1.26
253.628	1.51
254.008	1.45
254.388	1.33
254.768	1.41
255.147	1.36
255.527	1.35
255.907	1.39
256.287	1.37
256.666	1.44
257.046	1.53
257.425	1.46
257.805	1.47
258.184	1.36
258.564	1.4
258.943	1.39
259.323	1.64
259.702	1.44
260.081	1.47
260.461	1.49
260.84	1.43
261.219	1.7
261.598	1.45
261.977	1.44
262.356	1.44
262.736	1.6
263.115	1.51
263.494	1.5
263.873	1.5
264.251	1.55
264.63	1.57
265.009	1.43
265.388	1.37
265.767	1.3
266.145	1.35
266.524	1.38
266.903	1.51
267.281	1.44
267.66	1.51
268.039	1.59
268.417	1.56
268.796	1.37
269.174	1.48
269.552	1.24
269.931	1.37
270.309	1.37
270.687	1.58
271.066	1.64
271.444	1.43
271.822	1.74
272.2	1.42
272.578	1.42
272.956	1.4
273.334	1.42
273.712	1.46
274.09	1.36
274.468	1.43
274.846	1.34
275.224	1.49
275.602	1.43
275.98	1.47
276.357	1.45
276.735	1.46
277.113	1.39
277.49	1.42
277.868	1.37
278.246	1.42
278.623	1.36
279.001	1.34
279.378	1.39
279.756	1.46
280.133	1.75
280.51	1.39
280.888	1.46
281.265	1.31
281.642	1.47
282.019	1.63
282.396	1.67
282.773	1.54
283.151	1.63
283.528	1.4
283.905	1.42
284.282	1.55
284.659	1.54
285.035	1.32
285.412	1.44
285.789	1.51
286.166	1.36
286.543	1.46
286.919	1.48
287.296	1.38
287.673	1.64
288.049	1.49
288.426	1.61
288.802	1.52
289.179	1.55
289.555	1.57
289.932	1.51
290.308	1.35
290.684	1.36
291.061	1.26
291.437	1.71
291.813	1.38
292.189	1.35
292.565	1.41
292.942	1.31
293.318	1.48
293.694	1.35
294.07	1.37
294.446	1.49
294.822	1.6
295.197	1.47
295.573	1.53
295.949	1.62
296.325	1.54
296.701	1.54
297.076	1.52
297.452	1.48
297.828	1.49
298.203	1.61
298.579	1.45
298.954	1.47
299.33	1.46
299.705	1.5
300.081	1.44
300.456	1.5
300.831	1.5
301.206	1.46
301.582	1.55
301.957	1.58
302.332	1.7
302.707	1.48
303.082	1.44
303.457	1.41
303.832	1.56
304.207	1.41
304.582	1.34
304.957	1.53
305.332	1.68
305.707	1.48
306.082	1.55
306.456	1.45
306.831	1.43
307.206	1.51
307.58	1.45
307.955	1.52
308.33	1.39
308.704	1.59
309.079	1.5
309.453	1.67
309.828	1.44
310.202	1.39
310.576	1.53
310.951	1.52
311.325	1.52
311.699	1.55
312.073	1.47
312.447	1.35
312.821	1.45
313.196	1.45
313.57	1.43
313.944	1.43
314.317	1.34
314.691	1.4
315.065	1.43
315.439	1.5
315.813	1.51
316.187	1.42
316.56	1.54
316.934	1.55
317.308	1.51
317.681	1.48
318.055	1.53
318.428	1.56
318.802	1.48
319.175	1.44
319.549	1.47
319.922	1.37
320.295	1.31
320.669	1.72
321.042	1.41
321.415	1.67
321.788	1.53
322.162	1.46
322.535	1.62
322.908	1.58
323.281	1.48
323.654	1.7
324.027	1.47
324.4	1.56
324.773	1.75
325.145	1.55
325.518	1.53
325.891	1.44
326.264	1.71
326.636	1.4
327.009	1.46
327.382	1.56
327.754	1.6
328.127	1.53
328.499	1.55
328.872	1.48
329.244	1.56
329.616	1.48
329.989	1.45
330.361	1.64
330.733	1.5
331.106	1.44
331.478	1.57
331.85	1.54
332.222	1.41
332.594	1.61
332.966	1.41
333.338	1.87
333.71	1.43
334.082	1.57
334.454	1.54
334.826	1.56
335.197	1.58
335.569	1.47
335.941	1.48
336.312	1.64
336.684	1.59
337.056	1.42
337.427	1.51
337.799	1.53
338.17	1.47
338.542	1.48
338.913	1.61
339.284	1.56
339.656	1.59
340.027	1.51
340.398	1.5
340.769	1.53
341.141	1.61
341.512	1.55
341.883	1.49
342.254	1.59
342.625	1.56
342.996	1.48
343.367	1.53
343.738	1.41
344.108	1.45
344.479	1.56
344.85	1.5
345.221	1.61
345.591	1.47
345.962	1.34
346.333	1.41
346.703	1.28
347.074	1.32
347.444	1.33
347.815	1.46
348.185	1.46
348.556	1.43
348.926	1.35
349.296	1.47
349.666	1.43
350.037	1.56
350.407	1.35
350.777	1.4
351.147	1.47
351.517	1.4
351.887	1.31
352.257	1.32
352.627	1.37
352.997	1.35
353.367	1.43
353.737	1.44
354.106	1.36
354.476	1.38
354.846	1.43
355.216	1.44
355.585	1.41
355.955	1.39
356.324	1.46
356.694	1.38
357.063	1.34
357.433	1.24
357.802	1.32
358.171	1.39
358.541	1.33
358.91	1.4
359.279	1.34
359.648	1.28
360.017	1.33
360.387	1.3
360.756	1.3
361.125	1.3
361.494	1.33
361.863	1.26
362.231	1.2
362.6	1.23
362.969	1.29
363.338	1.2
363.707	1.28
364.075	1.26
364.444	1.17
364.813	1.21
365.181	1.2
365.55	1.17
365.918	1.31
366.287	1.2
366.655	1.29
367.024	1.27
367.392	1.25
367.76	1.17
368.128	1.17
368.497	1.18
368.865	1.15
369.233	1.16
369.601	1.12
369.969	1.22
370.337	1.17
370.705	1.17
371.073	1.16
371.441	1.19
371.809	1.11
372.177	1.21
372.544	1.18
372.912	1.19
373.28	1.16
373.647	1.23
374.015	1.21
374.383	1.27
374.75	1.2
375.118	1.23
375.485	1.18
375.853	1.23
376.22	1.12
376.587	1.28
376.955	1.21
377.322	1.2
377.689	1.21
378.056	1.16
378.423	1.14
378.79	1.2
379.157	1.32
379.524	1.18
379.891	1.21
380.258	1.24
380.625	1.2
380.992	1.27
381.359	1.24
381.726	1.26
382.092	1.19
382.459	1.2
382.826	1.27
383.192	1.22
383.559	1.3
383.925	1.25
384.292	1.23
384.658	1.36
385.025	1.21
385.391	1.39
385.757	1.29
386.123	1.34
386.49	1.31
386.856	1.37
387.222	1.39
387.588	1.26
387.954	1.45
388.32	1.43
388.686	1.39
389.052	1.33
389.418	1.44
389.784	1.28
390.15	1.39
390.515	1.19
390.881	1.45
391.247	1.31
391.613	1.4
391.978	1.37
392.344	1.32
392.709	1.34
393.075	1.34
393.44	1.35
393.806	1.41
394.171	1.28
394.536	1.35
394.902	1.29
395.267	1.35
395.632	1.28
395.997	1.25
396.362	1.28
396.727	1.36
397.092	1.32
397.457	1.32
397.822	1.25
398.187	1.31
398.552	1.22
398.917	1.32
399.282	1.28
399.646	1.3
400.011	1.3
400.376	1.19
400.74	1.26
401.105	1.25
401.47	1.36
401.834	1.25
402.199	1.15
402.563	1.19
402.927	1.24
403.292	1.25
403.656	1.16
404.02	1.21
404.384	1.23
404.749	1.14
405.113	1.11
405.477	1.19
405.841	1.12
406.205	1.16
406.569	1.14
406.933	1.12
407.296	1.15
407.66	1.08
408.024	1.15
408.388	1.13
408.752	1.09
409.115	1.13
409.479	1.12
409.842	1.07
410.206	1.07
410.569	1.03
410.933	1.05
411.296	0.98
411.66	1.08
412.023	1.07
412.386	1.1
412.749	1
413.113	1.02
413.476	1
413.839	1.01
414.202	0.98
414.565	1
414.928	0.99
415.291	0.93
415.654	0.99
416.017	1.01
416.38	1
416.742	0.94
417.105	0.98
417.468	0.98
417.83	0.97
418.193	1.01
418.556	0.95
418.918	0.93
419.281	0.95
419.643	0.99
420.005	0.96
420.368	0.98
420.73	0.95
421.092	0.96
421.455	0.93
421.817	0.93
422.179	0.92
422.541	0.94
422.903	0.96
423.265	0.95
423.627	0.96
423.989	0.9
424.351	0.92
424.713	0.91
425.075	0.89
425.436	0.9
425.798	0.88
426.16	0.91
426.521	0.89
426.883	0.94
427.245	0.88
427.606	0.87
427.967	0.86
428.329	0.9
428.69	0.92
429.052	0.87
429.413	0.92
429.774	0.88
430.135	0.86
430.497	0.87
430.858	0.87
431.219	0.85
431.58	0.87
431.941	0.84
432.302	0.83
432.663	0.86
433.024	0.89
433.384	0.87
433.745	0.83
434.106	0.84
434.467	0.83
434.827	0.85
435.188	0.82
435.548	0.85
435.909	0.83
436.269	0.87
436.63	0.82
436.99	0.84
437.351	0.78
437.711	0.81
438.071	0.81
438.431	0.81
438.792	0.82
439.152	0.79
439.512	0.77
439.872	0.79
440.232	0.81
440.592	0.78
440.952	0.77
441.312	0.76
441.671	0.75
442.031	0.76
442.391	0.75
442.751	0.77
443.11	0.76
443.47	0.74
443.83	0.73
444.189	0.73
444.549	0.74
444.908	0.73
445.267	0.71
445.627	0.72
445.986	0.7
446.345	0.7
446.705	0.7
447.064	0.69
447.423	0.7
447.782	0.71
448.141	0.7
448.5	0.66
448.859	0.68
449.218	0.68
449.577	0.67
449.936	0.69
450.295	0.67
450.653	0.67
451.012	0.66
451.371	0.66
451.729	0.66
452.088	0.66
452.447	0.65
452.805	0.65
453.163	0.64
453.522	0.66
453.88	0.62
454.239	0.64
454.597	0.62
454.955	0.61
455.313	0.6
455.671	0.61
456.029	0.6
456.388	0.59
456.746	0.59
457.104	0.58
457.461	0.57
457.819	0.57
458.177	0.55
458.535	0.56
458.893	0.56
459.25	0.55
459.608	0.55
459.966	0.53
460.323	0.53
460.681	0.51
461.038	0.52
461.396	0.51
461.753	0.5
462.111	0.5
462.468	0.5
462.825	0.49
463.182	0.49
463.54	0.47
463.897	0.48
464.254	0.47
464.611	0.46
464.968	0.47
465.325	0.46
465.682	0.45
466.039	0.45
466.395	0.45
466.752	0.44
467.109	0.44
467.466	0.43
467.822	0.42
468.179	0.42
468.535	0.42
468.892	0.41
469.248	0.41
469.605	0.4
469.961	0.39
470.318	0.41
470.674	0.39
471.03	0.39
471.386	0.38
471.743	0.38
472.099	0.37
472.455	0.37
472.811	0.36
473.167	0.36
473.523	0.36
473.879	0.35
474.235	0.34
474.59	0.34
474.946	0.33
475.302	0.34
475.657	0.32
476.013	0.32
476.369	0.32
476.724	0.32
477.08	0.31
477.435	0.31
477.791	0.31
478.146	0.31
478.501	0.29
478.857	0.3
479.212	0.29
479.567	0.29
479.922	0.28
480.277	0.28
480.632	0.28
480.987	0.27
481.342	0.27
481.697	0.26
482.052	0.26
482.407	0.27
482.762	0.26
483.116	0.25
483.471	0.25
483.826	0.24
484.18	0.24
484.535	0.24
484.89	0.24
485.244	0.23
485.598	0.24
485.953	0.23
486.307	0.23
486.661	0.23
487.016	0.22
487.37	0.23
487.724	0.22
488.078	0.22
488.432	0.22
488.786	0.21
489.14	0.21
489.494	0.21
489.848	0.21
490.202	0.2
490.556	0.21
490.91	0.21
491.263	0.2
491.617	0.2
491.971	0.2
492.324	0.2
492.678	0.19
493.031	0.2
493.385	0.19
493.738	0.2
494.091	0.19
494.445	0.19
494.798	0.18
495.151	0.18
495.504	0.19
495.857	0.18
496.21	0.19
496.564	0.18
496.916	0.19
497.269	0.17
497.622	0.18
497.975	0.17
498.328	0.18
498.681	0.17
499.033	0.17
499.386	0.17
499.739	0.17
500.091	0.17
500.444	0.16
500.796	0.17
501.149	0.16
501.501	0.17
501.854	0.17
502.206	0.16
502.558	0.17
502.91	0.17
503.263	0.16
503.615	0.17
503.967	0.17
504.319	0.17
504.671	0.16
505.023	0.15
505.375	0.16
505.726	0.16
506.078	0.16
506.43	0.15
506.782	0.15
507.133	0.16
507.485	0.17
507.837	0.16
508.188	0.17
508.54	0.16
508.891	0.17
509.243	0.16
509.594	0.16
509.945	0.15
510.296	0.15
510.648	0.16
510.999	0.16
511.35	0.15
511.701	0.16
512.052	0.16
512.403	0.16
512.754	0.16
513.105	0.15
513.456	0.15
513.807	0.15
514.157	0.16
514.508	0.15
514.859	0.15
515.209	0.15
515.56	0.16
515.91	0.15
516.261	0.16
516.611	0.15
516.962	0.16
517.312	0.16
517.662	0.16
518.013	0.16
518.363	0.15
518.713	0.15
519.063	0.16
519.413	0.15
519.763	0.16
520.113	0.16
520.463	0.16
520.813	0.16
521.163	0.16
521.512	0.16
521.862	0.16
522.212	0.16
522.562	0.16
522.911	0.15
523.261	0.16
523.61	0.16
523.96	0.16
524.309	0.16
524.658	0.16
525.008	0.15
525.357	0.16
525.706	0.16
526.056	0.16
526.405	0.15
526.754	0.15
527.103	0.15
527.452	0.15
527.801	0.16
528.15	0.16
528.499	0.16
528.847	0.16
529.196	0.16
529.545	0.16
529.893	0.16
530.242	0.16
530.591	0.17
530.939	0.17
531.288	0.17
531.636	0.17
531.985	0.16
532.333	0.16
532.681	0.16
533.029	0.16
533.378	0.16
533.726	0.17
534.074	0.17
534.422	0.16
534.77	0.17
535.118	0.17
535.466	0.16
535.814	0.16
536.162	0.17
536.509	0.17
536.857	0.16
537.205	0.17
537.552	0.17
537.9	0.17
538.248	0.17
538.595	0.17
538.943	0.17
539.29	0.16
539.637	0.16
539.985	0.17
540.332	0.17
540.679	0.17
541.026	0.17
541.373	0.17
541.721	0.17
542.068	0.16
542.415	0.17
542.762	0.16
543.108	0.15
543.455	0.16
543.802	0.17
544.149	0.16
544.496	0.16
544.842	0.16
545.189	0.14
545.535	0.15
545.882	0.16
546.228	0.16
546.575	0.16
546.921	0.16
547.267	0.15
547.614	0.16
547.96	0.16
548.306	0.16
548.652	0.16
548.998	0.16
549.344	0.16
549.69	0.16
550.036	0.16
550.382	0.17
550.728	0.16
551.074	0.17
551.42	0.16
551.765	0.17
552.111	0.17
552.457	0.17
552.802	0.16
553.148	0.16
553.493	0.15
553.839	0.17
554.184	0.17
554.529	0.16
554.875	0.17
555.22	0.17
555.565	0.17
555.91	0.17
556.255	0.17
556.6	0.18
556.945	0.16
557.29	0.17
557.635	0.17
557.98	0.17
558.325	0.17
558.67	0.18
559.014	0.18
559.359	0.18
559.704	0.17
560.048	0.16
560.393	0.17
560.737	0.16
561.082	0.16
561.426	0.16
561.77	0.17
562.115	0.16
562.459	0.17
562.803	0.17
563.147	0.16
563.491	0.17
563.835	0.17
564.179	0.17
564.523	0.16
564.867	0.16
565.211	0.17
565.555	0.18
565.899	0.18
566.242	0.17
566.586	0.16
566.93	0.16
567.273	0.18
567.617	0.17
567.96	0.17
568.304	0.17
568.647	0.16
568.99	0.17
569.334	0.18
569.677	0.17
570.02	0.17
570.363	0.18
570.706	0.17
571.049	0.18
571.392	0.17
571.735	0.17
572.078	0.17
572.421	0.18
572.764	0.18
573.106	0.18
573.449	0.17
573.792	0.17
574.134	0.16
574.477	0.17
574.819	0.17
575.162	0.17
575.504	0.17
575.847	0.17
576.189	0.16
576.531	0.17
576.873	0.17
577.215	0.17
577.558	0.17
577.9	0.16
578.242	0.17
578.584	0.17
578.926	0.17
579.267	0.17
579.609	0.17
579.951	0.17
580.293	0.16
580.634	0.18
580.976	0.18
581.318	0.17
581.659	0.16
582.001	0.17
582.342	0.17
582.683	0.17
583.025	0.17
583.366	0.16
583.707	0.17
584.049	0.16
584.39	0.17
584.731	0.16
585.072	0.16
585.413	0.17
585.754	0.16
586.095	0.17
586.435	0.17
586.776	0.17
587.117	0.17
587.458	0.17
587.798	0.17
588.139	0.17
588.48	0.16
588.82	0.16
589.161	0.17
589.501	0.16
589.841	0.17
590.182	0.16
590.522	0.16
590.862	0.17
591.202	0.17
591.542	0.17
591.882	0.16
592.222	0.17
592.562	0.16
592.902	0.17
593.242	0.16
593.582	0.17
593.922	0.17
594.261	0.15
594.601	0.17
594.941	0.16
595.28	0.16
595.62	0.17
595.959	0.16
596.299	0.16
596.638	0.16
596.977	0.17
597.317	0.17
597.656	0.17
597.995	0.17
598.334	0.17
598.673	0.17
599.012	0.17
599.351	0.18
599.69	0.17
600.029	0.18
600.368	0.18
600.707	0.17
601.046	0.17
601.384	0.17
601.723	0.17
602.061	0.16
602.4	0.17
602.738	0.17
603.077	0.17
603.415	0.17
603.754	0.17
604.092	0.17
604.43	0.17
604.768	0.17
605.107	0.17
605.445	0.16
605.783	0.16
606.121	0.16
606.459	0.16
606.796	0.17
607.134	0.16
607.472	0.17
607.81	0.16
608.148	0.17
608.485	0.17
608.823	0.17
609.16	0.16
609.498	0.16
609.835	0.16
610.173	0.17
610.51	0.16
610.847	0.16
611.185	0.17
611.522	0.17
611.859	0.16
612.196	0.17
612.533	0.17
612.87	0.17
613.207	0.17
613.544	0.17
613.881	0.18
614.217	0.17
614.554	0.17
614.891	0.17
615.228	0.17
615.564	0.17
615.901	0.17
616.237	0.17
616.574	0.18
616.91	0.17
617.246	0.17
617.583	0.17
617.919	0.18
618.255	0.17
618.591	0.17
618.927	0.17
619.263	0.17
619.599	0.17
619.935	0.17
620.271	0.17
620.607	0.17
620.943	0.17
621.279	0.17
621.614	0.17
621.95	0.17
622.286	0.17
622.621	0.17
622.957	0.17
623.292	0.17
623.627	0.16
623.963	0.16
624.298	0.17
624.633	0.17
624.968	0.16
625.304	0.17
625.639	0.16
625.974	0.16
626.309	0.16
626.644	0.16
626.979	0.16
627.313	0.16
627.648	0.16
627.983	0.16
628.318	0.16
628.652	0.15
628.987	0.15
629.321	0.16
629.656	0.15
629.99	0.15
630.325	0.16
630.659	0.16
630.993	0.15
631.327	0.16
631.662	0.14
631.996	0.14
632.33	0.15
632.664	0.15
632.998	0.14
633.332	0.15
633.666	0.15
633.999	0.15
634.333	0.14
634.667	0.14
635.001	0.14
635.334	0.14
635.668	0.14
636.001	0.14
636.335	0.15
636.668	0.15
637.001	0.14
637.335	0.15
637.668	0.15
638.001	0.13
638.334	0.15
638.668	0.15
639.001	0.14
639.334	0.14
639.667	0.14
639.999	0.14
640.332	0.15
640.665	0.14
640.998	0.15
641.331	0.15
641.663	0.14
641.996	0.14
642.328	0.15
642.661	0.15
642.993	0.14
643.326	0.15
643.658	0.14
643.99	0.14
644.323	0.14
644.655	0.14
644.987	0.14
645.319	0.15
645.651	0.14
645.983	0.15
646.315	0.14
646.647	0.14
646.979	0.16
647.31	0.14
647.642	0.14
647.974	0.14
648.305	0.15
648.637	0.14
648.968	0.14
649.3	0.15
649.631	0.14
649.963	0.14
650.294	0.15
650.625	0.14
650.957	0.15
651.288	0.14
651.619	0.15
651.95	0.14
652.281	0.15
652.612	0.15
652.943	0.14
653.274	0.15
653.604	0.15
653.935	0.14
654.266	0.15
654.596	0.14
654.927	0.13
655.258	0.15
655.588	0.15
655.918	0.14
656.249	0.12
656.579	0.13
656.909	0.13
657.24	0.13
657.57	0.15
657.9	0.14
658.23	0.14
658.56	0.14
658.89	0.14
659.22	0.13
659.55	0.14
659.88	0.15
660.209	0.13
660.539	0.15
660.869	0.15
661.198	0.14
661.528	0.14
661.857	0.13
662.187	0.13
662.516	0.14
662.846	0.13
663.175	0.13
663.504	0.13
663.833	0.13
664.163	0.14
664.492	0.13
664.821	0.13
665.15	0.13
665.479	0.14
665.807	0.13
666.136	0.13
666.465	0.13
666.794	0.13
667.122	0.13
667.451	0.13
667.78	0.14
668.108	0.13
668.437	0.13
668.765	0.14
669.093	0.14
669.422	0.14
669.75	0.14
670.078	0.13
670.406	0.14
670.734	0.14
671.062	0.13
671.39	0.13
671.718	0.14
672.046	0.13
672.374	0.13
672.702	0.13
673.029	0.13
673.357	0.14
673.685	0.14
674.012	0.13
674.34	0.13
674.667	0.13
674.995	0.13
675.322	0.13
675.649	0.13
675.977	0.13
676.304	0.12
676.631	0.13
676.958	0.13
677.285	0.12
677.612	0.12
677.939	0.12
678.266	0.13
678.593	0.12
678.92	0.12
679.246	0.12
679.573	0.13
679.9	0.12
680.226	0.13
680.553	0.12
680.879	0.12
681.206	0.13
681.532	0.12
681.858	0.13
682.184	0.13
682.511	0.13
682.837	0.13
683.163	0.13
683.489	0.13
683.815	0.12
684.141	0.12
684.467	0.12
684.793	0.12
685.118	0.12
685.444	0.12
685.77	0.12
686.095	0.12
686.421	0.12
686.746	0.12
687.072	0.12
687.397	0.12
687.723	0.12
688.048	0.12
688.373	0.12
688.698	0.12
689.023	0.11
689.349	0.12
689.674	0.11
689.999	0.12
690.323	0.11
690.648	0.11
690.973	0.11
691.298	0.11
691.623	0.12
691.947	0.11
692.272	0.12
692.596	0.12
692.921	0.12
693.245	0.12
693.57	0.12
693.894	0.12
694.218	0.12
694.543	0.12
694.867	0.11
695.191	0.11
695.515	0.12
695.839	0.11
696.163	0.12
696.487	0.11
696.811	0.12
697.135	0.12
697.458	0.12
697.782	0.12
698.106	0.11
698.429	0.11
698.753	0.11
699.076	0.11
699.4	0.11
699.723	0.11
700.046	0.11
700.37	0.12
700.693	0.11
701.016	0.11
701.339	0.11
701.662	0.12
701.985	0.11
702.308	0.11
702.631	0.12
702.954	0.11
703.277	0.11
703.599	0.11
703.922	0.1
704.245	0.11
704.567	0.11
704.89	0.1
705.212	0.11
705.535	0.09
705.857	0.1
706.179	0.1
706.502	0.1
706.824	0.09
707.146	0.1
707.468	0.1
707.79	0.1
708.112	0.11
708.434	0.11
708.756	0.1
709.078	0.1
709.399	0.1
709.721	0.1
710.043	0.1
710.364	0.1
710.686	0.11
711.007	0.1
711.329	0.11
711.65	0.11
711.972	0.11
712.293	0.11
712.614	0.11
712.935	0.11
713.256	0.11
713.577	0.12
713.898	0.1
714.219	0.1
714.54	0.09
714.861	0.1
715.182	0.1
715.503	0.09
715.823	0.1
716.144	0.09
716.464	0.08
716.785	0.09
717.105	0.09
717.426	0.1
717.746	0.09
718.066	0.09
718.387	0.1
718.707	0.08
719.027	0.1
719.347	0.08
719.667	0.09
719.987	0.08
720.307	0.09
720.627	0.09
720.947	0.09
721.266	0.09
721.586	0.08
721.906	0.08
722.225	0.08
722.545	0.09
722.864	0.09
723.184	0.09
723.503	0.08
723.823	0.1
724.142	0.08
724.461	0.09
724.78	0.09
725.099	0.09
725.418	0.09
725.737	0.09
726.056	0.09
726.375	0.09
726.694	0.09
727.013	0.09
727.331	0.08
727.65	0.08
727.969	0.09
728.287	0.09
728.606	0.09
728.924	0.08
729.242	0.08
729.561	0.09
729.879	0.08
730.197	0.08
730.515	0.08
730.834	0.08
731.152	0.08
731.47	0.09
731.788	0.09
732.105	0.08
732.423	0.09
732.741	0.09
733.059	0.09
733.376	0.1
733.694	0.09
734.012	0.08
734.329	0.08
734.647	0.09
734.964	0.09
735.281	0.09
735.599	0.1
735.916	0.09
736.233	0.08
736.55	0.08
736.867	0.09
737.184	0.09
737.501	0.09
737.818	0.08
738.135	0.09
738.452	0.09
738.768	0.09
739.085	0.08
739.402	0.08
739.718	0.08
740.035	0.08
740.351	0.09
740.668	0.09
740.984	0.08
741.3	0.08
741.617	0.09
741.933	0.07
742.249	0.09
742.565	0.09
742.881	0.09
743.197	0.08
743.513	0.08
743.829	0.09
744.144	0.08
744.46	0.08
744.776	0.09
745.091	0.08
745.407	0.07
745.722	0.07
746.038	0.07
746.353	0.07
746.669	0.08
746.984	0.07
747.299	0.08
747.614	0.08
747.93	0.08
748.245	0.07
748.56	0.07
748.875	0.07
749.189	0.06
749.504	0.06
749.819	0.07
750.134	0.07
750.448	0.07
750.763	0.07
751.078	0.06
751.392	0.07
751.707	0.08
752.021	0.08
752.335	0.08
752.65	0.08
752.964	0.08
753.278	0.08
753.592	0.08
753.906	0.07
754.22	0.08
754.534	0.08
754.848	0.08
755.162	0.07
755.476	0.08
755.789	0.08
756.103	0.06
756.417	0.08
756.73	0.08
757.044	0.08
757.357	0.07
757.671	0.08
757.984	0.07
758.297	0.08
758.61	0.08
758.924	0.07
759.237	0.07
759.55	0.07
759.863	0.07
760.176	0.07
760.488	0.07
760.801	0.07
761.114	0.07
761.427	0.07
761.739	0.07
762.052	0.06
762.365	0.07
762.677	0.07
762.99	0.07
763.302	0.07
763.614	0.07
763.926	0.08
764.239	0.06
764.551	0.07
764.863	0.07
765.175	0.08
765.487	0.07
765.799	0.06
766.111	0.06
766.423	0.07
766.734	0.07
767.046	0.06
767.358	0.07
767.669	0.07
767.981	0.07
768.292	0.07
768.604	0.06
768.915	0.06
769.226	0.07
769.537	0.07
769.849	0.07
770.16	0.06
770.471	0.06
770.782	0.06
771.093	0.06
771.404	0.05
771.715	0.06
772.025	0.06
772.336	0.07
772.647	0.06
772.957	0.06
773.268	0.06
773.578	0.06
773.889	0.07
774.199	0.07
774.51	0.07
774.82	0.06
775.13	0.07
775.44	0.07
775.75	0.07
776.06	0.07
776.37	0.07
776.68	0.07
776.99	0.07
777.3	0.07
777.61	0.07
777.92	0.07
778.229	0.07
778.539	0.06
778.848	0.06
779.158	0.07
779.467	0.07
779.777	0.06
780.086	0.07
780.395	0.06
780.704	0.06
781.013	0.06
781.323	0.06
781.632	0.06
781.941	0.06
782.249	0.06
782.558	0.06
782.867	0.06
783.176	0.05
783.485	0.06
783.793	0.06
784.102	0.06
784.41	0.05
784.719	0.05
785.027	0.05
785.335	0.06
785.644	0.06
785.952	0.06
786.26	0.06
786.568	0.05
786.876	0.05
787.184	0.06
787.492	0.06
787.8	0.07
788.108	0.07
788.416	0.05
788.723	0.06
789.031	0.05
789.338	0.06
789.646	0.06
789.953	0.06
790.261	0.07
790.568	0.06
790.876	0.06
791.183	0.06
791.49	0.05
791.797	0.06
792.104	0.05
792.411	0.06
792.718	0.05
793.025	0.07
793.332	0.06
793.639	0.06
793.945	0.07
794.252	0.07
794.559	0.06
794.865	0.06
795.172	0.06
795.478	0.06
795.784	0.07
796.091	0.07
796.397	0.07
796.703	0.06
797.009	0.08
797.315	0.07
797.622	0.07
797.927	0.06
798.233	0.07
798.539	0.07
798.845	0.07
799.151	0.08
799.456	0.07
799.762	0.06
800.068	0.07
800.373	0.08
800.679	0.07
800.984	0.07
801.289	0.06
801.595	0.07
801.9	0.07
802.205	0.06
802.51	0.07
802.815	0.07
803.12	0.07
803.425	0.06
803.73	0.06
804.035	0.06
804.339	0.06
804.644	0.07
804.949	0.06
805.253	0.07
805.558	0.06
805.862	0.06
806.167	0.07
806.471	0.06
806.775	0.06
807.08	0.06
807.384	0.05
807.688	0.06
807.992	0.06
808.296	0.06
808.6	0.06
808.904	0.06
809.207	0.06
809.511	0.07
809.815	0.07
810.119	0.06
810.422	0.07
810.726	0.07
811.029	0.08
811.332	0.07
811.636	0.08
811.939	0.07
812.242	0.06
812.546	0.07
812.849	0.07
813.152	0.07
813.455	0.08
813.758	0.07
814.06	0.07
814.363	0.07
814.666	0.08
814.969	0.07
815.271	0.08
815.574	0.07
815.877	0.07
816.179	0.07
816.481	0.07
816.784	0.07
817.086	0.06
817.388	0.06
817.69	0.06
817.993	0.06
818.295	0.06
818.597	0.05
818.899	0.05
819.2	0.05
819.502	0.05
819.804	0.05
820.106	0.05
820.407	0.05
820.709	0.05
821.01	0.05
821.312	0.05
821.613	0.05
821.915	0.05
822.216	0.05
822.517	0.04
822.818	0.04
823.119	0.05
823.42	0.04
823.721	0.04
824.022	0.05
824.323	0.04
824.624	0.05
824.925	0.05
825.226	0.05
825.526	0.05
825.827	0.04
826.127	0.04
826.428	0.05
826.728	0.05
827.028	0.04
827.329	0.04
827.629	0.03
827.929	0.04
828.229	0.04
828.529	0.05
828.829	0.04
829.129	0.05
829.429	0.05
829.729	0.04
830.029	0.04
830.328	0.05
830.628	0.04
830.927	0.03
831.227	0.03
831.526	0.04
831.826	0.04
832.125	0.04
832.424	0.04
832.724	0.04
833.023	0.04
833.322	0.04
833.621	0.04
833.92	0.03
834.219	0.04
834.518	0.03
834.816	0.03
835.115	0.03
835.414	0.02
835.712	0.03
836.011	0.03
836.309	0.03
836.608	0.03
836.906	0.02
837.205	0.01
837.503	0.02
837.801	0.01
838.099	0
838.397	-0
838.695	0
838.993	0.01
839.291	-0
839.589	-0
839.887	0
840.184	-0.01
840.482	-0.01
840.78	-0.01
841.077	-0.01
841.375	-0.01
841.672	0
841.969	-0.01
842.267	-0
842.564	-0.01
842.861	-0
843.158	-0
843.455	-0.02
843.752	-0.01
844.049	-0.01
844.346	-0.02
844.643	-0.02
844.94	-0.02
845.236	-0.01
845.533	-0.01
845.83	-0.01
846.126	-0.01
846.423	-0.02
846.719	-0.03
847.015	-0.02
847.312	-0.03
847.608	-0.03
847.904	-0.03
848.2	-0.03
848.496	-0.03
848.792	-0.03
849.088	-0.02
849.384	-0.03
849.68	-0.04
849.975	-0.03
850.271	-0.04
850.567	-0.04
850.862	-0.04
851.158	-0.04
851.453	-0.04
851.748	-0.05
852.044	-0.04
852.339	-0.04
852.634	-0.05
852.929	-0.04
853.224	-0.04
853.519	-0.05
853.814	-0.04
854.109	-0.05
854.404	-0.05
854.699	-0.06
854.994	-0.05
855.288	-0.05
855.583	-0.05
855.877	-0.06
856.172	-0.05
856.466	-0.07
856.76	-0.06
857.055	-0.06
857.349	-0.08
857.643	-0.08
857.937	-0.08
858.231	-0.08
858.525	-0.1
858.819	-0.09
859.113	-0.1
859.407	-0.1
859.701	-0.1
859.994	-0.09
860.288	-0.09
860.581	-0.1
860.875	-0.09
861.168	-0.1
861.462	-0.09
861.755	-0.09
862.048	-0.11
862.341	-0.1
862.634	-0.1
862.928	-0.1
863.221	-0.09
863.513	-0.11
863.806	-0.11
864.099	-0.11
864.392	-0.11
864.685	-0.11
864.977	-0.11
865.27	-0.12
865.562	-0.11
865.855	-0.11
866.147	-0.12
866.44	-0.11
866.732	-0.12
867.024	-0.12
867.316	-0.12
867.608	-0.13
867.9	-0.11
868.192	-0.12
868.484	-0.11
868.776	-0.13
869.068	-0.12
869.359	-0.12
869.651	-0.14
869.943	-0.14
870.234	-0.14
870.526	-0.14
870.817	-0.14
871.108	-0.13
871.4	-0.14
871.691	-0.14
871.982	-0.14
872.273	-0.15
872.564	-0.15
872.855	-0.15
873.146	-0.15
873.437	-0.15
873.728	-0.16
874.019	-0.15
874.309	-0.16
874.6	-0.15
874.89	-0.15
875.181	-0.16
875.471	-0.15
875.762	-0.16
876.052	-0.16
876.342	-0.15
876.632	-0.16
876.922	-0.16
877.213	-0.16
877.503	-0.18
877.792	-0.17
878.082	-0.17
878.372	-0.15
878.662	-0.18
878.952	-0.16
879.241	-0.18
879.531	-0.15
879.82	-0.17
880.11	-0.16
880.399	-0.16
880.688	-0.13
880.978	-0.13
881.267	-0.13
