Data from 12-12-AQDScycling_Absorbance__182__00182.txt Node

Date: Tue Dec 12 11:42:14 EST 2023
User: kyuminlee
Spectrometer: FLMS00943
Trigger mode: 0
Integration Time (sec): 1.000000E-1
Scans to average: 1
Electric dark correction enabled: true
Nonlinearity correction enabled: false
Boxcar width: 0
XAxis mode: Wavelengths
Number of Pixels in Spectrum: 2048
>>>>>Begin Spectral Data<<<<<
179.651	-0
180.037	-0
180.424	-0
180.81	-0.48
181.197	0.27
181.583	-0
181.97	-0.48
182.356	-0
182.743	-0
183.129	0.04
183.515	2.16
183.901	-2.81
184.288	0.28
184.674	-0
185.06	-0
185.446	-0
185.832	-0
186.218	1.23
186.604	-0
186.99	-0.49
187.376	-0
187.762	-0.18
188.148	0.03
188.534	0.19
188.92	0.06
189.305	-0.01
189.691	0.1
190.077	0.18
190.463	0.17
190.848	0.04
191.234	0.15
191.619	0.04
192.005	0.04
192.391	0.08
192.776	0.11
193.161	0.17
193.547	0.22
193.932	0.18
194.318	0.17
194.703	0.12
195.088	0.28
195.473	0.18
195.859	0.45
196.244	0.26
196.629	0.07
197.014	0.07
197.399	0.19
197.784	0.18
198.169	0.16
198.554	0.14
198.939	0.18
199.324	0.13
199.709	0.05
200.094	0.11
200.478	0.05
200.863	0.29
201.248	0.16
201.633	0.2
202.017	0.09
202.402	0.4
202.787	0.15
203.171	0.2
203.556	0.15
203.94	0.18
204.325	0.19
204.709	0.21
205.093	0.21
205.478	0.29
205.862	0.12
206.246	0.23
206.631	0.28
207.015	0.04
207.399	0.22
207.783	0.25
208.167	0.19
208.551	0.11
208.935	0.14
209.319	0.13
209.703	0.27
210.087	0.18
210.471	0.06
210.855	0.22
211.239	0.24
211.623	0.28
212.007	0.28
212.39	0.16
212.774	0.24
213.158	0.14
213.541	0.2
213.925	0.26
214.309	0.4
214.692	0.32
215.076	0.17
215.459	0.21
215.842	0.09
216.226	0.16
216.609	0.48
216.993	0.24
217.376	0.42
217.759	0.22
218.142	0.39
218.525	0.5
218.909	0.3
219.292	0.3
219.675	0.39
220.058	0.44
220.441	0.58
220.824	0.5
221.207	0.79
221.59	0.41
221.973	0.49
222.355	0.73
222.738	0.69
223.121	0.63
223.504	0.66
223.886	0.72
224.269	0.68
224.652	0.94
225.034	0.86
225.417	0.65
225.799	0.7
226.182	0.83
226.564	0.88
226.947	0.76
227.329	0.89
227.711	1
228.094	0.95
228.476	0.96
228.858	0.77
229.24	0.79
229.623	1.08
230.005	0.86
230.387	0.89
230.769	0.91
231.151	1.05
231.533	0.94
231.915	0.98
232.297	0.99
232.679	1.05
233.061	0.98
233.442	1.21
233.824	0.88
234.206	1.22
234.588	1.04
234.969	1.19
235.351	1.05
235.733	1
236.114	1.39
236.496	1.09
236.877	1.03
237.259	1.05
237.64	1.2
238.022	1.11
238.403	1.1
238.784	1.01
239.165	1.03
239.547	1.07
239.928	1.19
240.309	1.04
240.69	1.09
241.071	1.2
241.452	1.25
241.834	1.26
242.215	1.12
242.595	1.07
242.976	1.15
243.357	1.19
243.738	1.09
244.119	1.27
244.5	1.21
244.881	1.29
245.261	1.22
245.642	1.09
246.023	1.16
246.403	1.28
246.784	1.24
247.164	1.38
247.545	1.34
247.925	1.26
248.306	1.24
248.686	1.56
249.067	1.38
249.447	1.33
249.827	1.49
250.207	1.8
250.588	1.41
250.968	1.44
251.348	1.26
251.728	1.62
252.108	1.36
252.488	1.39
252.868	1.28
253.248	1.28
253.628	1.44
254.008	1.46
254.388	1.33
254.768	1.34
255.147	1.34
255.527	1.44
255.907	1.45
256.287	1.45
256.666	1.33
257.046	1.56
257.425	1.47
257.805	1.35
258.184	1.39
258.564	1.35
258.943	1.37
259.323	1.5
259.702	1.73
260.081	1.52
260.461	1.42
260.84	1.52
261.219	1.63
261.598	1.57
261.977	1.44
262.356	1.4
262.736	1.57
263.115	1.56
263.494	1.51
263.873	1.38
264.251	1.71
264.63	1.6
265.009	1.34
265.388	1.46
265.767	1.34
266.145	1.4
266.524	1.45
266.903	1.42
267.281	1.44
267.66	1.39
268.039	1.56
268.417	1.44
268.796	1.41
269.174	1.49
269.552	1.45
269.931	1.48
270.309	1.51
270.687	1.45
271.066	1.59
271.444	1.49
271.822	1.56
272.2	1.47
272.578	1.49
272.956	1.37
273.334	1.41
273.712	1.41
274.09	1.44
274.468	1.52
274.846	1.31
275.224	1.41
275.602	1.44
275.98	1.52
276.357	1.41
276.735	1.51
277.113	1.39
277.49	1.3
277.868	1.37
278.246	1.5
278.623	1.31
279.001	1.35
279.378	1.34
279.756	1.45
280.133	1.71
280.51	1.49
280.888	1.41
281.265	1.44
281.642	1.44
282.019	1.61
282.396	1.62
282.773	1.56
283.151	1.56
283.528	1.57
283.905	1.52
284.282	1.61
284.659	1.64
285.035	1.35
285.412	1.35
285.789	1.56
286.166	1.49
286.543	1.57
286.919	1.54
287.296	1.42
287.673	1.67
288.049	1.61
288.426	1.5
288.802	1.55
289.179	1.62
289.555	1.67
289.932	1.57
290.308	1.39
290.684	1.36
291.061	1.46
291.437	1.67
291.813	1.36
292.189	1.32
292.565	1.4
292.942	1.37
293.318	1.47
293.694	1.47
294.07	1.35
294.446	1.52
294.822	1.54
295.197	1.42
295.573	1.46
295.949	1.39
296.325	1.57
296.701	1.43
297.076	1.66
297.452	1.72
297.828	1.52
298.203	1.48
298.579	1.45
298.954	1.44
299.33	1.5
299.705	1.61
300.081	1.5
300.456	1.43
300.831	1.56
301.206	1.51
301.582	1.61
301.957	1.5
302.332	1.57
302.707	1.43
303.082	1.3
303.457	1.41
303.832	1.46
304.207	1.28
304.582	1.36
304.957	1.48
305.332	1.5
305.707	1.45
306.082	1.5
306.456	1.35
306.831	1.39
307.206	1.38
307.58	1.44
307.955	1.33
308.33	1.4
308.704	1.4
309.079	1.32
309.453	1.48
309.828	1.43
310.202	1.34
310.576	1.36
310.951	1.41
311.325	1.4
311.699	1.35
312.073	1.27
312.447	1.42
312.821	1.3
313.196	1.42
313.57	1.25
313.944	1.33
314.317	1.31
314.691	1.33
315.065	1.42
315.439	1.27
315.813	1.41
316.187	1.3
316.56	1.41
316.934	1.39
317.308	1.41
317.681	1.49
318.055	1.42
318.428	1.38
318.802	1.57
319.175	1.53
319.549	1.39
319.922	1.36
320.295	1.35
320.669	1.5
321.042	1.42
321.415	1.54
321.788	1.34
322.162	1.37
322.535	1.53
322.908	1.42
323.281	1.35
323.654	1.6
324.027	1.43
324.4	1.39
324.773	1.42
325.145	1.41
325.518	1.39
325.891	1.42
326.264	1.55
326.636	1.39
327.009	1.35
327.382	1.46
327.754	1.56
328.127	1.53
328.499	1.34
328.872	1.5
329.244	1.47
329.616	1.47
329.989	1.44
330.361	1.45
330.733	1.37
331.106	1.33
331.478	1.58
331.85	1.43
332.222	1.31
332.594	1.41
332.966	1.42
333.338	1.5
333.71	1.41
334.082	1.57
334.454	1.37
334.826	1.53
335.197	1.59
335.569	1.41
335.941	1.35
336.312	1.5
336.684	1.42
337.056	1.4
337.427	1.44
337.799	1.43
338.17	1.41
338.542	1.46
338.913	1.5
339.284	1.53
339.656	1.52
340.027	1.48
340.398	1.53
340.769	1.5
341.141	1.62
341.512	1.52
341.883	1.55
342.254	1.45
342.625	1.52
342.996	1.43
343.367	1.43
343.738	1.37
344.108	1.38
344.479	1.44
344.85	1.39
345.221	1.4
345.591	1.29
345.962	1.29
346.333	1.49
346.703	1.33
347.074	1.33
347.444	1.26
347.815	1.33
348.185	1.45
348.556	1.32
348.926	1.29
349.296	1.37
349.666	1.33
350.037	1.27
350.407	1.26
350.777	1.42
351.147	1.37
351.517	1.4
351.887	1.35
352.257	1.36
352.627	1.26
352.997	1.31
353.367	1.36
353.737	1.38
354.106	1.28
354.476	1.29
354.846	1.39
355.216	1.29
355.585	1.44
355.955	1.33
356.324	1.35
356.694	1.34
357.063	1.32
357.433	1.28
357.802	1.46
358.171	1.4
358.541	1.33
358.91	1.39
359.279	1.32
359.648	1.3
360.017	1.4
360.387	1.29
360.756	1.33
361.125	1.33
361.494	1.6
361.863	1.32
362.231	1.3
362.6	1.36
362.969	1.49
363.338	1.32
363.707	1.34
364.075	1.48
364.444	1.31
364.813	1.27
365.181	1.33
365.55	1.34
365.918	1.44
366.287	1.4
366.655	1.47
367.024	1.51
367.392	1.39
367.76	1.38
368.128	1.29
368.497	1.36
368.865	1.33
369.233	1.35
369.601	1.34
369.969	1.35
370.337	1.35
370.705	1.35
371.073	1.44
371.441	1.42
371.809	1.35
372.177	1.38
372.544	1.44
372.912	1.55
373.28	1.4
373.647	1.46
374.015	1.45
374.383	1.46
374.75	1.44
375.118	1.4
375.485	1.52
375.853	1.42
376.22	1.42
376.587	1.4
376.955	1.46
377.322	1.44
377.689	1.4
378.056	1.43
378.423	1.43
378.79	1.41
379.157	1.38
379.524	1.63
379.891	1.39
380.258	1.48
380.625	1.39
380.992	1.37
381.359	1.62
381.726	1.67
382.092	1.51
382.459	1.49
382.826	1.46
383.192	1.46
383.559	1.59
383.925	1.49
384.292	1.5
384.658	1.63
385.025	1.5
385.391	1.56
385.757	1.76
386.123	1.51
386.49	1.58
386.856	1.54
387.222	1.56
387.588	1.55
387.954	1.72
388.32	1.65
388.686	1.51
389.052	1.49
389.418	1.68
389.784	1.55
390.15	1.47
390.515	1.39
390.881	1.55
391.247	1.44
391.613	1.64
391.978	1.5
392.344	1.63
392.709	1.6
393.075	1.56
393.44	1.5
393.806	1.58
394.171	1.56
394.536	1.53
394.902	1.58
395.267	1.45
395.632	1.35
395.997	1.54
396.362	1.41
396.727	1.56
397.092	1.45
397.457	1.49
397.822	1.5
398.187	1.58
398.552	1.56
398.917	1.61
399.282	1.44
399.646	1.48
400.011	1.65
400.376	1.38
400.74	1.38
401.105	1.41
401.47	1.56
401.834	1.46
402.199	1.51
402.563	1.58
402.927	1.5
403.292	1.49
403.656	1.48
404.02	1.58
404.384	1.65
404.749	1.52
405.113	1.44
405.477	1.53
405.841	1.51
406.205	1.53
406.569	1.43
406.933	1.38
407.296	1.46
407.66	1.41
408.024	1.43
408.388	1.39
408.752	1.46
409.115	1.58
409.479	1.45
409.842	1.39
410.206	1.31
410.569	1.36
410.933	1.37
411.296	1.27
411.66	1.45
412.023	1.29
412.386	1.35
412.749	1.23
413.113	1.35
413.476	1.18
413.839	1.28
414.202	1.39
414.565	1.2
414.928	1.28
415.291	1.31
415.654	1.23
416.017	1.33
416.38	1.22
416.742	1.17
417.105	1.21
417.468	1.21
417.83	1.27
418.193	1.32
418.556	1.26
418.918	1.23
419.281	1.24
419.643	1.29
420.005	1.28
420.368	1.29
420.73	1.21
421.092	1.22
421.455	1.29
421.817	1.15
422.179	1.23
422.541	1.19
422.903	1.25
423.265	1.26
423.627	1.19
423.989	1.27
424.351	1.18
424.713	1.23
425.075	1.22
425.436	1.17
425.798	1.17
426.16	1.27
426.521	1.17
426.883	1.21
427.245	1.18
427.606	1.15
427.967	1.13
428.329	1.17
428.69	1.23
429.052	1.17
429.413	1.22
429.774	1.21
430.135	1.2
430.497	1.2
430.858	1.11
431.219	1.2
431.58	1.15
431.941	1.17
432.302	1.08
432.663	1.16
433.024	1.2
433.384	1.14
433.745	1.13
434.106	1.13
434.467	1.14
434.827	1.13
435.188	1.08
435.548	1.15
435.909	1.1
436.269	1.1
436.63	1.1
436.99	1.12
437.351	1.05
437.711	1.1
438.071	1.04
438.431	1.12
438.792	1.07
439.152	1.08
439.512	1.03
439.872	1.08
440.232	1.07
440.592	1.08
440.952	1.06
441.312	1.02
441.671	1.04
442.031	1.03
442.391	1.03
442.751	1.03
443.11	1.01
443.47	0.98
443.83	0.99
444.189	0.99
444.549	0.97
444.908	0.97
445.267	0.98
445.627	0.94
445.986	0.96
446.345	0.94
446.705	0.96
447.064	0.92
447.423	0.95
447.782	0.95
448.141	0.95
448.5	0.87
448.859	0.92
449.218	0.9
449.577	0.9
449.936	0.9
450.295	0.89
450.653	0.89
451.012	0.88
451.371	0.87
451.729	0.88
452.088	0.88
452.447	0.87
452.805	0.88
453.163	0.86
453.522	0.86
453.88	0.82
454.239	0.84
454.597	0.81
454.955	0.8
455.313	0.8
455.671	0.8
456.029	0.79
456.388	0.79
456.746	0.78
457.104	0.78
457.461	0.76
457.819	0.76
458.177	0.72
458.535	0.72
458.893	0.74
459.25	0.71
459.608	0.72
459.966	0.69
460.323	0.69
460.681	0.69
461.038	0.67
461.396	0.66
461.753	0.67
462.111	0.66
462.468	0.65
462.825	0.63
463.182	0.63
463.54	0.62
463.897	0.64
464.254	0.6
464.611	0.6
464.968	0.6
465.325	0.6
465.682	0.56
466.039	0.58
466.395	0.57
466.752	0.56
467.109	0.56
467.466	0.56
467.822	0.55
468.179	0.54
468.535	0.51
468.892	0.53
469.248	0.51
469.605	0.49
469.961	0.51
470.318	0.51
470.674	0.49
471.03	0.49
471.386	0.48
471.743	0.46
472.099	0.46
472.455	0.45
472.811	0.45
473.167	0.44
473.523	0.43
473.879	0.44
474.235	0.41
474.59	0.41
474.946	0.41
475.302	0.41
475.657	0.41
476.013	0.39
476.369	0.39
476.724	0.39
477.08	0.38
477.435	0.38
477.791	0.38
478.146	0.37
478.501	0.37
478.857	0.36
479.212	0.35
479.567	0.36
479.922	0.34
480.277	0.34
480.632	0.33
480.987	0.33
481.342	0.33
481.697	0.31
482.052	0.31
482.407	0.31
482.762	0.32
483.116	0.31
483.471	0.3
483.826	0.29
484.18	0.29
484.535	0.29
484.89	0.28
485.244	0.28
485.598	0.28
485.953	0.27
486.307	0.27
486.661	0.27
487.016	0.26
487.37	0.26
487.724	0.26
488.078	0.26
488.432	0.26
488.786	0.25
489.14	0.25
489.494	0.24
489.848	0.24
490.202	0.24
490.556	0.24
490.91	0.23
491.263	0.23
491.617	0.23
491.971	0.23
492.324	0.23
492.678	0.22
493.031	0.22
493.385	0.22
493.738	0.22
494.091	0.21
494.445	0.22
494.798	0.22
495.151	0.21
495.504	0.21
495.857	0.2
496.21	0.21
496.564	0.2
496.916	0.21
497.269	0.21
497.622	0.21
497.975	0.2
498.328	0.21
498.681	0.21
499.033	0.2
499.386	0.2
499.739	0.19
500.091	0.19
500.444	0.19
500.796	0.19
501.149	0.19
501.501	0.19
501.854	0.19
502.206	0.19
502.558	0.19
502.91	0.19
503.263	0.18
503.615	0.18
503.967	0.18
504.319	0.19
504.671	0.19
505.023	0.18
505.375	0.18
505.726	0.18
506.078	0.18
506.43	0.18
506.782	0.17
507.133	0.18
507.485	0.18
507.837	0.18
508.188	0.18
508.54	0.17
508.891	0.18
509.243	0.17
509.594	0.18
509.945	0.17
510.296	0.17
510.648	0.17
510.999	0.17
511.35	0.17
511.701	0.17
512.052	0.17
512.403	0.18
512.754	0.17
513.105	0.17
513.456	0.17
513.807	0.17
514.157	0.17
514.508	0.17
514.859	0.16
515.209	0.16
515.56	0.16
515.91	0.16
516.261	0.17
516.611	0.15
516.962	0.16
517.312	0.15
517.662	0.16
518.013	0.16
518.363	0.16
518.713	0.16
519.063	0.16
519.413	0.16
519.763	0.16
520.113	0.16
520.463	0.17
520.813	0.17
521.163	0.17
521.512	0.17
521.862	0.17
522.212	0.16
522.562	0.16
522.911	0.16
523.261	0.17
523.61	0.16
523.96	0.16
524.309	0.17
524.658	0.16
525.008	0.16
525.357	0.16
525.706	0.17
526.056	0.16
526.405	0.16
526.754	0.16
527.103	0.16
527.452	0.17
527.801	0.17
528.15	0.16
528.499	0.17
528.847	0.16
529.196	0.17
529.545	0.17
529.893	0.17
530.242	0.17
530.591	0.18
530.939	0.18
531.288	0.18
531.636	0.17
531.985	0.18
532.333	0.18
532.681	0.17
533.029	0.18
533.378	0.17
533.726	0.18
534.074	0.18
534.422	0.17
534.77	0.17
535.118	0.17
535.466	0.17
535.814	0.17
536.162	0.17
536.509	0.17
536.857	0.17
537.205	0.18
537.552	0.18
537.9	0.18
538.248	0.18
538.595	0.17
538.943	0.18
539.29	0.17
539.637	0.17
539.985	0.18
540.332	0.17
540.679	0.17
541.026	0.17
541.373	0.17
541.721	0.16
542.068	0.16
542.415	0.17
542.762	0.17
543.108	0.16
543.455	0.16
543.802	0.16
544.149	0.16
544.496	0.17
544.842	0.17
545.189	0.16
545.535	0.16
545.882	0.17
546.228	0.17
546.575	0.16
546.921	0.16
547.267	0.16
547.614	0.17
547.96	0.16
548.306	0.17
548.652	0.17
548.998	0.17
549.344	0.17
549.69	0.17
550.036	0.16
550.382	0.17
550.728	0.18
551.074	0.18
551.42	0.18
551.765	0.18
552.111	0.18
552.457	0.18
552.802	0.18
553.148	0.17
553.493	0.17
553.839	0.17
554.184	0.18
554.529	0.17
554.875	0.18
555.22	0.18
555.565	0.18
555.91	0.17
556.255	0.19
556.6	0.18
556.945	0.17
557.29	0.18
557.635	0.17
557.98	0.18
558.325	0.18
558.67	0.18
559.014	0.19
559.359	0.18
559.704	0.17
560.048	0.17
560.393	0.17
560.737	0.17
561.082	0.17
561.426	0.17
561.77	0.17
562.115	0.17
562.459	0.16
562.803	0.17
563.147	0.16
563.491	0.17
563.835	0.17
564.179	0.17
564.523	0.17
564.867	0.16
565.211	0.17
565.555	0.17
565.899	0.18
566.242	0.17
566.586	0.16
566.93	0.17
567.273	0.18
567.617	0.17
567.96	0.18
568.304	0.18
568.647	0.17
568.99	0.18
569.334	0.18
569.677	0.18
570.02	0.18
570.363	0.18
570.706	0.17
571.049	0.18
571.392	0.18
571.735	0.16
572.078	0.17
572.421	0.18
572.764	0.18
573.106	0.17
573.449	0.17
573.792	0.17
574.134	0.17
574.477	0.18
574.819	0.17
575.162	0.17
575.504	0.17
575.847	0.18
576.189	0.18
576.531	0.18
576.873	0.18
577.215	0.18
577.558	0.18
577.9	0.17
578.242	0.18
578.584	0.18
578.926	0.18
579.267	0.17
579.609	0.17
579.951	0.17
580.293	0.18
580.634	0.18
580.976	0.17
581.318	0.17
581.659	0.16
582.001	0.16
582.342	0.16
582.683	0.17
583.025	0.16
583.366	0.16
583.707	0.17
584.049	0.17
584.39	0.17
584.731	0.16
585.072	0.16
585.413	0.18
585.754	0.17
586.095	0.17
586.435	0.17
586.776	0.17
587.117	0.17
587.458	0.17
587.798	0.17
588.139	0.17
588.48	0.17
588.82	0.17
589.161	0.17
589.501	0.17
589.841	0.17
590.182	0.16
590.522	0.17
590.862	0.17
591.202	0.18
591.542	0.16
591.882	0.17
592.222	0.17
592.562	0.17
592.902	0.17
593.242	0.17
593.582	0.18
593.922	0.16
594.261	0.17
594.601	0.17
594.941	0.17
595.28	0.17
595.62	0.17
595.959	0.17
596.299	0.17
596.638	0.17
596.977	0.17
597.317	0.18
597.656	0.17
597.995	0.17
598.334	0.16
598.673	0.17
599.012	0.16
599.351	0.17
599.69	0.16
600.029	0.16
600.368	0.17
600.707	0.17
601.046	0.17
601.384	0.17
601.723	0.17
602.061	0.16
602.4	0.17
602.738	0.17
603.077	0.16
603.415	0.16
603.754	0.17
604.092	0.16
604.43	0.17
604.768	0.17
605.107	0.17
605.445	0.16
605.783	0.17
606.121	0.16
606.459	0.16
606.796	0.17
607.134	0.16
607.472	0.16
607.81	0.17
608.148	0.16
608.485	0.17
608.823	0.16
609.16	0.16
609.498	0.16
609.835	0.16
610.173	0.17
610.51	0.16
610.847	0.16
611.185	0.16
611.522	0.17
611.859	0.17
612.196	0.17
612.533	0.18
612.87	0.18
613.207	0.17
613.544	0.17
613.881	0.18
614.217	0.17
614.554	0.17
614.891	0.16
615.228	0.17
615.564	0.17
615.901	0.18
616.237	0.17
616.574	0.18
616.91	0.18
617.246	0.17
617.583	0.17
617.919	0.17
618.255	0.18
618.591	0.17
618.927	0.18
619.263	0.17
619.599	0.17
619.935	0.17
620.271	0.18
620.607	0.17
620.943	0.17
621.279	0.18
621.614	0.17
621.95	0.16
622.286	0.16
622.621	0.16
622.957	0.17
623.292	0.16
623.627	0.16
623.963	0.16
624.298	0.16
624.633	0.16
624.968	0.16
625.304	0.16
625.639	0.16
625.974	0.16
626.309	0.16
626.644	0.15
626.979	0.16
627.313	0.16
627.648	0.16
627.983	0.16
628.318	0.15
628.652	0.15
628.987	0.16
629.321	0.16
629.656	0.15
629.99	0.15
630.325	0.16
630.659	0.16
630.993	0.15
631.327	0.16
631.662	0.15
631.996	0.15
632.33	0.16
632.664	0.15
632.998	0.15
633.332	0.15
633.666	0.15
633.999	0.15
634.333	0.14
634.667	0.15
635.001	0.15
635.334	0.15
635.668	0.15
636.001	0.14
636.335	0.15
636.668	0.15
637.001	0.14
637.335	0.14
637.668	0.15
638.001	0.14
638.334	0.15
638.668	0.14
639.001	0.14
639.334	0.14
639.667	0.14
639.999	0.14
640.332	0.15
640.665	0.14
640.998	0.14
641.331	0.14
641.663	0.13
641.996	0.13
642.328	0.14
642.661	0.14
642.993	0.14
643.326	0.14
643.658	0.14
643.99	0.13
644.323	0.13
644.655	0.14
644.987	0.14
645.319	0.15
645.651	0.14
645.983	0.14
646.315	0.14
646.647	0.14
646.979	0.15
647.31	0.15
647.642	0.15
647.974	0.15
648.305	0.15
648.637	0.15
648.968	0.15
649.3	0.15
649.631	0.15
649.963	0.14
650.294	0.15
650.625	0.14
650.957	0.15
651.288	0.14
651.619	0.15
651.95	0.15
652.281	0.15
652.612	0.14
652.943	0.14
653.274	0.15
653.604	0.14
653.935	0.14
654.266	0.14
654.596	0.14
654.927	0.14
655.258	0.15
655.588	0.14
655.918	0.14
656.249	0.12
656.579	0.14
656.909	0.14
657.24	0.13
657.57	0.14
657.9	0.15
658.23	0.14
658.56	0.15
658.89	0.15
659.22	0.13
659.55	0.15
659.88	0.15
660.209	0.15
660.539	0.15
660.869	0.15
661.198	0.14
661.528	0.14
661.857	0.14
662.187	0.15
662.516	0.15
662.846	0.14
663.175	0.14
663.504	0.14
663.833	0.13
664.163	0.14
664.492	0.13
664.821	0.13
665.15	0.14
665.479	0.13
665.807	0.13
666.136	0.13
666.465	0.13
666.794	0.14
667.122	0.13
667.451	0.13
667.78	0.14
668.108	0.13
668.437	0.13
668.765	0.13
669.093	0.14
669.422	0.13
669.75	0.14
670.078	0.14
670.406	0.14
670.734	0.13
671.062	0.13
671.39	0.13
671.718	0.13
672.046	0.13
672.374	0.13
672.702	0.13
673.029	0.13
673.357	0.13
673.685	0.14
674.012	0.13
674.34	0.13
674.667	0.13
674.995	0.13
675.322	0.13
675.649	0.12
675.977	0.13
676.304	0.12
676.631	0.13
676.958	0.12
677.285	0.12
677.612	0.12
677.939	0.12
678.266	0.12
678.593	0.12
678.92	0.12
679.246	0.12
679.573	0.12
679.9	0.11
680.226	0.11
680.553	0.1
680.879	0.11
681.206	0.12
681.532	0.12
681.858	0.11
682.184	0.11
682.511	0.11
682.837	0.11
683.163	0.11
683.489	0.12
683.815	0.11
684.141	0.11
684.467	0.11
684.793	0.11
685.118	0.11
685.444	0.11
685.77	0.12
686.095	0.11
686.421	0.11
686.746	0.11
687.072	0.12
687.397	0.11
687.723	0.12
688.048	0.12
688.373	0.11
688.698	0.12
689.023	0.11
689.349	0.12
689.674	0.12
689.999	0.11
690.323	0.11
690.648	0.1
690.973	0.1
691.298	0.1
691.623	0.1
691.947	0.1
692.272	0.1
692.596	0.1
692.921	0.1
693.245	0.1
693.57	0.09
693.894	0.11
694.218	0.1
694.543	0.1
694.867	0.09
695.191	0.09
695.515	0.1
695.839	0.09
696.163	0.1
696.487	0.1
696.811	0.09
697.135	0.1
697.458	0.1
697.782	0.09
698.106	0.1
698.429	0.1
698.753	0.09
699.076	0.1
699.4	0.1
699.723	0.1
700.046	0.1
700.37	0.1
700.693	0.1
701.016	0.1
701.339	0.1
701.662	0.1
701.985	0.11
702.308	0.1
702.631	0.1
702.954	0.1
703.277	0.1
703.599	0.1
703.922	0.1
704.245	0.09
704.567	0.09
704.89	0.1
705.212	0.1
705.535	0.09
705.857	0.09
706.179	0.09
706.502	0.09
706.824	0.08
707.146	0.08
707.468	0.09
707.79	0.09
708.112	0.1
708.434	0.09
708.756	0.09
709.078	0.1
709.399	0.09
709.721	0.09
710.043	0.09
710.364	0.09
710.686	0.09
711.007	0.08
711.329	0.09
711.65	0.09
711.972	0.09
712.293	0.1
712.614	0.09
712.935	0.09
713.256	0.09
713.577	0.1
713.898	0.08
714.219	0.09
714.54	0.08
714.861	0.08
715.182	0.09
715.503	0.08
715.823	0.08
716.144	0.08
716.464	0.07
716.785	0.07
717.105	0.08
717.426	0.09
717.746	0.08
718.066	0.07
718.387	0.08
718.707	0.07
719.027	0.08
719.347	0.07
719.667	0.08
719.987	0.07
720.307	0.07
720.627	0.06
720.947	0.07
721.266	0.07
721.586	0.06
721.906	0.07
722.225	0.06
722.545	0.06
722.864	0.06
723.184	0.07
723.503	0.06
723.823	0.07
724.142	0.05
724.461	0.06
724.78	0.07
725.099	0.07
725.418	0.07
725.737	0.06
726.056	0.07
726.375	0.07
726.694	0.07
727.013	0.07
727.331	0.06
727.65	0.07
727.969	0.07
728.287	0.07
728.606	0.07
728.924	0.06
729.242	0.06
729.561	0.07
729.879	0.06
730.197	0.07
730.515	0.07
730.834	0.06
731.152	0.07
731.47	0.06
731.788	0.06
732.105	0.06
732.423	0.06
732.741	0.06
733.059	0.06
733.376	0.07
733.694	0.06
734.012	0.06
734.329	0.06
734.647	0.06
734.964	0.07
735.281	0.06
735.599	0.07
735.916	0.07
736.233	0.07
736.55	0.06
736.867	0.06
737.184	0.07
737.501	0.06
737.818	0.07
738.135	0.07
738.452	0.07
738.768	0.07
739.085	0.07
739.402	0.05
739.718	0.07
740.035	0.07
740.351	0.07
740.668	0.07
740.984	0.07
741.3	0.07
741.617	0.07
741.933	0.06
742.249	0.07
742.565	0.06
742.881	0.07
743.197	0.07
743.513	0.07
743.829	0.06
744.144	0.06
744.46	0.07
744.776	0.06
745.091	0.07
745.407	0.08
745.722	0.06
746.038	0.06
746.353	0.07
746.669	0.07
746.984	0.06
747.299	0.06
747.614	0.07
747.93	0.07
748.245	0.06
748.56	0.07
748.875	0.06
749.189	0.07
749.504	0.07
749.819	0.06
750.134	0.06
750.448	0.07
750.763	0.06
751.078	0.06
751.392	0.06
751.707	0.07
752.021	0.07
752.335	0.08
752.65	0.06
752.964	0.07
753.278	0.06
753.592	0.07
753.906	0.06
754.22	0.06
754.534	0.07
754.848	0.07
755.162	0.07
755.476	0.07
755.789	0.07
756.103	0.06
756.417	0.07
756.73	0.06
757.044	0.07
757.357	0.07
757.671	0.07
757.984	0.07
758.297	0.07
758.61	0.07
758.924	0.07
759.237	0.07
759.55	0.07
759.863	0.06
760.176	0.07
760.488	0.06
760.801	0.06
761.114	0.06
761.427	0.06
761.739	0.07
762.052	0.05
762.365	0.06
762.677	0.06
762.99	0.05
763.302	0.06
763.614	0.05
763.926	0.06
764.239	0.05
764.551	0.05
764.863	0.06
765.175	0.06
765.487	0.05
765.799	0.05
766.111	0.05
766.423	0.05
766.734	0.05
767.046	0.05
767.358	0.06
767.669	0.06
767.981	0.05
768.292	0.05
768.604	0.05
768.915	0.05
769.226	0.05
769.537	0.04
769.849	0.05
770.16	0.05
770.471	0.05
770.782	0.05
771.093	0.04
771.404	0.04
771.715	0.04
772.025	0.04
772.336	0.05
772.647	0.04
772.957	0.04
773.268	0.05
773.578	0.04
773.889	0.05
774.199	0.05
774.51	0.04
774.82	0.05
775.13	0.04
775.44	0.04
775.75	0.06
776.06	0.05
776.37	0.04
776.68	0.05
776.99	0.05
777.3	0.04
777.61	0.06
777.92	0.05
778.229	0.05
778.539	0.04
778.848	0.05
779.158	0.05
779.467	0.05
779.777	0.05
780.086	0.06
780.395	0.04
780.704	0.05
781.013	0.04
781.323	0.04
781.632	0.04
781.941	0.05
782.249	0.05
782.558	0.05
782.867	0.05
783.176	0.04
783.485	0.04
783.793	0.05
784.102	0.05
784.41	0.05
784.719	0.05
785.027	0.04
785.335	0.05
785.644	0.05
785.952	0.04
786.26	0.04
786.568	0.04
786.876	0.04
787.184	0.04
787.492	0.04
787.8	0.05
788.108	0.04
788.416	0.04
788.723	0.04
789.031	0.03
789.338	0.04
789.646	0.04
789.953	0.04
790.261	0.05
790.568	0.05
790.876	0.04
791.183	0.05
791.49	0.04
791.797	0.04
792.104	0.03
792.411	0.05
792.718	0.04
793.025	0.05
793.332	0.04
793.639	0.05
793.945	0.06
794.252	0.04
794.559	0.05
794.865	0.05
795.172	0.05
795.478	0.05
795.784	0.05
796.091	0.05
796.397	0.05
796.703	0.05
797.009	0.06
797.315	0.05
797.622	0.05
797.927	0.05
798.233	0.05
798.539	0.05
798.845	0.04
799.151	0.05
799.456	0.05
799.762	0.05
800.068	0.04
800.373	0.05
800.679	0.04
800.984	0.04
801.289	0.04
801.595	0.04
801.9	0.04
802.205	0.04
802.51	0.05
802.815	0.04
803.12	0.04
803.425	0.05
803.73	0.03
804.035	0.04
804.339	0.04
804.644	0.04
804.949	0.04
805.253	0.04
805.558	0.04
805.862	0.04
806.167	0.04
806.471	0.04
806.775	0.04
807.08	0.04
807.384	0.04
807.688	0.04
807.992	0.04
808.296	0.04
808.6	0.05
808.904	0.05
809.207	0.05
809.511	0.05
809.815	0.05
810.119	0.04
810.422	0.05
810.726	0.05
811.029	0.06
811.332	0.05
811.636	0.05
811.939	0.05
812.242	0.05
812.546	0.06
812.849	0.05
813.152	0.06
813.455	0.05
813.758	0.05
814.06	0.05
814.363	0.06
814.666	0.05
814.969	0.06
815.271	0.05
815.574	0.05
815.877	0.05
816.179	0.04
816.481	0.04
816.784	0.05
817.086	0.04
817.388	0.03
817.69	0.03
817.993	0.03
818.295	0.03
818.597	0.03
818.899	0.02
819.2	0.03
819.502	0.03
819.804	0.03
820.106	0.02
820.407	0.02
820.709	0.03
821.01	0.03
821.312	0.03
821.613	0.02
821.915	0.03
822.216	0.02
822.517	0.03
822.818	0.03
823.119	0.03
823.42	0.04
823.721	0.03
824.022	0.03
824.323	0.04
824.624	0.03
824.925	0.03
825.226	0.04
825.526	0.04
825.827	0.03
826.127	0.03
826.428	0.04
826.728	0.03
827.028	0.03
827.329	0.03
827.629	0.02
827.929	0.03
828.229	0.04
828.529	0.04
828.829	0.03
829.129	0.03
829.429	0.03
829.729	0.04
830.029	0.03
830.328	0.03
830.628	0.02
830.927	0.02
831.227	0.03
831.526	0.03
831.826	0.03
832.125	0.02
832.424	0.03
832.724	0.03
833.023	0.03
833.322	0.03
833.621	0.03
833.92	0.02
834.219	0.02
834.518	0.02
834.816	0.02
835.115	0.02
835.414	0.02
835.712	0.02
836.011	0.02
836.309	0.02
836.608	0.02
836.906	0.01
837.205	0.01
837.503	0
837.801	0
838.099	0
838.397	-0.01
838.695	0
838.993	0.01
839.291	-0.01
839.589	-0.01
839.887	-0.01
840.184	-0.02
840.482	-0.01
840.78	-0.02
841.077	-0.02
841.375	-0.02
841.672	-0.02
841.969	-0.02
842.267	-0.02
842.564	-0.03
842.861	-0.02
843.158	-0.03
843.455	-0.05
843.752	-0.04
844.049	-0.04
844.346	-0.04
844.643	-0.04
844.94	-0.05
845.236	-0.03
845.533	-0.04
845.83	-0.04
846.126	-0.04
846.423	-0.04
846.719	-0.06
847.015	-0.05
847.312	-0.05
847.608	-0.05
847.904	-0.07
848.2	-0.06
848.496	-0.06
848.792	-0.05
849.088	-0.05
849.384	-0.06
849.68	-0.06
849.975	-0.06
850.271	-0.06
850.567	-0.06
850.862	-0.06
851.158	-0.05
851.453	-0.05
851.748	-0.07
852.044	-0.06
852.339	-0.07
852.634	-0.08
852.929	-0.07
853.224	-0.07
853.519	-0.08
853.814	-0.06
854.109	-0.08
854.404	-0.08
854.699	-0.08
854.994	-0.07
855.288	-0.08
855.583	-0.07
855.877	-0.09
856.172	-0.08
856.466	-0.09
856.76	-0.08
857.055	-0.09
857.349	-0.09
857.643	-0.1
857.937	-0.1
858.231	-0.09
858.525	-0.1
858.819	-0.11
859.113	-0.11
859.407	-0.12
859.701	-0.11
859.994	-0.11
860.288	-0.1
860.581	-0.1
860.875	-0.12
861.168	-0.13
861.462	-0.12
861.755	-0.11
862.048	-0.12
862.341	-0.12
862.634	-0.13
862.928	-0.12
863.221	-0.12
863.513	-0.13
863.806	-0.12
864.099	-0.12
864.392	-0.12
864.685	-0.11
864.977	-0.11
865.27	-0.13
865.562	-0.13
865.855	-0.12
866.147	-0.13
866.44	-0.12
866.732	-0.13
867.024	-0.14
867.316	-0.14
867.608	-0.14
867.9	-0.14
868.192	-0.14
868.484	-0.14
868.776	-0.15
869.068	-0.15
869.359	-0.13
869.651	-0.14
869.943	-0.16
870.234	-0.15
870.526	-0.15
870.817	-0.15
871.108	-0.15
871.4	-0.15
871.691	-0.15
871.982	-0.15
872.273	-0.17
872.564	-0.16
872.855	-0.16
873.146	-0.16
873.437	-0.17
873.728	-0.17
874.019	-0.17
874.309	-0.18
874.6	-0.17
874.89	-0.18
875.181	-0.18
875.471	-0.16
875.762	-0.18
876.052	-0.18
876.342	-0.16
876.632	-0.17
876.922	-0.18
877.213	-0.16
877.503	-0.19
877.792	-0.18
878.082	-0.19
878.372	-0.18
878.662	-0.19
878.952	-0.18
879.241	-0.19
879.531	-0.18
879.82	-0.17
880.11	-0.18
880.399	-0.17
880.688	-0.17
880.978	-0.17
881.267	-0.17
