Data from 12-12-AQDScycling_Absorbance__598__00598.txt Node

Date: Tue Dec 12 13:26:14 EST 2023
User: kyuminlee
Spectrometer: FLMS00943
Trigger mode: 0
Integration Time (sec): 1.000000E-1
Scans to average: 1
Electric dark correction enabled: true
Nonlinearity correction enabled: false
Boxcar width: 0
XAxis mode: Wavelengths
Number of Pixels in Spectrum: 2048
>>>>>Begin Spectral Data<<<<<
179.651	-0.24
180.037	-0.24
180.424	-0.24
180.81	-0.28
181.197	0.78
181.583	-0
181.97	-0.24
182.356	-0
182.743	-0.88
183.129	0.67
183.515	0.38
183.901	-0
184.288	0.12
184.674	-0
185.06	-1.19
185.446	0.23
185.832	-1.49
186.218	-0.08
186.604	-0.28
186.99	-0
187.376	-0
187.762	0.44
188.148	0.44
188.534	0.23
188.92	0.22
189.305	0.22
189.691	0.14
190.077	0.13
190.463	0.26
190.848	0.2
191.234	0.29
191.619	0.18
192.005	0.23
192.391	0.06
192.776	0.2
193.161	0.17
193.547	0.22
193.932	0.1
194.318	0.05
194.703	0.38
195.088	0.36
195.473	0.14
195.859	0.11
196.244	0.24
196.629	0.08
197.014	0.08
197.399	0.12
197.784	0.21
198.169	0.32
198.554	0.23
198.939	0.11
199.324	0.18
199.709	0.1
200.094	0.11
200.478	0.16
200.863	0.22
201.248	0.16
201.633	0.14
202.017	0.09
202.402	0.23
202.787	0.13
203.171	0.24
203.556	0.21
203.94	0.09
204.325	0.28
204.709	0.13
205.093	0.03
205.478	0.18
205.862	0.24
206.246	0.25
206.631	0.21
207.015	0.18
207.399	0.16
207.783	0.19
208.167	0.19
208.551	0.23
208.935	0.25
209.319	0.11
209.703	0.11
210.087	0.5
210.471	0.18
210.855	0.32
211.239	0.3
211.623	0.27
212.007	0.4
212.39	0.51
212.774	0.22
213.158	0.05
213.541	0.21
213.925	0.28
214.309	0.29
214.692	0.37
215.076	0.3
215.459	0.14
215.842	0.17
216.226	0.23
216.609	0.44
216.993	0.24
217.376	0.48
217.759	0.09
218.142	0.24
218.525	0.6
218.909	0.43
219.292	0.45
219.675	0.56
220.058	0.35
220.441	0.49
220.824	0.42
221.207	0.55
221.59	0.46
221.973	0.6
222.355	0.65
222.738	0.78
223.121	0.63
223.504	0.64
223.886	0.77
224.269	0.86
224.652	0.71
225.034	0.83
225.417	0.68
225.799	0.88
226.182	1.06
226.564	0.93
226.947	0.82
227.329	0.8
227.711	1.06
228.094	0.94
228.476	1.07
228.858	0.9
229.24	0.82
229.623	0.92
230.005	0.78
230.387	0.86
230.769	0.81
231.151	1.03
231.533	0.93
231.915	1.01
232.297	0.85
232.679	0.95
233.061	0.96
233.442	1.05
233.824	1.03
234.206	1.15
234.588	1.08
234.969	1.2
235.351	1
235.733	1.07
236.114	1.24
236.496	1.13
236.877	1.21
237.259	1.11
237.64	0.96
238.022	1.16
238.403	1.09
238.784	1.13
239.165	1.02
239.547	1.15
239.928	1.12
240.309	0.99
240.69	1
241.071	1.03
241.452	1.06
241.834	1.06
242.215	1.12
242.595	1.04
242.976	1.2
243.357	1.16
243.738	1.05
244.119	1.37
244.5	1.07
244.881	1.32
245.261	1.28
245.642	1.16
246.023	1.19
246.403	1.27
246.784	1.16
247.164	1.37
247.545	1.34
247.925	1.29
248.306	1.32
248.686	1.37
249.067	1.33
249.447	1.33
249.827	1.58
250.207	1.42
250.588	1.25
250.968	1.41
251.348	1.49
251.728	1.53
252.108	1.45
252.488	1.37
252.868	1.42
253.248	1.39
253.628	1.64
254.008	1.75
254.388	1.28
254.768	1.32
255.147	1.31
255.527	1.41
255.907	1.4
256.287	1.43
256.666	1.41
257.046	1.36
257.425	1.38
257.805	1.44
258.184	1.29
258.564	1.41
258.943	1.42
259.323	1.48
259.702	1.46
260.081	1.4
260.461	1.57
260.84	1.64
261.219	1.79
261.598	1.53
261.977	1.43
262.356	1.59
262.736	1.4
263.115	1.61
263.494	1.46
263.873	1.45
264.251	1.47
264.63	1.52
265.009	1.37
265.388	1.47
265.767	1.37
266.145	1.41
266.524	1.52
266.903	1.44
267.281	1.32
267.66	1.4
268.039	1.53
268.417	1.67
268.796	1.53
269.174	1.43
269.552	1.38
269.931	1.61
270.309	1.48
270.687	2.24
271.066	1.59
271.444	1.47
271.822	1.53
272.2	1.5
272.578	1.44
272.956	1.55
273.334	1.37
273.712	1.41
274.09	1.48
274.468	1.5
274.846	1.38
275.224	1.33
275.602	1.59
275.98	1.63
276.357	1.42
276.735	1.4
277.113	1.48
277.49	1.33
277.868	1.34
278.246	1.44
278.623	1.31
279.001	1.31
279.378	1.55
279.756	1.46
280.133	1.56
280.51	1.37
280.888	1.38
281.265	1.47
281.642	1.43
282.019	1.56
282.396	1.56
282.773	1.49
283.151	1.52
283.528	1.53
283.905	1.59
284.282	1.46
284.659	1.53
285.035	1.42
285.412	1.31
285.789	1.52
286.166	1.46
286.543	1.39
286.919	1.44
287.296	1.32
287.673	1.55
288.049	1.52
288.426	1.62
288.802	1.65
289.179	1.52
289.555	1.67
289.932	1.45
290.308	1.41
290.684	1.34
291.061	1.39
291.437	1.64
291.813	1.39
292.189	1.35
292.565	1.32
292.942	1.31
293.318	1.5
293.694	1.47
294.07	1.31
294.446	1.38
294.822	1.63
295.197	1.39
295.573	1.63
295.949	1.57
296.325	1.41
296.701	1.5
297.076	1.55
297.452	1.52
297.828	1.37
298.203	1.58
298.579	1.35
298.954	1.4
299.33	1.38
299.705	1.3
300.081	1.35
300.456	1.25
300.831	1.28
301.206	1.23
301.582	1.33
301.957	1.27
302.332	1.31
302.707	1.2
303.082	1.15
303.457	1.21
303.832	1.14
304.207	1.1
304.582	1.04
304.957	1.07
305.332	1.06
305.707	1.05
306.082	1.04
306.456	1.01
306.831	0.97
307.206	0.93
307.58	0.96
307.955	0.92
308.33	0.89
308.704	0.89
309.079	0.86
309.453	0.92
309.828	0.84
310.202	0.83
310.576	0.83
310.951	0.83
311.325	0.8
311.699	0.78
312.073	0.75
312.447	0.8
312.821	0.75
313.196	0.73
313.57	0.7
313.944	0.7
314.317	0.71
314.691	0.71
315.065	0.7
315.439	0.68
315.813	0.67
316.187	0.65
316.56	0.68
316.934	0.66
317.308	0.62
317.681	0.64
318.055	0.64
318.428	0.61
318.802	0.62
319.175	0.59
319.549	0.59
319.922	0.62
320.295	0.6
320.669	0.6
321.042	0.63
321.415	0.62
321.788	0.58
322.162	0.56
322.535	0.58
322.908	0.59
323.281	0.58
323.654	0.57
324.027	0.57
324.4	0.57
324.773	0.55
325.145	0.57
325.518	0.57
325.891	0.57
326.264	0.59
326.636	0.57
327.009	0.58
327.382	0.58
327.754	0.6
328.127	0.58
328.499	0.58
328.872	0.62
329.244	0.62
329.616	0.59
329.989	0.61
330.361	0.62
330.733	0.63
331.106	0.61
331.478	0.64
331.85	0.65
332.222	0.63
332.594	0.62
332.966	0.67
333.338	0.72
333.71	0.66
334.082	0.69
334.454	0.68
334.826	0.7
335.197	0.71
335.569	0.68
335.941	0.68
336.312	0.71
336.684	0.75
337.056	0.74
337.427	0.78
337.799	0.78
338.17	0.77
338.542	0.76
338.913	0.82
339.284	0.78
339.656	0.8
340.027	0.82
340.398	0.86
340.769	0.84
341.141	0.85
341.512	0.88
341.883	0.87
342.254	0.93
342.625	0.89
342.996	0.91
343.367	0.95
343.738	0.96
344.108	0.94
344.479	1
344.85	0.99
345.221	1.05
345.591	0.99
345.962	0.99
346.333	1.04
346.703	0.97
347.074	1.03
347.444	1.05
347.815	1.07
348.185	1.15
348.556	1.13
348.926	1.12
349.296	1.21
349.666	1.14
350.037	1.1
350.407	1.15
350.777	1.19
351.147	1.23
351.517	1.18
351.887	1.27
352.257	1.28
352.627	1.21
352.997	1.24
353.367	1.32
353.737	1.39
354.106	1.35
354.476	1.31
354.846	1.35
355.216	1.33
355.585	1.52
355.955	1.51
356.324	1.45
356.694	1.43
357.063	1.39
357.433	1.46
357.802	1.51
358.171	1.62
358.541	1.41
358.91	1.48
359.279	1.59
359.648	1.47
360.017	1.53
360.387	1.47
360.756	1.47
361.125	1.76
361.494	1.66
361.863	1.5
362.231	1.46
362.6	1.62
362.969	1.57
363.338	1.47
363.707	1.98
364.075	1.68
364.444	1.42
364.813	1.64
365.181	1.43
365.55	1.58
365.918	1.87
366.287	1.67
366.655	1.63
367.024	1.78
367.392	1.54
367.76	1.48
368.128	1.56
368.497	1.54
368.865	1.56
369.233	1.46
369.601	1.55
369.969	1.55
370.337	1.53
370.705	1.51
371.073	1.61
371.441	1.66
371.809	1.6
372.177	1.61
372.544	1.65
372.912	1.61
373.28	1.61
373.647	1.81
374.015	1.62
374.383	1.98
374.75	2.04
375.118	1.56
375.485	1.55
375.853	1.72
376.22	1.57
376.587	1.59
376.955	1.82
377.322	1.67
377.689	1.69
378.056	1.43
378.423	1.51
378.79	1.67
379.157	1.55
379.524	1.53
379.891	1.63
380.258	1.63
380.625	1.54
380.992	1.51
381.359	1.7
381.726	1.7
382.092	1.52
382.459	1.62
382.826	1.56
383.192	1.74
383.559	1.68
383.925	1.67
384.292	1.58
384.658	1.74
385.025	1.48
385.391	1.69
385.757	1.72
386.123	1.71
386.49	1.6
386.856	1.64
387.222	1.67
387.588	1.58
387.954	1.7
388.32	1.7
388.686	1.79
389.052	1.57
389.418	1.64
389.784	1.51
390.15	1.72
390.515	1.41
390.881	1.57
391.247	1.55
391.613	1.72
391.978	1.57
392.344	1.83
392.709	1.65
393.075	1.72
393.44	1.61
393.806	1.62
394.171	1.55
394.536	1.57
394.902	1.5
395.267	1.45
395.632	1.47
395.997	1.58
396.362	1.61
396.727	1.53
397.092	1.67
397.457	1.61
397.822	1.55
398.187	1.66
398.552	1.46
398.917	1.8
399.282	1.66
399.646	1.56
400.011	1.72
400.376	1.64
400.74	1.61
401.105	1.51
401.47	1.67
401.834	1.63
402.199	1.47
402.563	1.7
402.927	1.55
403.292	1.68
403.656	1.61
404.02	1.66
404.384	1.81
404.749	1.77
405.113	1.61
405.477	1.7
405.841	1.58
406.205	1.58
406.569	1.59
406.933	1.6
407.296	1.7
407.66	1.57
408.024	1.59
408.388	1.69
408.752	2.07
409.115	1.63
409.479	1.85
409.842	1.58
410.206	1.52
410.569	1.43
410.933	1.6
411.296	1.53
411.66	1.65
412.023	1.47
412.386	1.61
412.749	1.51
413.113	1.71
413.476	1.42
413.839	1.59
414.202	1.58
414.565	1.47
414.928	1.48
415.291	1.5
415.654	1.51
416.017	1.58
416.38	1.47
416.742	1.47
417.105	1.39
417.468	1.5
417.83	1.57
418.193	1.68
418.556	1.51
418.918	1.43
419.281	1.64
419.643	1.72
420.005	1.46
420.368	1.56
420.73	1.51
421.092	1.65
421.455	1.55
421.817	1.37
422.179	1.53
422.541	1.56
422.903	1.76
423.265	1.69
423.627	1.57
423.989	1.52
424.351	1.56
424.713	1.68
425.075	1.53
425.436	1.57
425.798	1.49
426.16	1.75
426.521	1.62
426.883	1.76
427.245	1.61
427.606	1.55
427.967	1.48
428.329	1.48
428.69	1.67
429.052	1.49
429.413	1.64
429.774	1.81
430.135	1.75
430.497	1.65
430.858	1.55
431.219	1.76
431.58	1.41
431.941	1.6
432.302	1.6
432.663	1.55
433.024	1.79
433.384	1.53
433.745	1.54
434.106	1.73
434.467	1.53
434.827	1.57
435.188	1.65
435.548	1.75
435.909	1.61
436.269	1.64
436.63	1.59
436.99	1.6
437.351	1.48
437.711	1.64
438.071	1.47
438.431	1.52
438.792	1.65
439.152	1.6
439.512	1.57
439.872	1.45
440.232	1.54
440.592	1.47
440.952	1.54
441.312	1.49
441.671	1.57
442.031	1.44
442.391	1.51
442.751	1.59
443.11	1.46
443.47	1.44
443.83	1.37
444.189	1.43
444.549	1.43
444.908	1.41
445.267	1.44
445.627	1.5
445.986	1.46
446.345	1.4
446.705	1.48
447.064	1.44
447.423	1.37
447.782	1.44
448.141	1.38
448.5	1.32
448.859	1.4
449.218	1.44
449.577	1.48
449.936	1.39
450.295	1.42
450.653	1.48
451.012	1.36
451.371	1.39
451.729	1.38
452.088	1.37
452.447	1.38
452.805	1.33
453.163	1.34
453.522	1.34
453.88	1.31
454.239	1.32
454.597	1.31
454.955	1.25
455.313	1.26
455.671	1.26
456.029	1.26
456.388	1.21
456.746	1.19
457.104	1.2
457.461	1.19
457.819	1.19
458.177	1.14
458.535	1.12
458.893	1.12
459.25	1.13
459.608	1.11
459.966	1.07
460.323	1.06
460.681	1.06
461.038	1.04
461.396	1.03
461.753	1.04
462.111	1
462.468	0.98
462.825	0.97
463.182	0.95
463.54	0.94
463.897	0.94
464.254	0.91
464.611	0.92
464.968	0.89
465.325	0.89
465.682	0.87
466.039	0.85
466.395	0.83
466.752	0.84
467.109	0.81
467.466	0.8
467.822	0.8
468.179	0.77
468.535	0.77
468.892	0.76
469.248	0.74
469.605	0.72
469.961	0.71
470.318	0.71
470.674	0.7
471.03	0.68
471.386	0.66
471.743	0.65
472.099	0.63
472.455	0.64
472.811	0.62
473.167	0.61
473.523	0.61
473.879	0.59
474.235	0.58
474.59	0.57
474.946	0.56
475.302	0.56
475.657	0.53
476.013	0.53
476.369	0.51
476.724	0.51
477.08	0.5
477.435	0.48
477.791	0.48
478.146	0.47
478.501	0.46
478.857	0.45
479.212	0.44
479.567	0.43
479.922	0.41
480.277	0.41
480.632	0.4
480.987	0.39
481.342	0.39
481.697	0.37
482.052	0.37
482.407	0.36
482.762	0.35
483.116	0.35
483.471	0.34
483.826	0.32
484.18	0.33
484.535	0.31
484.89	0.31
485.244	0.31
485.598	0.3
485.953	0.29
486.307	0.28
486.661	0.29
487.016	0.27
487.37	0.27
487.724	0.26
488.078	0.26
488.432	0.25
488.786	0.24
489.14	0.24
489.494	0.23
489.848	0.23
490.202	0.22
490.556	0.22
490.91	0.21
491.263	0.2
491.617	0.21
491.971	0.2
492.324	0.19
492.678	0.19
493.031	0.19
493.385	0.19
493.738	0.18
494.091	0.18
494.445	0.17
494.798	0.17
495.151	0.16
495.504	0.16
495.857	0.16
496.21	0.16
496.564	0.15
496.916	0.15
497.269	0.14
497.622	0.14
497.975	0.13
498.328	0.14
498.681	0.13
499.033	0.12
499.386	0.13
499.739	0.12
500.091	0.11
500.444	0.11
500.796	0.12
501.149	0.11
501.501	0.11
501.854	0.11
502.206	0.11
502.558	0.1
502.91	0.1
503.263	0.1
503.615	0.09
503.967	0.1
504.319	0.09
504.671	0.09
505.023	0.09
505.375	0.09
505.726	0.09
506.078	0.09
506.43	0.08
506.782	0.08
507.133	0.08
507.485	0.08
507.837	0.09
508.188	0.08
508.54	0.08
508.891	0.08
509.243	0.07
509.594	0.08
509.945	0.07
510.296	0.07
510.648	0.07
510.999	0.06
511.35	0.07
511.701	0.07
512.052	0.07
512.403	0.07
512.754	0.07
513.105	0.07
513.456	0.06
513.807	0.05
514.157	0.06
514.508	0.06
514.859	0.05
515.209	0.05
515.56	0.06
515.91	0.06
516.261	0.06
516.611	0.05
516.962	0.06
517.312	0.05
517.662	0.05
518.013	0.06
518.363	0.06
518.713	0.05
519.063	0.05
519.413	0.05
519.763	0.05
520.113	0.05
520.463	0.05
520.813	0.06
521.163	0.06
521.512	0.05
521.862	0.05
522.212	0.05
522.562	0.05
522.911	0.05
523.261	0.05
523.61	0.05
523.96	0.05
524.309	0.05
524.658	0.05
525.008	0.05
525.357	0.05
525.706	0.05
526.056	0.04
526.405	0.04
526.754	0.04
527.103	0.04
527.452	0.04
527.801	0.05
528.15	0.05
528.499	0.04
528.847	0.05
529.196	0.05
529.545	0.05
529.893	0.05
530.242	0.04
530.591	0.05
530.939	0.05
531.288	0.05
531.636	0.05
531.985	0.05
532.333	0.05
532.681	0.04
533.029	0.04
533.378	0.04
533.726	0.05
534.074	0.05
534.422	0.05
534.77	0.05
535.118	0.04
535.466	0.05
535.814	0.04
536.162	0.04
536.509	0.05
536.857	0.05
537.205	0.05
537.552	0.04
537.9	0.04
538.248	0.04
538.595	0.05
538.943	0.04
539.29	0.05
539.637	0.04
539.985	0.04
540.332	0.05
540.679	0.05
541.026	0.04
541.373	0.05
541.721	0.04
542.068	0.04
542.415	0.04
542.762	0.04
543.108	0.03
543.455	0.03
543.802	0.03
544.149	0.04
544.496	0.03
544.842	0.03
545.189	0.03
545.535	0.03
545.882	0.03
546.228	0.03
546.575	0.03
546.921	0.02
547.267	0.03
547.614	0.03
547.96	0.03
548.306	0.03
548.652	0.03
548.998	0.04
549.344	0.03
549.69	0.03
550.036	0.03
550.382	0.03
550.728	0.03
551.074	0.04
551.42	0.03
551.765	0.04
552.111	0.04
552.457	0.03
552.802	0.03
553.148	0.03
553.493	0.03
553.839	0.03
554.184	0.04
554.529	0.03
554.875	0.04
555.22	0.04
555.565	0.03
555.91	0.03
556.255	0.04
556.6	0.04
556.945	0.03
557.29	0.04
557.635	0.04
557.98	0.04
558.325	0.04
558.67	0.03
559.014	0.04
559.359	0.04
559.704	0.04
560.048	0.02
560.393	0.03
560.737	0.02
561.082	0.03
561.426	0.03
561.77	0.03
562.115	0.03
562.459	0.03
562.803	0.03
563.147	0.03
563.491	0.04
563.835	0.04
564.179	0.03
564.523	0.04
564.867	0.03
565.211	0.03
565.555	0.04
565.899	0.04
566.242	0.04
566.586	0.03
566.93	0.03
567.273	0.04
567.617	0.03
567.96	0.03
568.304	0.03
568.647	0.03
568.99	0.04
569.334	0.04
569.677	0.04
570.02	0.04
570.363	0.04
570.706	0.03
571.049	0.04
571.392	0.04
571.735	0.03
572.078	0.03
572.421	0.04
572.764	0.03
573.106	0.04
573.449	0.03
573.792	0.03
574.134	0.03
574.477	0.04
574.819	0.03
575.162	0.03
575.504	0.02
575.847	0.03
576.189	0.03
576.531	0.04
576.873	0.03
577.215	0.04
577.558	0.04
577.9	0.03
578.242	0.03
578.584	0.04
578.926	0.03
579.267	0.04
579.609	0.04
579.951	0.04
580.293	0.04
580.634	0.03
580.976	0.04
581.318	0.03
581.659	0.03
582.001	0.03
582.342	0.03
582.683	0.03
583.025	0.02
583.366	0.02
583.707	0.03
584.049	0.02
584.39	0.03
584.731	0.02
585.072	0.02
585.413	0.03
585.754	0.03
586.095	0.03
586.435	0.03
586.776	0.03
587.117	0.03
587.458	0.03
587.798	0.03
588.139	0.02
588.48	0.02
588.82	0.03
589.161	0.03
589.501	0.02
589.841	0.03
590.182	0.03
590.522	0.02
590.862	0.03
591.202	0.03
591.542	0.03
591.882	0.03
592.222	0.03
592.562	0.03
592.902	0.03
593.242	0.03
593.582	0.03
593.922	0.03
594.261	0.02
594.601	0.03
594.941	0.03
595.28	0.03
595.62	0.03
595.959	0.03
596.299	0.03
596.638	0.03
596.977	0.03
597.317	0.03
597.656	0.03
597.995	0.03
598.334	0.04
598.673	0.04
599.012	0.03
599.351	0.04
599.69	0.03
600.029	0.04
600.368	0.04
600.707	0.04
601.046	0.03
601.384	0.04
601.723	0.04
602.061	0.03
602.4	0.04
602.738	0.04
603.077	0.03
603.415	0.03
603.754	0.04
604.092	0.03
604.43	0.03
604.768	0.04
605.107	0.03
605.445	0.03
605.783	0.03
606.121	0.03
606.459	0.03
606.796	0.04
607.134	0.03
607.472	0.03
607.81	0.04
608.148	0.03
608.485	0.03
608.823	0.03
609.16	0.03
609.498	0.03
609.835	0.03
610.173	0.02
610.51	0.03
610.847	0.03
611.185	0.03
611.522	0.03
611.859	0.04
612.196	0.03
612.533	0.04
612.87	0.05
613.207	0.04
613.544	0.04
613.881	0.05
614.217	0.04
614.554	0.03
614.891	0.04
615.228	0.04
615.564	0.04
615.901	0.05
616.237	0.05
616.574	0.04
616.91	0.05
617.246	0.04
617.583	0.04
617.919	0.05
618.255	0.04
618.591	0.04
618.927	0.04
619.263	0.05
619.599	0.04
619.935	0.04
620.271	0.05
620.607	0.05
620.943	0.04
621.279	0.05
621.614	0.05
621.95	0.05
622.286	0.04
622.621	0.04
622.957	0.04
623.292	0.04
623.627	0.04
623.963	0.04
624.298	0.04
624.633	0.04
624.968	0.04
625.304	0.04
625.639	0.04
625.974	0.04
626.309	0.03
626.644	0.04
626.979	0.04
627.313	0.04
627.648	0.04
627.983	0.04
628.318	0.04
628.652	0.03
628.987	0.04
629.321	0.04
629.656	0.02
629.99	0.03
630.325	0.04
630.659	0.03
630.993	0.03
631.327	0.03
631.662	0.03
631.996	0.02
632.33	0.03
632.664	0.03
632.998	0.03
633.332	0.03
633.666	0.03
633.999	0.03
634.333	0.03
634.667	0.03
635.001	0.03
635.334	0.03
635.668	0.03
636.001	0.03
636.335	0.03
636.668	0.04
637.001	0.02
637.335	0.03
637.668	0.04
638.001	0.02
638.334	0.03
638.668	0.02
639.001	0.03
639.334	0.03
639.667	0.03
639.999	0.03
640.332	0.03
640.665	0.03
640.998	0.03
641.331	0.03
641.663	0.02
641.996	0.03
642.328	0.03
642.661	0.03
642.993	0.03
643.326	0.03
643.658	0.03
643.99	0.03
644.323	0.03
644.655	0.03
644.987	0.03
645.319	0.03
645.651	0.03
645.983	0.03
646.315	0.02
646.647	0.03
646.979	0.04
647.31	0.04
647.642	0.03
647.974	0.03
648.305	0.04
648.637	0.03
648.968	0.03
649.3	0.04
649.631	0.04
649.963	0.03
650.294	0.04
650.625	0.03
650.957	0.04
651.288	0.03
651.619	0.04
651.95	0.05
652.281	0.04
652.612	0.04
652.943	0.04
653.274	0.04
653.604	0.04
653.935	0.04
654.266	0.04
654.596	0.03
654.927	0.03
655.258	0.04
655.588	0.04
655.918	0.04
656.249	0.02
656.579	0.03
656.909	0.03
657.24	0.03
657.57	0.04
657.9	0.04
658.23	0.03
658.56	0.04
658.89	0.04
659.22	0.03
659.55	0.04
659.88	0.04
660.209	0.04
660.539	0.05
660.869	0.04
661.198	0.04
661.528	0.04
661.857	0.04
662.187	0.04
662.516	0.04
662.846	0.03
663.175	0.03
663.504	0.04
663.833	0.03
664.163	0.04
664.492	0.03
664.821	0.04
665.15	0.04
665.479	0.04
665.807	0.03
666.136	0.04
666.465	0.04
666.794	0.04
667.122	0.04
667.451	0.04
667.78	0.04
668.108	0.05
668.437	0.04
668.765	0.04
669.093	0.05
669.422	0.05
669.75	0.04
670.078	0.04
670.406	0.05
670.734	0.04
671.062	0.04
671.39	0.05
671.718	0.04
672.046	0.04
672.374	0.04
672.702	0.04
673.029	0.03
673.357	0.04
673.685	0.04
674.012	0.04
674.34	0.04
674.667	0.04
674.995	0.04
675.322	0.04
675.649	0.04
675.977	0.04
676.304	0.04
676.631	0.04
676.958	0.04
677.285	0.04
677.612	0.04
677.939	0.03
678.266	0.04
678.593	0.04
678.92	0.04
679.246	0.03
679.573	0.04
679.9	0.03
680.226	0.04
680.553	0.03
680.879	0.04
681.206	0.04
681.532	0.04
681.858	0.04
682.184	0.04
682.511	0.04
682.837	0.04
683.163	0.05
683.489	0.04
683.815	0.04
684.141	0.04
684.467	0.04
684.793	0.04
685.118	0.04
685.444	0.04
685.77	0.04
686.095	0.04
686.421	0.04
686.746	0.04
687.072	0.04
687.397	0.03
687.723	0.04
688.048	0.05
688.373	0.04
688.698	0.04
689.023	0.04
689.349	0.04
689.674	0.04
689.999	0.04
690.323	0.03
690.648	0.04
690.973	0.04
691.298	0.03
691.623	0.03
691.947	0.04
692.272	0.04
692.596	0.05
692.921	0.04
693.245	0.04
693.57	0.04
693.894	0.05
694.218	0.04
694.543	0.05
694.867	0.04
695.191	0.04
695.515	0.05
695.839	0.04
696.163	0.05
696.487	0.04
696.811	0.03
697.135	0.05
697.458	0.05
697.782	0.04
698.106	0.04
698.429	0.04
698.753	0.04
699.076	0.04
699.4	0.04
699.723	0.04
700.046	0.03
700.37	0.04
700.693	0.04
701.016	0.04
701.339	0.04
701.662	0.04
701.985	0.05
702.308	0.04
702.631	0.04
702.954	0.04
703.277	0.04
703.599	0.05
703.922	0.04
704.245	0.03
704.567	0.04
704.89	0.04
705.212	0.04
705.535	0.04
705.857	0.03
706.179	0.03
706.502	0.03
706.824	0.03
707.146	0.04
707.468	0.04
707.79	0.03
708.112	0.04
708.434	0.04
708.756	0.04
709.078	0.04
709.399	0.04
709.721	0.04
710.043	0.05
710.364	0.05
710.686	0.04
711.007	0.04
711.329	0.04
711.65	0.05
711.972	0.05
712.293	0.05
712.614	0.05
712.935	0.05
713.256	0.05
713.577	0.05
713.898	0.04
714.219	0.04
714.54	0.04
714.861	0.04
715.182	0.04
715.503	0.04
715.823	0.04
716.144	0.04
716.464	0.03
716.785	0.04
717.105	0.03
717.426	0.04
717.746	0.03
718.066	0.04
718.387	0.03
718.707	0.03
719.027	0.03
719.347	0.03
719.667	0.04
719.987	0.03
720.307	0.03
720.627	0.02
720.947	0.03
721.266	0.03
721.586	0.02
721.906	0.03
722.225	0.03
722.545	0.03
722.864	0.03
723.184	0.04
723.503	0.04
723.823	0.04
724.142	0.03
724.461	0.03
724.78	0.04
725.099	0.04
725.418	0.03
725.737	0.03
726.056	0.04
726.375	0.04
726.694	0.04
727.013	0.04
727.331	0.03
727.65	0.03
727.969	0.03
728.287	0.04
728.606	0.03
728.924	0.03
729.242	0.04
729.561	0.04
729.879	0.04
730.197	0.04
730.515	0.03
730.834	0.04
731.152	0.04
731.47	0.04
731.788	0.04
732.105	0.04
732.423	0.04
732.741	0.04
733.059	0.04
733.376	0.05
733.694	0.04
734.012	0.04
734.329	0.05
734.647	0.04
734.964	0.05
735.281	0.04
735.599	0.05
735.916	0.05
736.233	0.04
736.55	0.04
736.867	0.04
737.184	0.04
737.501	0.04
737.818	0.04
738.135	0.04
738.452	0.04
738.768	0.04
739.085	0.04
739.402	0.03
739.718	0.04
740.035	0.04
740.351	0.05
740.668	0.04
740.984	0.04
741.3	0.04
741.617	0.04
741.933	0.04
742.249	0.05
742.565	0.04
742.881	0.05
743.197	0.05
743.513	0.04
743.829	0.03
744.144	0.04
744.46	0.03
744.776	0.03
745.091	0.04
745.407	0.04
745.722	0.03
746.038	0.03
746.353	0.02
746.669	0.04
746.984	0.02
747.299	0.03
747.614	0.03
747.93	0.03
748.245	0.03
748.56	0.03
748.875	0.03
749.189	0.03
749.504	0.03
749.819	0.04
750.134	0.03
750.448	0.04
750.763	0.03
751.078	0.03
751.392	0.03
751.707	0.04
752.021	0.05
752.335	0.04
752.65	0.05
752.964	0.04
753.278	0.04
753.592	0.04
753.906	0.04
754.22	0.04
754.534	0.05
754.848	0.04
755.162	0.04
755.476	0.04
755.789	0.04
756.103	0.03
756.417	0.05
756.73	0.04
757.044	0.05
757.357	0.04
757.671	0.04
757.984	0.04
758.297	0.05
758.61	0.04
758.924	0.05
759.237	0.04
759.55	0.04
759.863	0.04
760.176	0.05
760.488	0.04
760.801	0.04
761.114	0.04
761.427	0.04
761.739	0.04
762.052	0.03
762.365	0.04
762.677	0.04
762.99	0.03
763.302	0.03
763.614	0.04
763.926	0.03
764.239	0.03
764.551	0.04
764.863	0.04
765.175	0.04
765.487	0.04
765.799	0.03
766.111	0.03
766.423	0.04
766.734	0.04
767.046	0.03
767.358	0.04
767.669	0.04
767.981	0.04
768.292	0.04
768.604	0.04
768.915	0.04
769.226	0.04
769.537	0.03
769.849	0.04
770.16	0.04
770.471	0.03
770.782	0.03
771.093	0.04
771.404	0.03
771.715	0.03
772.025	0.03
772.336	0.03
772.647	0.03
772.957	0.04
773.268	0.04
773.578	0.04
773.889	0.05
774.199	0.05
774.51	0.04
774.82	0.04
775.13	0.05
775.44	0.04
775.75	0.05
776.06	0.04
776.37	0.04
776.68	0.04
776.99	0.04
777.3	0.04
777.61	0.05
777.92	0.04
778.229	0.04
778.539	0.04
778.848	0.03
779.158	0.04
779.467	0.04
779.777	0.04
780.086	0.04
780.395	0.03
780.704	0.03
781.013	0.03
781.323	0.03
781.632	0.04
781.941	0.04
782.249	0.04
782.558	0.03
782.867	0.03
783.176	0.03
783.485	0.03
783.793	0.03
784.102	0.03
784.41	0.03
784.719	0.03
785.027	0.03
785.335	0.04
785.644	0.03
785.952	0.04
786.26	0.03
786.568	0.03
786.876	0.03
787.184	0.04
787.492	0.04
787.8	0.04
788.108	0.03
788.416	0.03
788.723	0.04
789.031	0.03
789.338	0.03
789.646	0.03
789.953	0.04
790.261	0.03
790.568	0.05
790.876	0.03
791.183	0.04
791.49	0.03
791.797	0.04
792.104	0.03
792.411	0.05
792.718	0.04
793.025	0.05
793.332	0.04
793.639	0.04
793.945	0.05
794.252	0.05
794.559	0.05
794.865	0.05
795.172	0.04
795.478	0.05
795.784	0.04
796.091	0.05
796.397	0.05
796.703	0.05
797.009	0.06
797.315	0.05
797.622	0.05
797.927	0.04
798.233	0.04
798.539	0.06
798.845	0.05
799.151	0.05
799.456	0.05
799.762	0.04
800.068	0.05
800.373	0.06
800.679	0.05
800.984	0.05
801.289	0.05
801.595	0.05
801.9	0.05
802.205	0.04
802.51	0.05
802.815	0.06
803.12	0.04
803.425	0.05
803.73	0.05
804.035	0.05
804.339	0.04
804.644	0.05
804.949	0.05
805.253	0.05
805.558	0.05
805.862	0.04
806.167	0.05
806.471	0.04
806.775	0.05
807.08	0.04
807.384	0.04
807.688	0.05
807.992	0.04
808.296	0.04
808.6	0.04
808.904	0.05
809.207	0.05
809.511	0.06
809.815	0.05
810.119	0.05
810.422	0.05
810.726	0.06
811.029	0.06
811.332	0.05
811.636	0.06
811.939	0.05
812.242	0.06
812.546	0.05
812.849	0.05
813.152	0.06
813.455	0.07
813.758	0.06
814.06	0.06
814.363	0.07
814.666	0.07
814.969	0.06
815.271	0.06
815.574	0.06
815.877	0.07
816.179	0.06
816.481	0.05
816.784	0.05
817.086	0.05
817.388	0.05
817.69	0.04
817.993	0.05
818.295	0.04
818.597	0.05
818.899	0.04
819.2	0.04
819.502	0.04
819.804	0.04
820.106	0.03
820.407	0.04
820.709	0.03
821.01	0.04
821.312	0.04
821.613	0.04
821.915	0.03
822.216	0.03
822.517	0.03
822.818	0.03
823.119	0.04
823.42	0.04
823.721	0.02
824.022	0.02
824.323	0.03
824.624	0.04
824.925	0.04
825.226	0.04
825.526	0.03
825.827	0.04
826.127	0.04
826.428	0.03
826.728	0.03
827.028	0.02
827.329	0.03
827.629	0.03
827.929	0.03
828.229	0.03
828.529	0.03
828.829	0.03
829.129	0.04
829.429	0.04
829.729	0.04
830.029	0.03
830.328	0.03
830.628	0.02
830.927	0.02
831.227	0.03
831.526	0.03
831.826	0.03
832.125	0.03
832.424	0.02
832.724	0.03
833.023	0.03
833.322	0.03
833.621	0.03
833.92	0.01
834.219	0.02
834.518	0.03
834.816	0.02
835.115	0.02
835.414	0.02
835.712	0.02
836.011	0.01
836.309	0.02
836.608	0.01
836.906	0
837.205	0
837.503	0
837.801	0
838.099	-0.01
838.397	-0.01
838.695	-0.01
838.993	0.01
839.291	-0.01
839.589	-0.01
839.887	-0.01
840.184	-0.01
840.482	-0.02
840.78	-0.01
841.077	-0.02
841.375	-0.01
841.672	-0.01
841.969	-0.02
842.267	-0.02
842.564	-0.01
842.861	-0.01
843.158	-0.02
843.455	-0.03
843.752	-0.02
844.049	-0.02
844.346	-0.03
844.643	-0.03
844.94	-0.03
845.236	-0.02
845.533	-0.03
845.83	-0.03
846.126	-0.03
846.423	-0.02
846.719	-0.04
847.015	-0.03
847.312	-0.03
847.608	-0.04
847.904	-0.05
848.2	-0.04
848.496	-0.04
848.792	-0.03
849.088	-0.03
849.384	-0.04
849.68	-0.04
849.975	-0.04
850.271	-0.04
850.567	-0.05
850.862	-0.05
851.158	-0.05
851.453	-0.04
851.748	-0.06
852.044	-0.05
852.339	-0.05
852.634	-0.07
852.929	-0.05
853.224	-0.05
853.519	-0.06
853.814	-0.05
854.109	-0.06
854.404	-0.06
854.699	-0.07
854.994	-0.06
855.288	-0.05
855.583	-0.05
855.877	-0.07
856.172	-0.07
856.466	-0.06
856.76	-0.07
857.055	-0.07
857.349	-0.07
857.643	-0.09
857.937	-0.08
858.231	-0.09
858.525	-0.09
858.819	-0.09
859.113	-0.11
859.407	-0.1
859.701	-0.1
859.994	-0.11
860.288	-0.09
860.581	-0.1
860.875	-0.11
861.168	-0.11
861.462	-0.11
861.755	-0.1
862.048	-0.12
862.341	-0.1
862.634	-0.11
862.928	-0.1
863.221	-0.11
863.513	-0.12
863.806	-0.12
864.099	-0.12
864.392	-0.11
864.685	-0.12
864.977	-0.12
865.27	-0.12
865.562	-0.11
865.855	-0.11
866.147	-0.12
866.44	-0.12
866.732	-0.12
867.024	-0.12
867.316	-0.12
867.608	-0.12
867.9	-0.12
868.192	-0.12
868.484	-0.12
868.776	-0.13
869.068	-0.13
869.359	-0.13
869.651	-0.13
869.943	-0.15
870.234	-0.15
870.526	-0.14
870.817	-0.14
871.108	-0.14
871.4	-0.14
871.691	-0.15
871.982	-0.15
872.273	-0.16
872.564	-0.15
872.855	-0.15
873.146	-0.16
873.437	-0.16
873.728	-0.17
874.019	-0.16
874.309	-0.16
874.6	-0.16
874.89	-0.17
875.181	-0.17
875.471	-0.16
875.762	-0.17
876.052	-0.16
876.342	-0.16
876.632	-0.17
876.922	-0.17
877.213	-0.17
877.503	-0.18
877.792	-0.17
878.082	-0.16
878.372	-0.16
878.662	-0.18
878.952	-0.17
879.241	-0.16
879.531	-0.16
879.82	-0.16
880.11	-0.15
880.399	-0.16
880.688	-0.15
880.978	-0.15
881.267	-0.15
