Data from 12-12-AQDScycling_Absorbance__153__00153.txt Node

Date: Tue Dec 12 11:34:59 EST 2023
User: kyuminlee
Spectrometer: FLMS00943
Trigger mode: 0
Integration Time (sec): 1.000000E-1
Scans to average: 1
Electric dark correction enabled: true
Nonlinearity correction enabled: false
Boxcar width: 0
XAxis mode: Wavelengths
Number of Pixels in Spectrum: 2048
>>>>>Begin Spectral Data<<<<<
179.651	-0
180.037	-0
180.424	-0
180.81	-0.35
181.197	0.52
181.583	-0.6
181.97	-0.42
182.356	-0
182.743	-1.14
183.129	0.4
183.515	-0
183.901	-2.6
184.288	0
184.674	-0
185.06	-0
185.446	0.14
185.832	13
186.218	-0.05
186.604	0.37
186.99	-0
187.376	1.28
187.762	-0
188.148	-0
188.534	-0.2
188.92	0.07
189.305	0.1
189.691	0.2
190.077	0.19
190.463	0.21
190.848	0.13
191.234	-0.01
191.619	0.19
192.005	0.2
192.391	0.05
192.776	0.13
193.161	0.39
193.547	0.05
193.932	0.1
194.318	0.12
194.703	0.26
195.088	0.17
195.473	0.2
195.859	0.3
196.244	0.24
196.629	0.14
197.014	0.12
197.399	0.21
197.784	0.32
198.169	0.14
198.554	0.25
198.939	0.12
199.324	0.08
199.709	0.1
200.094	0.03
200.478	-0.02
200.863	0.11
201.248	0.17
201.633	0.3
202.017	0.07
202.402	0.3
202.787	0.2
203.171	0.21
203.556	0.24
203.94	0.21
204.325	0.3
204.709	0.25
205.093	0.1
205.478	0.29
205.862	-0.02
206.246	0.27
206.631	0.04
207.015	0.08
207.399	0.2
207.783	0.26
208.167	0.13
208.551	0.25
208.935	0.3
209.319	0.16
209.703	0.26
210.087	0.28
210.471	-0.05
210.855	0.26
211.239	0.23
211.623	0.17
212.007	0.24
212.39	0.22
212.774	0.34
213.158	0.12
213.541	0.28
213.925	0.19
214.309	0.32
214.692	0.27
215.076	0.37
215.459	0.12
215.842	0.15
216.226	0.23
216.609	0.31
216.993	0.23
217.376	0.45
217.759	0.19
218.142	0.29
218.525	0.55
218.909	0.37
219.292	0.32
219.675	0.37
220.058	0.3
220.441	0.48
220.824	0.47
221.207	0.62
221.59	0.53
221.973	0.53
222.355	0.57
222.738	0.8
223.121	0.6
223.504	0.53
223.886	0.76
224.269	0.78
224.652	0.58
225.034	0.75
225.417	0.76
225.799	0.82
226.182	0.9
226.564	0.82
226.947	0.73
227.329	0.76
227.711	0.96
228.094	0.93
228.476	0.91
228.858	0.85
229.24	0.87
229.623	0.86
230.005	0.89
230.387	0.88
230.769	0.89
231.151	0.96
231.533	0.94
231.915	0.96
232.297	0.99
232.679	0.89
233.061	0.92
233.442	0.93
233.824	0.97
234.206	1.06
234.588	1.07
234.969	1.06
235.351	0.99
235.733	1.09
236.114	1.08
236.496	1.05
236.877	1.3
237.259	1.09
237.64	1.01
238.022	1.02
238.403	1.1
238.784	0.95
239.165	1.05
239.547	1.11
239.928	1.14
240.309	1
240.69	1.09
241.071	1.26
241.452	1.14
241.834	1.14
242.215	1.13
242.595	1.17
242.976	1.14
243.357	1.18
243.738	0.99
244.119	1.28
244.5	1.16
244.881	1.13
245.261	1.22
245.642	1.12
246.023	1.23
246.403	1.29
246.784	1.26
247.164	1.2
247.545	1.28
247.925	1.35
248.306	1.2
248.686	1.36
249.067	1.3
249.447	1.48
249.827	1.55
250.207	1.45
250.588	1.32
250.968	1.44
251.348	1.3
251.728	1.52
252.108	1.39
252.488	1.29
252.868	1.35
253.248	1.34
253.628	1.34
254.008	1.37
254.388	1.37
254.768	1.3
255.147	1.3
255.527	1.4
255.907	1.29
256.287	1.34
256.666	1.41
257.046	1.56
257.425	1.41
257.805	1.29
258.184	1.45
258.564	1.33
258.943	1.41
259.323	1.49
259.702	1.45
260.081	1.36
260.461	1.59
260.84	1.63
261.219	1.84
261.598	1.71
261.977	1.43
262.356	1.51
262.736	1.47
263.115	1.56
263.494	1.44
263.873	1.42
264.251	1.5
264.63	1.42
265.009	1.47
265.388	1.45
265.767	1.33
266.145	1.34
266.524	1.51
266.903	1.53
267.281	1.43
267.66	1.56
268.039	1.51
268.417	1.4
268.796	1.4
269.174	1.46
269.552	1.36
269.931	1.4
270.309	1.41
270.687	1.52
271.066	1.61
271.444	1.37
271.822	1.39
272.2	1.42
272.578	1.36
272.956	1.34
273.334	1.38
273.712	1.38
274.09	1.46
274.468	1.36
274.846	1.32
275.224	1.36
275.602	1.46
275.98	1.5
276.357	1.38
276.735	1.42
277.113	1.43
277.49	1.36
277.868	1.28
278.246	1.33
278.623	1.34
279.001	1.29
279.378	1.38
279.756	1.65
280.133	1.55
280.51	1.44
280.888	1.49
281.265	1.42
281.642	1.65
282.019	1.7
282.396	1.73
282.773	1.42
283.151	1.63
283.528	1.69
283.905	1.49
284.282	1.55
284.659	1.73
285.035	1.39
285.412	1.31
285.789	1.49
286.166	1.46
286.543	1.52
286.919	1.48
287.296	1.39
287.673	1.56
288.049	1.48
288.426	1.47
288.802	1.43
289.179	1.41
289.555	2.06
289.932	1.63
290.308	1.41
290.684	1.41
291.061	1.31
291.437	1.58
291.813	1.49
292.189	1.3
292.565	1.34
292.942	1.4
293.318	1.29
293.694	1.4
294.07	1.3
294.446	1.38
294.822	1.74
295.197	1.5
295.573	1.52
295.949	1.42
296.325	1.51
296.701	1.45
297.076	1.53
297.452	1.61
297.828	1.35
298.203	1.61
298.579	1.37
298.954	1.38
299.33	1.36
299.705	1.36
300.081	1.47
300.456	1.39
300.831	1.31
301.206	1.28
301.582	1.48
301.957	1.38
302.332	1.46
302.707	1.26
303.082	1.3
303.457	1.25
303.832	1.27
304.207	1.21
304.582	1.28
304.957	1.24
305.332	1.23
305.707	1.18
306.082	1.21
306.456	1.18
306.831	1.13
307.206	1.17
307.58	1.16
307.955	1.09
308.33	1.1
308.704	1.11
309.079	1.12
309.453	1.14
309.828	1.1
310.202	1.03
310.576	0.99
310.951	1.02
311.325	1.08
311.699	1.03
312.073	0.99
312.447	1.03
312.821	1.04
313.196	1.01
313.57	0.99
313.944	1
314.317	0.99
314.691	0.99
315.065	1
315.439	1.02
315.813	1.02
316.187	0.92
316.56	1.01
316.934	0.98
317.308	0.94
317.681	0.99
318.055	0.95
318.428	0.93
318.802	0.97
319.175	0.92
319.549	0.95
319.922	0.96
320.295	0.94
320.669	1
321.042	0.98
321.415	1.02
321.788	0.96
322.162	0.97
322.535	1.05
322.908	0.94
323.281	0.93
323.654	1.07
324.027	0.93
324.4	0.94
324.773	0.99
325.145	0.98
325.518	0.96
325.891	0.98
326.264	1.01
326.636	0.99
327.009	0.99
327.382	1.04
327.754	0.97
328.127	0.98
328.499	1
328.872	1
329.244	1.01
329.616	1
329.989	1
330.361	1.05
330.733	1.01
331.106	0.98
331.478	1.06
331.85	1.02
332.222	0.99
332.594	1.01
332.966	1.07
333.338	1.09
333.71	1.06
334.082	1.07
334.454	1.07
334.826	1.04
335.197	1.06
335.569	1.08
335.941	1.05
336.312	1.08
336.684	1.02
337.056	1.05
337.427	1.14
337.799	1.11
338.17	1.09
338.542	1.07
338.913	1.05
339.284	1.09
339.656	1.11
340.027	1.13
340.398	1.16
340.769	1.12
341.141	1.18
341.512	1.13
341.883	1.15
342.254	1.17
342.625	1.12
342.996	1.13
343.367	1.18
343.738	1.16
344.108	1.13
344.479	1.22
344.85	1.17
345.221	1.26
345.591	1.17
345.962	1.18
346.333	1.22
346.703	1.08
347.074	1.14
347.444	1.13
347.815	1.22
348.185	1.22
348.556	1.24
348.926	1.14
349.296	1.24
349.666	1.18
350.037	1.21
350.407	1.24
350.777	1.22
351.147	1.21
351.517	1.2
351.887	1.2
352.257	1.28
352.627	1.25
352.997	1.29
353.367	1.28
353.737	1.31
354.106	1.39
354.476	1.32
354.846	1.31
355.216	1.5
355.585	1.45
355.955	1.39
356.324	1.45
356.694	1.43
357.063	1.36
357.433	1.39
357.802	1.48
358.171	1.47
358.541	1.36
358.91	1.55
359.279	1.55
359.648	1.4
360.017	1.51
360.387	1.54
360.756	1.43
361.125	1.59
361.494	1.6
361.863	1.56
362.231	1.51
362.6	1.53
362.969	1.6
363.338	1.36
363.707	1.62
364.075	1.59
364.444	1.37
364.813	1.51
365.181	1.49
365.55	1.47
365.918	1.6
366.287	1.54
366.655	1.6
367.024	1.62
367.392	1.52
367.76	1.51
368.128	1.49
368.497	1.48
368.865	1.57
369.233	1.49
369.601	1.52
369.969	1.56
370.337	1.58
370.705	1.45
371.073	1.5
371.441	1.53
371.809	1.44
372.177	1.43
372.544	1.53
372.912	1.5
373.28	1.46
373.647	1.64
374.015	1.54
374.383	1.9
374.75	1.69
375.118	1.49
375.485	1.62
375.853	1.62
376.22	1.47
376.587	1.58
376.955	1.62
377.322	1.74
377.689	1.43
378.056	1.46
378.423	1.44
378.79	1.58
379.157	1.51
379.524	1.54
379.891	1.49
380.258	1.71
380.625	1.57
380.992	1.61
381.359	1.59
381.726	1.62
382.092	1.5
382.459	1.62
382.826	1.59
383.192	1.64
383.559	1.75
383.925	1.61
384.292	1.57
384.658	1.62
385.025	1.52
385.391	1.65
385.757	1.74
386.123	1.83
386.49	1.67
386.856	1.55
387.222	1.52
387.588	1.61
387.954	1.72
388.32	1.6
388.686	1.61
389.052	1.57
389.418	1.57
389.784	1.6
390.15	1.6
390.515	1.51
390.881	1.74
391.247	1.37
391.613	1.66
391.978	1.52
392.344	1.67
392.709	1.62
393.075	1.57
393.44	1.72
393.806	1.54
394.171	1.46
394.536	1.57
394.902	1.49
395.267	1.56
395.632	1.4
395.997	1.53
396.362	1.56
396.727	1.62
397.092	1.58
397.457	1.67
397.822	1.51
398.187	1.54
398.552	1.6
398.917	1.72
399.282	1.49
399.646	1.59
400.011	1.71
400.376	1.45
400.74	1.61
401.105	1.56
401.47	1.58
401.834	1.4
402.199	1.53
402.563	1.55
402.927	1.41
403.292	1.52
403.656	1.67
404.02	1.5
404.384	1.66
404.749	1.56
405.113	1.63
405.477	1.8
405.841	1.57
406.205	1.57
406.569	1.54
406.933	1.52
407.296	1.65
407.66	1.7
408.024	1.57
408.388	1.64
408.752	1.75
409.115	1.54
409.479	1.68
409.842	1.54
410.206	1.46
410.569	1.54
410.933	1.52
411.296	1.47
411.66	1.53
412.023	1.48
412.386	1.51
412.749	1.47
413.113	1.61
413.476	1.48
413.839	1.57
414.202	1.53
414.565	1.47
414.928	1.5
415.291	1.42
415.654	1.55
416.017	1.48
416.38	1.39
416.742	1.46
417.105	1.45
417.468	1.49
417.83	1.45
418.193	1.64
418.556	1.48
418.918	1.46
419.281	1.44
419.643	1.59
420.005	1.59
420.368	1.65
420.73	1.47
421.092	1.64
421.455	1.57
421.817	1.34
422.179	1.41
422.541	1.49
422.903	1.61
423.265	1.59
423.627	1.52
423.989	1.47
424.351	1.52
424.713	1.46
425.075	1.48
425.436	1.49
425.798	1.46
426.16	1.51
426.521	1.52
426.883	1.55
427.245	1.56
427.606	1.4
427.967	1.42
428.329	1.45
428.69	1.56
429.052	1.42
429.413	1.48
429.774	1.54
430.135	1.41
430.497	1.55
430.858	1.39
431.219	1.5
431.58	1.44
431.941	1.44
432.302	1.36
432.663	1.58
433.024	1.58
433.384	1.55
433.745	1.45
434.106	1.49
434.467	1.48
434.827	1.45
435.188	1.49
435.548	1.54
435.909	1.5
436.269	1.56
436.63	1.49
436.99	1.4
437.351	1.4
437.711	1.38
438.071	1.36
438.431	1.41
438.792	1.46
439.152	1.37
439.512	1.35
439.872	1.33
440.232	1.42
440.592	1.47
440.952	1.46
441.312	1.36
441.671	1.38
442.031	1.33
442.391	1.36
442.751	1.33
443.11	1.33
443.47	1.34
443.83	1.28
444.189	1.29
444.549	1.33
444.908	1.26
445.267	1.29
445.627	1.33
445.986	1.3
446.345	1.27
446.705	1.3
447.064	1.25
447.423	1.29
447.782	1.33
448.141	1.27
448.5	1.21
448.859	1.2
449.218	1.22
449.577	1.26
449.936	1.25
450.295	1.23
450.653	1.2
451.012	1.21
451.371	1.21
451.729	1.21
452.088	1.18
452.447	1.17
452.805	1.2
453.163	1.16
453.522	1.15
453.88	1.15
454.239	1.15
454.597	1.1
454.955	1.09
455.313	1.1
455.671	1.07
456.029	1.1
456.388	1.07
456.746	1.06
457.104	1.03
457.461	1.02
457.819	1.01
458.177	0.99
458.535	0.98
458.893	0.96
459.25	0.97
459.608	0.96
459.966	0.92
460.323	0.92
460.681	0.9
461.038	0.91
461.396	0.88
461.753	0.88
462.111	0.86
462.468	0.86
462.825	0.84
463.182	0.81
463.54	0.82
463.897	0.81
464.254	0.81
464.611	0.81
464.968	0.78
465.325	0.75
465.682	0.76
466.039	0.74
466.395	0.74
466.752	0.71
467.109	0.72
467.466	0.71
467.822	0.69
468.179	0.68
468.535	0.67
468.892	0.67
469.248	0.65
469.605	0.64
469.961	0.63
470.318	0.63
470.674	0.61
471.03	0.61
471.386	0.61
471.743	0.58
472.099	0.56
472.455	0.57
472.811	0.55
473.167	0.54
473.523	0.53
473.879	0.53
474.235	0.52
474.59	0.51
474.946	0.49
475.302	0.49
475.657	0.47
476.013	0.47
476.369	0.46
476.724	0.47
477.08	0.46
477.435	0.45
477.791	0.44
478.146	0.43
478.501	0.42
478.857	0.41
479.212	0.41
479.567	0.4
479.922	0.4
480.277	0.39
480.632	0.37
480.987	0.37
481.342	0.36
481.697	0.36
482.052	0.35
482.407	0.35
482.762	0.34
483.116	0.34
483.471	0.32
483.826	0.32
484.18	0.31
484.535	0.3
484.89	0.31
485.244	0.3
485.598	0.29
485.953	0.29
486.307	0.28
486.661	0.29
487.016	0.27
487.37	0.27
487.724	0.26
488.078	0.26
488.432	0.26
488.786	0.26
489.14	0.25
489.494	0.25
489.848	0.24
490.202	0.24
490.556	0.23
490.91	0.23
491.263	0.22
491.617	0.22
491.971	0.22
492.324	0.22
492.678	0.22
493.031	0.21
493.385	0.2
493.738	0.2
494.091	0.2
494.445	0.2
494.798	0.19
495.151	0.2
495.504	0.19
495.857	0.19
496.21	0.19
496.564	0.19
496.916	0.19
497.269	0.17
497.622	0.18
497.975	0.18
498.328	0.18
498.681	0.17
499.033	0.17
499.386	0.17
499.739	0.16
500.091	0.16
500.444	0.16
500.796	0.16
501.149	0.16
501.501	0.15
501.854	0.15
502.206	0.15
502.558	0.15
502.91	0.16
503.263	0.15
503.615	0.16
503.967	0.14
504.319	0.15
504.671	0.15
505.023	0.14
505.375	0.13
505.726	0.14
506.078	0.14
506.43	0.13
506.782	0.13
507.133	0.13
507.485	0.14
507.837	0.14
508.188	0.13
508.54	0.13
508.891	0.14
509.243	0.13
509.594	0.14
509.945	0.13
510.296	0.13
510.648	0.13
510.999	0.12
511.35	0.12
511.701	0.12
512.052	0.12
512.403	0.12
512.754	0.12
513.105	0.12
513.456	0.12
513.807	0.11
514.157	0.12
514.508	0.12
514.859	0.11
515.209	0.11
515.56	0.11
515.91	0.11
516.261	0.12
516.611	0.1
516.962	0.11
517.312	0.11
517.662	0.11
518.013	0.11
518.363	0.11
518.713	0.11
519.063	0.1
519.413	0.11
519.763	0.11
520.113	0.11
520.463	0.11
520.813	0.11
521.163	0.11
521.512	0.11
521.862	0.11
522.212	0.11
522.562	0.11
522.911	0.11
523.261	0.1
523.61	0.11
523.96	0.11
524.309	0.12
524.658	0.11
525.008	0.1
525.357	0.1
525.706	0.11
526.056	0.1
526.405	0.11
526.754	0.11
527.103	0.1
527.452	0.11
527.801	0.11
528.15	0.11
528.499	0.11
528.847	0.11
529.196	0.11
529.545	0.11
529.893	0.11
530.242	0.11
530.591	0.11
530.939	0.12
531.288	0.12
531.636	0.12
531.985	0.11
532.333	0.11
532.681	0.11
533.029	0.12
533.378	0.11
533.726	0.12
534.074	0.12
534.422	0.11
534.77	0.11
535.118	0.11
535.466	0.12
535.814	0.1
536.162	0.11
536.509	0.11
536.857	0.11
537.205	0.11
537.552	0.11
537.9	0.11
538.248	0.11
538.595	0.11
538.943	0.11
539.29	0.11
539.637	0.1
539.985	0.11
540.332	0.1
540.679	0.1
541.026	0.1
541.373	0.1
541.721	0.09
542.068	0.1
542.415	0.1
542.762	0.1
543.108	0.09
543.455	0.1
543.802	0.1
544.149	0.1
544.496	0.1
544.842	0.1
545.189	0.09
545.535	0.1
545.882	0.1
546.228	0.09
546.575	0.1
546.921	0.1
547.267	0.1
547.614	0.1
547.96	0.1
548.306	0.1
548.652	0.09
548.998	0.11
549.344	0.1
549.69	0.11
550.036	0.1
550.382	0.1
550.728	0.11
551.074	0.11
551.42	0.12
551.765	0.12
552.111	0.11
552.457	0.12
552.802	0.11
553.148	0.1
553.493	0.1
553.839	0.11
554.184	0.11
554.529	0.11
554.875	0.11
555.22	0.11
555.565	0.11
555.91	0.11
556.255	0.12
556.6	0.12
556.945	0.1
557.29	0.1
557.635	0.11
557.98	0.11
558.325	0.11
558.67	0.1
559.014	0.11
559.359	0.11
559.704	0.11
560.048	0.1
560.393	0.1
560.737	0.09
561.082	0.1
561.426	0.09
561.77	0.1
562.115	0.09
562.459	0.1
562.803	0.1
563.147	0.1
563.491	0.1
563.835	0.1
564.179	0.1
564.523	0.1
564.867	0.1
565.211	0.1
565.555	0.1
565.899	0.11
566.242	0.1
566.586	0.1
566.93	0.1
567.273	0.11
567.617	0.11
567.96	0.11
568.304	0.11
568.647	0.1
568.99	0.11
569.334	0.11
569.677	0.11
570.02	0.11
570.363	0.11
570.706	0.11
571.049	0.1
571.392	0.1
571.735	0.1
572.078	0.11
572.421	0.11
572.764	0.1
573.106	0.1
573.449	0.1
573.792	0.1
574.134	0.1
574.477	0.11
574.819	0.1
575.162	0.12
575.504	0.1
575.847	0.1
576.189	0.1
576.531	0.11
576.873	0.1
577.215	0.1
577.558	0.11
577.9	0.1
578.242	0.1
578.584	0.11
578.926	0.09
579.267	0.1
579.609	0.09
579.951	0.1
580.293	0.1
580.634	0.1
580.976	0.1
581.318	0.09
581.659	0.09
582.001	0.1
582.342	0.1
582.683	0.1
583.025	0.09
583.366	0.09
583.707	0.1
584.049	0.1
584.39	0.1
584.731	0.09
585.072	0.1
585.413	0.11
585.754	0.1
586.095	0.1
586.435	0.1
586.776	0.1
587.117	0.1
587.458	0.1
587.798	0.11
588.139	0.1
588.48	0.1
588.82	0.09
589.161	0.09
589.501	0.09
589.841	0.1
590.182	0.1
590.522	0.1
590.862	0.1
591.202	0.09
591.542	0.1
591.882	0.09
592.222	0.1
592.562	0.09
592.902	0.09
593.242	0.09
593.582	0.11
593.922	0.1
594.261	0.09
594.601	0.09
594.941	0.09
595.28	0.1
595.62	0.1
595.959	0.1
596.299	0.1
596.638	0.1
596.977	0.1
597.317	0.1
597.656	0.09
597.995	0.1
598.334	0.1
598.673	0.09
599.012	0.09
599.351	0.1
599.69	0.09
600.029	0.09
600.368	0.09
600.707	0.1
601.046	0.09
601.384	0.1
601.723	0.1
602.061	0.09
602.4	0.1
602.738	0.09
603.077	0.09
603.415	0.09
603.754	0.09
604.092	0.1
604.43	0.09
604.768	0.1
605.107	0.1
605.445	0.09
605.783	0.1
606.121	0.09
606.459	0.1
606.796	0.1
607.134	0.09
607.472	0.09
607.81	0.1
608.148	0.09
608.485	0.1
608.823	0.09
609.16	0.1
609.498	0.09
609.835	0.09
610.173	0.09
610.51	0.1
610.847	0.1
611.185	0.1
611.522	0.1
611.859	0.1
612.196	0.11
612.533	0.11
612.87	0.1
613.207	0.1
613.544	0.1
613.881	0.11
614.217	0.11
614.554	0.1
614.891	0.11
615.228	0.11
615.564	0.11
615.901	0.11
616.237	0.1
616.574	0.1
616.91	0.11
617.246	0.11
617.583	0.12
617.919	0.11
618.255	0.12
618.591	0.11
618.927	0.1
619.263	0.11
619.599	0.11
619.935	0.11
620.271	0.11
620.607	0.11
620.943	0.1
621.279	0.11
621.614	0.1
621.95	0.11
622.286	0.1
622.621	0.1
622.957	0.1
623.292	0.09
623.627	0.1
623.963	0.1
624.298	0.09
624.633	0.09
624.968	0.09
625.304	0.1
625.639	0.09
625.974	0.09
626.309	0.08
626.644	0.09
626.979	0.09
627.313	0.09
627.648	0.09
627.983	0.1
628.318	0.09
628.652	0.09
628.987	0.09
629.321	0.09
629.656	0.09
629.99	0.09
630.325	0.09
630.659	0.1
630.993	0.09
631.327	0.09
631.662	0.08
631.996	0.1
632.33	0.09
632.664	0.09
632.998	0.09
633.332	0.09
633.666	0.09
633.999	0.09
634.333	0.09
634.667	0.08
635.001	0.09
635.334	0.08
635.668	0.08
636.001	0.08
636.335	0.08
636.668	0.09
637.001	0.08
637.335	0.08
637.668	0.08
638.001	0.08
638.334	0.08
638.668	0.08
639.001	0.08
639.334	0.08
639.667	0.08
639.999	0.08
640.332	0.08
640.665	0.08
640.998	0.08
641.331	0.08
641.663	0.08
641.996	0.08
642.328	0.08
642.661	0.08
642.993	0.09
643.326	0.09
643.658	0.09
643.99	0.08
644.323	0.08
644.655	0.08
644.987	0.09
645.319	0.09
645.651	0.09
645.983	0.09
646.315	0.08
646.647	0.09
646.979	0.09
647.31	0.09
647.642	0.08
647.974	0.09
648.305	0.1
648.637	0.09
648.968	0.09
649.3	0.1
649.631	0.09
649.963	0.09
650.294	0.09
650.625	0.09
650.957	0.09
651.288	0.09
651.619	0.09
651.95	0.09
652.281	0.09
652.612	0.09
652.943	0.09
653.274	0.09
653.604	0.09
653.935	0.08
654.266	0.08
654.596	0.08
654.927	0.08
655.258	0.08
655.588	0.09
655.918	0.08
656.249	0.07
656.579	0.08
656.909	0.09
657.24	0.09
657.57	0.09
657.9	0.09
658.23	0.09
658.56	0.09
658.89	0.09
659.22	0.09
659.55	0.08
659.88	0.09
660.209	0.09
660.539	0.1
660.869	0.09
661.198	0.09
661.528	0.09
661.857	0.09
662.187	0.09
662.516	0.09
662.846	0.09
663.175	0.08
663.504	0.09
663.833	0.09
664.163	0.09
664.492	0.09
664.821	0.09
665.15	0.08
665.479	0.09
665.807	0.08
666.136	0.09
666.465	0.08
666.794	0.08
667.122	0.08
667.451	0.08
667.78	0.09
668.108	0.08
668.437	0.08
668.765	0.09
669.093	0.08
669.422	0.08
669.75	0.08
670.078	0.08
670.406	0.08
670.734	0.08
671.062	0.08
671.39	0.09
671.718	0.08
672.046	0.08
672.374	0.07
672.702	0.08
673.029	0.08
673.357	0.08
673.685	0.08
674.012	0.09
674.34	0.08
674.667	0.08
674.995	0.08
675.322	0.08
675.649	0.08
675.977	0.08
676.304	0.07
676.631	0.07
676.958	0.07
677.285	0.07
677.612	0.07
677.939	0.08
678.266	0.07
678.593	0.08
678.92	0.07
679.246	0.07
679.573	0.07
679.9	0.07
680.226	0.07
680.553	0.07
680.879	0.07
681.206	0.07
681.532	0.07
681.858	0.07
682.184	0.07
682.511	0.07
682.837	0.07
683.163	0.08
683.489	0.07
683.815	0.06
684.141	0.07
684.467	0.07
684.793	0.07
685.118	0.07
685.444	0.07
685.77	0.07
686.095	0.07
686.421	0.08
686.746	0.08
687.072	0.08
687.397	0.07
687.723	0.08
688.048	0.08
688.373	0.07
688.698	0.07
689.023	0.07
689.349	0.07
689.674	0.07
689.999	0.07
690.323	0.06
690.648	0.06
690.973	0.06
691.298	0.06
691.623	0.06
691.947	0.06
692.272	0.06
692.596	0.06
692.921	0.06
693.245	0.06
693.57	0.06
693.894	0.06
694.218	0.07
694.543	0.06
694.867	0.06
695.191	0.05
695.515	0.06
695.839	0.06
696.163	0.06
696.487	0.06
696.811	0.06
697.135	0.07
697.458	0.07
697.782	0.05
698.106	0.06
698.429	0.06
698.753	0.06
699.076	0.06
699.4	0.06
699.723	0.06
700.046	0.05
700.37	0.07
700.693	0.06
701.016	0.06
701.339	0.06
701.662	0.07
701.985	0.06
702.308	0.06
702.631	0.07
702.954	0.07
703.277	0.07
703.599	0.06
703.922	0.06
704.245	0.06
704.567	0.06
704.89	0.06
705.212	0.06
705.535	0.06
705.857	0.06
706.179	0.06
706.502	0.05
706.824	0.05
707.146	0.05
707.468	0.06
707.79	0.06
708.112	0.06
708.434	0.06
708.756	0.05
709.078	0.06
709.399	0.05
709.721	0.06
710.043	0.07
710.364	0.06
710.686	0.06
711.007	0.05
711.329	0.06
711.65	0.06
711.972	0.06
712.293	0.06
712.614	0.06
712.935	0.06
713.256	0.06
713.577	0.06
713.898	0.06
714.219	0.05
714.54	0.05
714.861	0.05
715.182	0.05
715.503	0.05
715.823	0.05
716.144	0.06
716.464	0.05
716.785	0.05
717.105	0.06
717.426	0.05
717.746	0.05
718.066	0.04
718.387	0.05
718.707	0.04
719.027	0.05
719.347	0.04
719.667	0.05
719.987	0.04
720.307	0.04
720.627	0.04
720.947	0.04
721.266	0.04
721.586	0.04
721.906	0.04
722.225	0.03
722.545	0.04
722.864	0.03
723.184	0.05
723.503	0.04
723.823	0.04
724.142	0.04
724.461	0.04
724.78	0.04
725.099	0.04
725.418	0.04
725.737	0.04
726.056	0.05
726.375	0.05
726.694	0.05
727.013	0.04
727.331	0.04
727.65	0.03
727.969	0.05
728.287	0.04
728.606	0.04
728.924	0.04
729.242	0.04
729.561	0.04
729.879	0.04
730.197	0.04
730.515	0.04
730.834	0.04
731.152	0.04
731.47	0.04
731.788	0.04
732.105	0.04
732.423	0.04
732.741	0.04
733.059	0.04
733.376	0.04
733.694	0.04
734.012	0.04
734.329	0.04
734.647	0.04
734.964	0.05
735.281	0.04
735.599	0.04
735.916	0.05
736.233	0.03
736.55	0.04
736.867	0.04
737.184	0.05
737.501	0.04
737.818	0.04
738.135	0.05
738.452	0.04
738.768	0.05
739.085	0.05
739.402	0.03
739.718	0.05
740.035	0.05
740.351	0.05
740.668	0.05
740.984	0.05
741.3	0.04
741.617	0.06
741.933	0.05
742.249	0.06
742.565	0.04
742.881	0.06
743.197	0.04
743.513	0.05
743.829	0.04
744.144	0.04
744.46	0.05
744.776	0.05
745.091	0.04
745.407	0.04
745.722	0.05
746.038	0.04
746.353	0.03
746.669	0.06
746.984	0.04
747.299	0.05
747.614	0.05
747.93	0.05
748.245	0.04
748.56	0.05
748.875	0.04
749.189	0.04
749.504	0.05
749.819	0.05
750.134	0.05
750.448	0.05
750.763	0.04
751.078	0.04
751.392	0.04
751.707	0.05
752.021	0.05
752.335	0.05
752.65	0.05
752.964	0.05
753.278	0.05
753.592	0.05
753.906	0.05
754.22	0.05
754.534	0.05
754.848	0.06
755.162	0.05
755.476	0.05
755.789	0.05
756.103	0.04
756.417	0.05
756.73	0.05
757.044	0.05
757.357	0.04
757.671	0.05
757.984	0.05
758.297	0.05
758.61	0.05
758.924	0.05
759.237	0.04
759.55	0.05
759.863	0.04
760.176	0.05
760.488	0.04
760.801	0.04
761.114	0.04
761.427	0.04
761.739	0.05
762.052	0.04
762.365	0.04
762.677	0.04
762.99	0.04
763.302	0.04
763.614	0.04
763.926	0.05
764.239	0.04
764.551	0.04
764.863	0.04
765.175	0.05
765.487	0.04
765.799	0.04
766.111	0.04
766.423	0.04
766.734	0.04
767.046	0.03
767.358	0.03
767.669	0.04
767.981	0.03
768.292	0.03
768.604	0.03
768.915	0.03
769.226	0.03
769.537	0.02
769.849	0.04
770.16	0.03
770.471	0.03
770.782	0.03
771.093	0.04
771.404	0.03
771.715	0.02
772.025	0.03
772.336	0.03
772.647	0.02
772.957	0.03
773.268	0.03
773.578	0.03
773.889	0.04
774.199	0.04
774.51	0.04
774.82	0.03
775.13	0.03
775.44	0.03
775.75	0.04
776.06	0.03
776.37	0.03
776.68	0.03
776.99	0.03
777.3	0.04
777.61	0.04
777.92	0.03
778.229	0.03
778.539	0.03
778.848	0.03
779.158	0.04
779.467	0.04
779.777	0.03
780.086	0.04
780.395	0.03
780.704	0.03
781.013	0.03
781.323	0.03
781.632	0.03
781.941	0.04
782.249	0.03
782.558	0.04
782.867	0.04
783.176	0.03
783.485	0.03
783.793	0.04
784.102	0.04
784.41	0.03
784.719	0.03
785.027	0.03
785.335	0.03
785.644	0.03
785.952	0.03
786.26	0.04
786.568	0.02
786.876	0.03
787.184	0.03
787.492	0.03
787.8	0.03
788.108	0.03
788.416	0.04
788.723	0.03
789.031	0.03
789.338	0.03
789.646	0.03
789.953	0.04
790.261	0.03
790.568	0.03
790.876	0.03
791.183	0.03
791.49	0.03
791.797	0.03
792.104	0.02
792.411	0.03
792.718	0.03
793.025	0.03
793.332	0.03
793.639	0.04
793.945	0.04
794.252	0.03
794.559	0.04
794.865	0.04
795.172	0.04
795.478	0.04
795.784	0.04
796.091	0.04
796.397	0.04
796.703	0.04
797.009	0.04
797.315	0.04
797.622	0.04
797.927	0.04
798.233	0.04
798.539	0.05
798.845	0.03
799.151	0.04
799.456	0.04
799.762	0.03
800.068	0.03
800.373	0.05
800.679	0.03
800.984	0.03
801.289	0.03
801.595	0.03
801.9	0.04
802.205	0.03
802.51	0.03
802.815	0.03
803.12	0.03
803.425	0.03
803.73	0.03
804.035	0.03
804.339	0.03
804.644	0.03
804.949	0.03
805.253	0.03
805.558	0.03
805.862	0.03
806.167	0.03
806.471	0.03
806.775	0.04
807.08	0.04
807.384	0.03
807.688	0.03
807.992	0.04
808.296	0.03
808.6	0.04
808.904	0.04
809.207	0.04
809.511	0.05
809.815	0.04
810.119	0.04
810.422	0.05
810.726	0.05
811.029	0.05
811.332	0.05
811.636	0.05
811.939	0.04
812.242	0.04
812.546	0.04
812.849	0.04
813.152	0.05
813.455	0.05
813.758	0.05
814.06	0.04
814.363	0.04
814.666	0.05
814.969	0.04
815.271	0.04
815.574	0.03
815.877	0.04
816.179	0.03
816.481	0.03
816.784	0.04
817.086	0.03
817.388	0.02
817.69	0.03
817.993	0.02
818.295	0.03
818.597	0.03
818.899	0.02
819.2	0.02
819.502	0.01
819.804	0.02
820.106	0.02
820.407	0.02
820.709	0.03
821.01	0.02
821.312	0.03
821.613	0.02
821.915	0.02
822.216	0.03
822.517	0.02
822.818	0.03
823.119	0.03
823.42	0.03
823.721	0.03
824.022	0.02
824.323	0.03
824.624	0.02
824.925	0.03
825.226	0.03
825.526	0.03
825.827	0.03
826.127	0.03
826.428	0.03
826.728	0.02
827.028	0.03
827.329	0.02
827.629	0.03
827.929	0.02
828.229	0.03
828.529	0.03
828.829	0.02
829.129	0.03
829.429	0.03
829.729	0.02
830.029	0.02
830.328	0.02
830.628	0.02
830.927	0.01
831.227	0.02
831.526	0.02
831.826	0.02
832.125	0.02
832.424	0.01
832.724	0.02
833.023	0.01
833.322	0.02
833.621	0.02
833.92	0.01
834.219	0.01
834.518	0.02
834.816	0.01
835.115	0.02
835.414	0.02
835.712	0.01
836.011	0.01
836.309	0.02
836.608	0.01
836.906	0
837.205	-0
837.503	0
837.801	0
838.099	-0
838.397	-0.01
838.695	-0.01
838.993	-0
839.291	-0.02
839.589	-0.01
839.887	-0.02
840.184	-0.03
840.482	-0.02
840.78	-0.02
841.077	-0.03
841.375	-0.03
841.672	-0.03
841.969	-0.03
842.267	-0.03
842.564	-0.03
842.861	-0.03
843.158	-0.04
843.455	-0.04
843.752	-0.04
844.049	-0.04
844.346	-0.04
844.643	-0.05
844.94	-0.05
845.236	-0.04
845.533	-0.04
845.83	-0.04
846.126	-0.05
846.423	-0.05
846.719	-0.06
847.015	-0.05
847.312	-0.06
847.608	-0.07
847.904	-0.06
848.2	-0.06
848.496	-0.06
848.792	-0.05
849.088	-0.05
849.384	-0.07
849.68	-0.06
849.975	-0.06
850.271	-0.07
850.567	-0.07
850.862	-0.07
851.158	-0.07
851.453	-0.07
851.748	-0.07
852.044	-0.07
852.339	-0.07
852.634	-0.09
852.929	-0.07
853.224	-0.08
853.519	-0.08
853.814	-0.07
854.109	-0.08
854.404	-0.08
854.699	-0.09
854.994	-0.08
855.288	-0.08
855.583	-0.08
855.877	-0.09
856.172	-0.09
856.466	-0.1
856.76	-0.09
857.055	-0.09
857.349	-0.1
857.643	-0.1
857.937	-0.11
858.231	-0.1
858.525	-0.11
858.819	-0.1
859.113	-0.12
859.407	-0.12
859.701	-0.12
859.994	-0.11
860.288	-0.1
860.581	-0.11
860.875	-0.12
861.168	-0.12
861.462	-0.13
861.755	-0.12
862.048	-0.13
862.341	-0.13
862.634	-0.13
862.928	-0.12
863.221	-0.13
863.513	-0.13
863.806	-0.12
864.099	-0.13
864.392	-0.13
864.685	-0.13
864.977	-0.13
865.27	-0.13
865.562	-0.13
865.855	-0.12
866.147	-0.13
866.44	-0.12
866.732	-0.14
867.024	-0.14
867.316	-0.14
867.608	-0.14
867.9	-0.14
868.192	-0.14
868.484	-0.15
868.776	-0.15
869.068	-0.14
869.359	-0.15
869.651	-0.15
869.943	-0.16
870.234	-0.16
870.526	-0.16
870.817	-0.16
871.108	-0.14
871.4	-0.16
871.691	-0.16
871.982	-0.15
872.273	-0.17
872.564	-0.16
872.855	-0.16
873.146	-0.17
873.437	-0.16
873.728	-0.18
874.019	-0.17
874.309	-0.18
874.6	-0.17
874.89	-0.18
875.181	-0.18
875.471	-0.17
875.762	-0.17
876.052	-0.16
876.342	-0.16
876.632	-0.17
876.922	-0.18
877.213	-0.17
877.503	-0.19
877.792	-0.17
878.082	-0.18
878.372	-0.17
878.662	-0.2
878.952	-0.18
879.241	-0.17
879.531	-0.17
879.82	-0.19
880.11	-0.19
880.399	-0.18
880.688	-0.18
880.978	-0.18
881.267	-0.18
