Data from 12-12-AQDScycling_Absorbance__963__00963.txt Node

Date: Tue Dec 12 14:57:29 EST 2023
User: kyuminlee
Spectrometer: FLMS00943
Trigger mode: 0
Integration Time (sec): 1.000000E-1
Scans to average: 1
Electric dark correction enabled: true
Nonlinearity correction enabled: false
Boxcar width: 0
XAxis mode: Wavelengths
Number of Pixels in Spectrum: 2048
>>>>>Begin Spectral Data<<<<<
179.651	-0.25
180.037	-0.25
180.424	-0.25
180.81	0.2
181.197	0.04
181.583	-0
181.97	-0.27
182.356	-0.79
182.743	-0
183.129	0.33
183.515	-0
183.901	-0
184.288	-0
184.674	-0
185.06	-0.93
185.446	1.27
185.832	-0.95
186.218	0.52
186.604	0.05
186.99	-0
187.376	0.34
187.762	0.5
188.148	2.12
188.534	-0.33
188.92	0.07
189.305	0.12
189.691	0.23
190.077	0.19
190.463	0.1
190.848	0.18
191.234	0.11
191.619	0.13
192.005	0.18
192.391	0.22
192.776	0.21
193.161	0.15
193.547	0.09
193.932	-0.06
194.318	0.08
194.703	0.16
195.088	0.24
195.473	0.14
195.859	0.23
196.244	0.26
196.629	0.07
197.014	0.05
197.399	0.08
197.784	0.07
198.169	0.11
198.554	0.23
198.939	0.05
199.324	0.16
199.709	0.12
200.094	0.07
200.478	0.06
200.863	0.21
201.248	0.09
201.633	0.28
202.017	0.09
202.402	0.13
202.787	0.09
203.171	0.11
203.556	0.12
203.94	0.11
204.325	0.25
204.709	0.24
205.093	0.15
205.478	0.17
205.862	-0.05
206.246	0.08
206.631	-0.01
207.015	0.08
207.399	0.17
207.783	0.14
208.167	0.08
208.551	0.32
208.935	0.14
209.319	0.07
209.703	0.2
210.087	0.24
210.471	-0.04
210.855	0.21
211.239	0.18
211.623	0.22
212.007	0.2
212.39	0.22
212.774	0.26
213.158	0.13
213.541	0.31
213.925	0.37
214.309	0.56
214.692	0.39
215.076	0.22
215.459	0.13
215.842	0.15
216.226	0.2
216.609	0.23
216.993	0.1
217.376	0.34
217.759	0.24
218.142	0.33
218.525	0.34
218.909	0.28
219.292	0.25
219.675	0.48
220.058	0.42
220.441	0.44
220.824	0.48
221.207	0.5
221.59	0.44
221.973	0.54
222.355	0.61
222.738	0.76
223.121	0.61
223.504	0.57
223.886	0.67
224.269	0.54
224.652	0.68
225.034	0.76
225.417	0.7
225.799	0.73
226.182	0.75
226.564	0.8
226.947	0.74
227.329	0.8
227.711	1
228.094	0.84
228.476	0.89
228.858	0.78
229.24	0.69
229.623	0.85
230.005	0.84
230.387	0.94
230.769	0.87
231.151	0.87
231.533	0.76
231.915	0.93
232.297	1.14
232.679	0.96
233.061	1.08
233.442	1.03
233.824	1.07
234.206	1.03
234.588	1.02
234.969	0.95
235.351	0.93
235.733	1.02
236.114	1.14
236.496	0.93
236.877	1.07
237.259	1.08
237.64	1.02
238.022	1.01
238.403	0.92
238.784	0.9
239.165	0.86
239.547	1.06
239.928	1.07
240.309	0.97
240.69	0.91
241.071	0.98
241.452	1.06
241.834	0.99
242.215	0.99
242.595	1.1
242.976	1.11
243.357	1.08
243.738	1.01
244.119	1.13
244.5	1.11
244.881	1.27
245.261	1.34
245.642	1.16
246.023	1.21
246.403	1.21
246.784	1.31
247.164	1.21
247.545	1.21
247.925	1.44
248.306	1.18
248.686	1.43
249.067	1.24
249.447	1.33
249.827	1.41
250.207	1.25
250.588	1.21
250.968	1.47
251.348	1.34
251.728	1.35
252.108	1.25
252.488	1.31
252.868	1.34
253.248	1.28
253.628	1.4
254.008	1.4
254.388	1.32
254.768	1.35
255.147	1.52
255.527	1.34
255.907	1.21
256.287	1.29
256.666	1.36
257.046	1.46
257.425	1.44
257.805	1.39
258.184	1.28
258.564	1.29
258.943	1.3
259.323	1.52
259.702	1.4
260.081	1.32
260.461	1.42
260.84	1.35
261.219	1.6
261.598	1.51
261.977	1.47
262.356	1.5
262.736	1.39
263.115	1.54
263.494	1.31
263.873	1.42
264.251	1.48
264.63	1.47
265.009	1.36
265.388	1.34
265.767	1.28
266.145	1.46
266.524	1.5
266.903	1.35
267.281	1.37
267.66	1.5
268.039	1.43
268.417	1.29
268.796	1.36
269.174	1.39
269.552	1.4
269.931	1.47
270.309	1.46
270.687	1.58
271.066	1.59
271.444	1.32
271.822	1.35
272.2	1.4
272.578	1.42
272.956	1.43
273.334	1.46
273.712	1.46
274.09	1.45
274.468	1.39
274.846	1.33
275.224	1.36
275.602	1.41
275.98	1.52
276.357	1.35
276.735	1.44
277.113	1.38
277.49	1.19
277.868	1.23
278.246	1.34
278.623	1.3
279.001	1.35
279.378	1.47
279.756	1.47
280.133	1.58
280.51	1.25
280.888	1.55
281.265	1.34
281.642	1.52
282.019	1.37
282.396	1.64
282.773	1.47
283.151	1.59
283.528	1.38
283.905	1.4
284.282	1.51
284.659	1.66
285.035	1.3
285.412	1.31
285.789	1.5
286.166	1.36
286.543	1.51
286.919	1.63
287.296	1.45
287.673	1.71
288.049	1.52
288.426	1.4
288.802	1.53
289.179	1.51
289.555	1.69
289.932	1.49
290.308	1.33
290.684	1.36
291.061	1.39
291.437	1.71
291.813	1.37
292.189	1.23
292.565	1.33
292.942	1.36
293.318	1.39
293.694	1.45
294.07	1.26
294.446	1.39
294.822	1.41
295.197	1.48
295.573	1.52
295.949	1.62
296.325	1.38
296.701	1.47
297.076	1.56
297.452	1.56
297.828	1.37
298.203	1.55
298.579	1.45
298.954	1.43
299.33	1.39
299.705	1.43
300.081	1.54
300.456	1.68
300.831	1.53
301.206	1.49
301.582	1.52
301.957	1.48
302.332	1.53
302.707	1.46
303.082	1.43
303.457	1.51
303.832	1.52
304.207	1.41
304.582	1.45
304.957	1.59
305.332	1.53
305.707	1.39
306.082	1.58
306.456	1.64
306.831	1.52
307.206	1.47
307.58	1.59
307.955	1.4
308.33	1.51
308.704	1.59
309.079	1.48
309.453	1.61
309.828	1.49
310.202	1.52
310.576	1.52
310.951	1.66
311.325	1.59
311.699	1.48
312.073	1.34
312.447	1.49
312.821	1.53
313.196	1.56
313.57	1.45
313.944	1.52
314.317	1.46
314.691	1.54
315.065	1.43
315.439	1.46
315.813	1.5
316.187	1.52
316.56	1.7
316.934	1.57
317.308	1.51
317.681	1.55
318.055	1.59
318.428	1.47
318.802	1.59
319.175	1.45
319.549	1.48
319.922	1.37
320.295	1.5
320.669	1.51
321.042	1.44
321.415	1.67
321.788	1.51
322.162	1.46
322.535	1.59
322.908	1.47
323.281	1.48
323.654	1.72
324.027	1.59
324.4	1.71
324.773	1.39
325.145	1.48
325.518	1.48
325.891	1.45
326.264	1.69
326.636	1.41
327.009	1.41
327.382	1.53
327.754	1.52
328.127	1.46
328.499	1.55
328.872	1.55
329.244	1.43
329.616	1.43
329.989	1.45
330.361	1.51
330.733	1.43
331.106	1.43
331.478	1.5
331.85	1.41
332.222	1.42
332.594	1.49
332.966	1.49
333.338	1.62
333.71	1.6
334.082	1.77
334.454	1.48
334.826	1.66
335.197	1.71
335.569	1.49
335.941	1.35
336.312	1.57
336.684	1.52
337.056	1.42
337.427	1.54
337.799	1.5
338.17	1.53
338.542	1.38
338.913	1.62
339.284	1.53
339.656	1.53
340.027	1.5
340.398	1.6
340.769	1.47
341.141	1.82
341.512	1.56
341.883	1.61
342.254	1.62
342.625	1.45
342.996	1.47
343.367	1.58
343.738	1.57
344.108	1.5
344.479	1.64
344.85	1.4
345.221	1.76
345.591	1.37
345.962	1.38
346.333	1.54
346.703	1.36
347.074	1.42
347.444	1.34
347.815	1.54
348.185	1.39
348.556	1.42
348.926	1.31
349.296	1.46
349.666	1.31
350.037	1.38
350.407	1.22
350.777	1.25
351.147	1.38
351.517	1.3
351.887	1.38
352.257	1.37
352.627	1.29
352.997	1.32
353.367	1.44
353.737	1.36
354.106	1.52
354.476	1.27
354.846	1.32
355.216	1.36
355.585	1.29
355.955	1.31
356.324	1.3
356.694	1.33
357.063	1.28
357.433	1.19
357.802	1.24
358.171	1.21
358.541	1.15
358.91	1.19
359.279	1.21
359.648	1.13
360.017	1.16
360.387	1.13
360.756	1.07
361.125	1.16
361.494	1.09
361.863	1.05
362.231	1.03
362.6	1.05
362.969	1.01
363.338	0.94
363.707	0.96
364.075	0.95
364.444	0.86
364.813	0.91
365.181	0.92
365.55	0.88
365.918	0.89
366.287	0.83
366.655	0.86
367.024	0.8
367.392	0.8
367.76	0.79
368.128	0.74
368.497	0.75
368.865	0.74
369.233	0.72
369.601	0.71
369.969	0.69
370.337	0.71
370.705	0.67
371.073	0.67
371.441	0.67
371.809	0.64
372.177	0.67
372.544	0.67
372.912	0.63
373.28	0.63
373.647	0.63
374.015	0.63
374.383	0.6
374.75	0.59
375.118	0.61
375.485	0.6
375.853	0.58
376.22	0.54
376.587	0.55
376.955	0.58
377.322	0.55
377.689	0.57
378.056	0.53
378.423	0.55
378.79	0.55
379.157	0.54
379.524	0.53
379.891	0.52
380.258	0.54
380.625	0.53
380.992	0.52
381.359	0.51
381.726	0.54
382.092	0.52
382.459	0.51
382.826	0.49
383.192	0.52
383.559	0.52
383.925	0.52
384.292	0.49
384.658	0.52
385.025	0.49
385.391	0.52
385.757	0.51
386.123	0.51
386.49	0.51
386.856	0.51
387.222	0.49
387.588	0.51
387.954	0.51
388.32	0.5
388.686	0.48
389.052	0.49
389.418	0.5
389.784	0.5
390.15	0.51
390.515	0.49
390.881	0.53
391.247	0.49
391.613	0.51
391.978	0.49
392.344	0.51
392.709	0.51
393.075	0.5
393.44	0.48
393.806	0.48
394.171	0.48
394.536	0.49
394.902	0.47
395.267	0.48
395.632	0.46
395.997	0.45
396.362	0.48
396.727	0.46
397.092	0.47
397.457	0.47
397.822	0.48
398.187	0.45
398.552	0.45
398.917	0.45
399.282	0.44
399.646	0.44
400.011	0.46
400.376	0.44
400.74	0.44
401.105	0.44
401.47	0.44
401.834	0.42
402.199	0.44
402.563	0.4
402.927	0.42
403.292	0.44
403.656	0.44
404.02	0.42
404.384	0.42
404.749	0.41
405.113	0.41
405.477	0.41
405.841	0.38
406.205	0.41
406.569	0.39
406.933	0.38
407.296	0.39
407.66	0.41
408.024	0.39
408.388	0.4
408.752	0.37
409.115	0.38
409.479	0.39
409.842	0.36
410.206	0.36
410.569	0.37
410.933	0.35
411.296	0.36
411.66	0.37
412.023	0.35
412.386	0.37
412.749	0.34
413.113	0.35
413.476	0.33
413.839	0.34
414.202	0.34
414.565	0.34
414.928	0.34
415.291	0.32
415.654	0.34
416.017	0.33
416.38	0.33
416.742	0.32
417.105	0.33
417.468	0.33
417.83	0.32
418.193	0.32
418.556	0.31
418.918	0.32
419.281	0.31
419.643	0.32
420.005	0.32
420.368	0.31
420.73	0.3
421.092	0.32
421.455	0.3
421.817	0.3
422.179	0.3
422.541	0.29
422.903	0.3
423.265	0.3
423.627	0.29
423.989	0.3
424.351	0.28
424.713	0.3
425.075	0.28
425.436	0.27
425.798	0.26
426.16	0.28
426.521	0.28
426.883	0.3
427.245	0.29
427.606	0.28
427.967	0.29
428.329	0.29
428.69	0.3
429.052	0.28
429.413	0.3
429.774	0.28
430.135	0.27
430.497	0.28
430.858	0.28
431.219	0.26
431.58	0.28
431.941	0.27
432.302	0.27
432.663	0.26
433.024	0.27
433.384	0.27
433.745	0.27
434.106	0.26
434.467	0.26
434.827	0.27
435.188	0.27
435.548	0.26
435.909	0.25
436.269	0.28
436.63	0.24
436.99	0.25
437.351	0.27
437.711	0.26
438.071	0.25
438.431	0.25
438.792	0.25
439.152	0.25
439.512	0.24
439.872	0.24
440.232	0.26
440.592	0.25
440.952	0.25
441.312	0.25
441.671	0.24
442.031	0.23
442.391	0.24
442.751	0.25
443.11	0.23
443.47	0.24
443.83	0.24
444.189	0.23
444.549	0.24
444.908	0.23
445.267	0.24
445.627	0.23
445.986	0.22
446.345	0.22
446.705	0.22
447.064	0.21
447.423	0.21
447.782	0.21
448.141	0.22
448.5	0.2
448.859	0.21
449.218	0.21
449.577	0.22
449.936	0.23
450.295	0.22
450.653	0.22
451.012	0.21
451.371	0.22
451.729	0.22
452.088	0.22
452.447	0.21
452.805	0.23
453.163	0.22
453.522	0.21
453.88	0.2
454.239	0.21
454.597	0.2
454.955	0.2
455.313	0.2
455.671	0.2
456.029	0.21
456.388	0.19
456.746	0.19
457.104	0.19
457.461	0.19
457.819	0.19
458.177	0.18
458.535	0.18
458.893	0.18
459.25	0.18
459.608	0.18
459.966	0.17
460.323	0.18
460.681	0.16
461.038	0.18
461.396	0.17
461.753	0.17
462.111	0.16
462.468	0.16
462.825	0.15
463.182	0.16
463.54	0.16
463.897	0.16
464.254	0.16
464.611	0.15
464.968	0.15
465.325	0.16
465.682	0.15
466.039	0.16
466.395	0.15
466.752	0.15
467.109	0.15
467.466	0.15
467.822	0.16
468.179	0.14
468.535	0.14
468.892	0.15
469.248	0.14
469.605	0.14
469.961	0.14
470.318	0.14
470.674	0.14
471.03	0.14
471.386	0.14
471.743	0.14
472.099	0.13
472.455	0.13
472.811	0.13
473.167	0.13
473.523	0.12
473.879	0.13
474.235	0.12
474.59	0.12
474.946	0.12
475.302	0.12
475.657	0.13
476.013	0.13
476.369	0.12
476.724	0.12
477.08	0.12
477.435	0.12
477.791	0.12
478.146	0.12
478.501	0.12
478.857	0.12
479.212	0.12
479.567	0.11
479.922	0.1
480.277	0.11
480.632	0.1
480.987	0.11
481.342	0.1
481.697	0.1
482.052	0.11
482.407	0.1
482.762	0.1
483.116	0.1
483.471	0.09
483.826	0.09
484.18	0.09
484.535	0.09
484.89	0.09
485.244	0.09
485.598	0.1
485.953	0.09
486.307	0.09
486.661	0.09
487.016	0.09
487.37	0.1
487.724	0.09
488.078	0.09
488.432	0.09
488.786	0.09
489.14	0.08
489.494	0.08
489.848	0.08
490.202	0.08
490.556	0.08
490.91	0.08
491.263	0.08
491.617	0.08
491.971	0.08
492.324	0.08
492.678	0.08
493.031	0.08
493.385	0.08
493.738	0.08
494.091	0.08
494.445	0.08
494.798	0.08
495.151	0.08
495.504	0.08
495.857	0.08
496.21	0.08
496.564	0.08
496.916	0.08
497.269	0.07
497.622	0.08
497.975	0.07
498.328	0.08
498.681	0.08
499.033	0.07
499.386	0.07
499.739	0.07
500.091	0.06
500.444	0.07
500.796	0.07
501.149	0.07
501.501	0.07
501.854	0.07
502.206	0.07
502.558	0.07
502.91	0.07
503.263	0.07
503.615	0.07
503.967	0.07
504.319	0.07
504.671	0.06
505.023	0.06
505.375	0.06
505.726	0.07
506.078	0.06
506.43	0.07
506.782	0.06
507.133	0.07
507.485	0.07
507.837	0.07
508.188	0.07
508.54	0.07
508.891	0.08
509.243	0.07
509.594	0.07
509.945	0.07
510.296	0.07
510.648	0.07
510.999	0.06
511.35	0.07
511.701	0.07
512.052	0.07
512.403	0.07
512.754	0.06
513.105	0.07
513.456	0.06
513.807	0.06
514.157	0.07
514.508	0.07
514.859	0.06
515.209	0.06
515.56	0.07
515.91	0.06
516.261	0.07
516.611	0.06
516.962	0.06
517.312	0.07
517.662	0.07
518.013	0.07
518.363	0.07
518.713	0.07
519.063	0.07
519.413	0.07
519.763	0.07
520.113	0.07
520.463	0.07
520.813	0.08
521.163	0.08
521.512	0.06
521.862	0.07
522.212	0.07
522.562	0.07
522.911	0.07
523.261	0.07
523.61	0.07
523.96	0.07
524.309	0.08
524.658	0.08
525.008	0.07
525.357	0.07
525.706	0.07
526.056	0.07
526.405	0.07
526.754	0.07
527.103	0.07
527.452	0.07
527.801	0.07
528.15	0.07
528.499	0.07
528.847	0.08
529.196	0.08
529.545	0.08
529.893	0.08
530.242	0.08
530.591	0.08
530.939	0.08
531.288	0.08
531.636	0.07
531.985	0.08
532.333	0.07
532.681	0.08
533.029	0.08
533.378	0.07
533.726	0.08
534.074	0.08
534.422	0.07
534.77	0.08
535.118	0.07
535.466	0.07
535.814	0.08
536.162	0.07
536.509	0.07
536.857	0.07
537.205	0.08
537.552	0.08
537.9	0.08
538.248	0.07
538.595	0.08
538.943	0.08
539.29	0.07
539.637	0.07
539.985	0.07
540.332	0.07
540.679	0.07
541.026	0.07
541.373	0.08
541.721	0.07
542.068	0.07
542.415	0.07
542.762	0.07
543.108	0.06
543.455	0.06
543.802	0.07
544.149	0.07
544.496	0.08
544.842	0.07
545.189	0.07
545.535	0.07
545.882	0.06
546.228	0.07
546.575	0.05
546.921	0.06
547.267	0.06
547.614	0.07
547.96	0.06
548.306	0.06
548.652	0.06
548.998	0.07
549.344	0.07
549.69	0.07
550.036	0.06
550.382	0.06
550.728	0.06
551.074	0.07
551.42	0.07
551.765	0.08
552.111	0.07
552.457	0.08
552.802	0.08
553.148	0.07
553.493	0.07
553.839	0.07
554.184	0.07
554.529	0.06
554.875	0.07
555.22	0.08
555.565	0.08
555.91	0.07
556.255	0.08
556.6	0.08
556.945	0.07
557.29	0.07
557.635	0.07
557.98	0.07
558.325	0.06
558.67	0.07
559.014	0.07
559.359	0.08
559.704	0.07
560.048	0.06
560.393	0.07
560.737	0.06
561.082	0.07
561.426	0.06
561.77	0.07
562.115	0.07
562.459	0.06
562.803	0.07
563.147	0.07
563.491	0.07
563.835	0.07
564.179	0.07
564.523	0.07
564.867	0.06
565.211	0.07
565.555	0.07
565.899	0.07
566.242	0.07
566.586	0.06
566.93	0.07
567.273	0.07
567.617	0.07
567.96	0.07
568.304	0.07
568.647	0.07
568.99	0.07
569.334	0.08
569.677	0.07
570.02	0.08
570.363	0.07
570.706	0.07
571.049	0.08
571.392	0.07
571.735	0.07
572.078	0.07
572.421	0.09
572.764	0.07
573.106	0.07
573.449	0.07
573.792	0.07
574.134	0.07
574.477	0.08
574.819	0.06
575.162	0.06
575.504	0.06
575.847	0.07
576.189	0.07
576.531	0.06
576.873	0.06
577.215	0.07
577.558	0.06
577.9	0.06
578.242	0.07
578.584	0.07
578.926	0.06
579.267	0.07
579.609	0.06
579.951	0.06
580.293	0.07
580.634	0.07
580.976	0.07
581.318	0.06
581.659	0.06
582.001	0.07
582.342	0.07
582.683	0.07
583.025	0.06
583.366	0.07
583.707	0.07
584.049	0.07
584.39	0.07
584.731	0.06
585.072	0.07
585.413	0.08
585.754	0.07
586.095	0.07
586.435	0.07
586.776	0.06
587.117	0.07
587.458	0.06
587.798	0.07
588.139	0.07
588.48	0.06
588.82	0.06
589.161	0.07
589.501	0.06
589.841	0.07
590.182	0.06
590.522	0.06
590.862	0.06
591.202	0.06
591.542	0.06
591.882	0.06
592.222	0.06
592.562	0.06
592.902	0.07
593.242	0.06
593.582	0.07
593.922	0.06
594.261	0.06
594.601	0.06
594.941	0.06
595.28	0.06
595.62	0.06
595.959	0.06
596.299	0.06
596.638	0.06
596.977	0.07
597.317	0.07
597.656	0.07
597.995	0.07
598.334	0.07
598.673	0.07
599.012	0.07
599.351	0.08
599.69	0.07
600.029	0.08
600.368	0.08
600.707	0.08
601.046	0.07
601.384	0.08
601.723	0.08
602.061	0.07
602.4	0.08
602.738	0.07
603.077	0.07
603.415	0.07
603.754	0.07
604.092	0.07
604.43	0.06
604.768	0.06
605.107	0.07
605.445	0.06
605.783	0.07
606.121	0.06
606.459	0.07
606.796	0.07
607.134	0.06
607.472	0.07
607.81	0.06
608.148	0.06
608.485	0.07
608.823	0.07
609.16	0.06
609.498	0.07
609.835	0.07
610.173	0.07
610.51	0.06
610.847	0.07
611.185	0.07
611.522	0.07
611.859	0.07
612.196	0.07
612.533	0.07
612.87	0.08
613.207	0.07
613.544	0.07
613.881	0.08
614.217	0.08
614.554	0.07
614.891	0.07
615.228	0.07
615.564	0.08
615.901	0.08
616.237	0.08
616.574	0.07
616.91	0.08
617.246	0.08
617.583	0.08
617.919	0.08
618.255	0.08
618.591	0.07
618.927	0.08
619.263	0.08
619.599	0.08
619.935	0.08
620.271	0.08
620.607	0.08
620.943	0.08
621.279	0.08
621.614	0.08
621.95	0.09
622.286	0.07
622.621	0.07
622.957	0.08
623.292	0.07
623.627	0.07
623.963	0.07
624.298	0.07
624.633	0.07
624.968	0.07
625.304	0.07
625.639	0.06
625.974	0.07
626.309	0.06
626.644	0.08
626.979	0.08
627.313	0.07
627.648	0.07
627.983	0.08
628.318	0.07
628.652	0.07
628.987	0.08
629.321	0.07
629.656	0.07
629.99	0.06
630.325	0.07
630.659	0.07
630.993	0.06
631.327	0.06
631.662	0.05
631.996	0.06
632.33	0.06
632.664	0.06
632.998	0.05
633.332	0.06
633.666	0.06
633.999	0.06
634.333	0.06
634.667	0.06
635.001	0.05
635.334	0.06
635.668	0.05
636.001	0.05
636.335	0.05
636.668	0.06
637.001	0.05
637.335	0.05
637.668	0.06
638.001	0.05
638.334	0.05
638.668	0.05
639.001	0.06
639.334	0.05
639.667	0.05
639.999	0.05
640.332	0.06
640.665	0.05
640.998	0.06
641.331	0.06
641.663	0.06
641.996	0.06
642.328	0.06
642.661	0.06
642.993	0.06
643.326	0.06
643.658	0.06
643.99	0.06
644.323	0.06
644.655	0.06
644.987	0.06
645.319	0.07
645.651	0.06
645.983	0.07
646.315	0.07
646.647	0.07
646.979	0.08
647.31	0.07
647.642	0.07
647.974	0.07
648.305	0.08
648.637	0.08
648.968	0.07
649.3	0.07
649.631	0.07
649.963	0.07
650.294	0.07
650.625	0.06
650.957	0.07
651.288	0.06
651.619	0.07
651.95	0.07
652.281	0.06
652.612	0.06
652.943	0.07
653.274	0.08
653.604	0.07
653.935	0.06
654.266	0.07
654.596	0.07
654.927	0.06
655.258	0.07
655.588	0.07
655.918	0.07
656.249	0.05
656.579	0.06
656.909	0.06
657.24	0.06
657.57	0.07
657.9	0.06
658.23	0.06
658.56	0.07
658.89	0.07
659.22	0.06
659.55	0.07
659.88	0.07
660.209	0.07
660.539	0.08
660.869	0.07
661.198	0.07
661.528	0.06
661.857	0.07
662.187	0.06
662.516	0.07
662.846	0.06
663.175	0.07
663.504	0.07
663.833	0.06
664.163	0.07
664.492	0.06
664.821	0.06
665.15	0.06
665.479	0.07
665.807	0.06
666.136	0.06
666.465	0.06
666.794	0.06
667.122	0.07
667.451	0.06
667.78	0.07
668.108	0.07
668.437	0.07
668.765	0.07
669.093	0.07
669.422	0.07
669.75	0.08
670.078	0.07
670.406	0.08
670.734	0.07
671.062	0.07
671.39	0.07
671.718	0.07
672.046	0.08
672.374	0.07
672.702	0.07
673.029	0.07
673.357	0.07
673.685	0.07
674.012	0.07
674.34	0.07
674.667	0.07
674.995	0.07
675.322	0.07
675.649	0.07
675.977	0.07
676.304	0.07
676.631	0.06
676.958	0.07
677.285	0.06
677.612	0.06
677.939	0.07
678.266	0.07
678.593	0.07
678.92	0.07
679.246	0.06
679.573	0.07
679.9	0.06
680.226	0.07
680.553	0.06
680.879	0.07
681.206	0.07
681.532	0.07
681.858	0.07
682.184	0.07
682.511	0.07
682.837	0.07
683.163	0.07
683.489	0.07
683.815	0.06
684.141	0.07
684.467	0.07
684.793	0.07
685.118	0.06
685.444	0.07
685.77	0.07
686.095	0.07
686.421	0.06
686.746	0.07
687.072	0.07
687.397	0.07
687.723	0.07
688.048	0.08
688.373	0.06
688.698	0.06
689.023	0.06
689.349	0.06
689.674	0.06
689.999	0.06
690.323	0.06
690.648	0.06
690.973	0.05
691.298	0.06
691.623	0.05
691.947	0.05
692.272	0.05
692.596	0.06
692.921	0.06
693.245	0.06
693.57	0.07
693.894	0.06
694.218	0.06
694.543	0.06
694.867	0.06
695.191	0.05
695.515	0.06
695.839	0.05
696.163	0.06
696.487	0.07
696.811	0.06
697.135	0.06
697.458	0.07
697.782	0.06
698.106	0.07
698.429	0.06
698.753	0.06
699.076	0.07
699.4	0.07
699.723	0.06
700.046	0.06
700.37	0.06
700.693	0.07
701.016	0.06
701.339	0.07
701.662	0.07
701.985	0.06
702.308	0.06
702.631	0.06
702.954	0.07
703.277	0.06
703.599	0.06
703.922	0.06
704.245	0.05
704.567	0.05
704.89	0.06
705.212	0.05
705.535	0.05
705.857	0.05
706.179	0.05
706.502	0.05
706.824	0.05
707.146	0.05
707.468	0.05
707.79	0.05
708.112	0.06
708.434	0.06
708.756	0.05
709.078	0.06
709.399	0.05
709.721	0.05
710.043	0.05
710.364	0.05
710.686	0.06
711.007	0.05
711.329	0.06
711.65	0.06
711.972	0.06
712.293	0.05
712.614	0.06
712.935	0.06
713.256	0.06
713.577	0.07
713.898	0.06
714.219	0.06
714.54	0.06
714.861	0.05
715.182	0.06
715.503	0.06
715.823	0.06
716.144	0.06
716.464	0.05
716.785	0.05
717.105	0.05
717.426	0.06
717.746	0.05
718.066	0.05
718.387	0.05
718.707	0.05
719.027	0.06
719.347	0.05
719.667	0.05
719.987	0.05
720.307	0.05
720.627	0.04
720.947	0.05
721.266	0.05
721.586	0.05
721.906	0.04
722.225	0.04
722.545	0.05
722.864	0.05
723.184	0.05
723.503	0.05
723.823	0.05
724.142	0.05
724.461	0.05
724.78	0.04
725.099	0.05
725.418	0.05
725.737	0.05
726.056	0.05
726.375	0.05
726.694	0.05
727.013	0.06
727.331	0.04
727.65	0.05
727.969	0.05
728.287	0.05
728.606	0.05
728.924	0.04
729.242	0.05
729.561	0.06
729.879	0.05
730.197	0.05
730.515	0.05
730.834	0.05
731.152	0.05
731.47	0.05
731.788	0.05
732.105	0.05
732.423	0.04
732.741	0.05
733.059	0.05
733.376	0.06
733.694	0.05
734.012	0.05
734.329	0.06
734.647	0.05
734.964	0.06
735.281	0.06
735.599	0.06
735.916	0.06
736.233	0.05
736.55	0.07
736.867	0.06
737.184	0.06
737.501	0.06
737.818	0.06
738.135	0.07
738.452	0.06
738.768	0.06
739.085	0.06
739.402	0.05
739.718	0.06
740.035	0.05
740.351	0.06
740.668	0.06
740.984	0.05
741.3	0.05
741.617	0.06
741.933	0.06
742.249	0.06
742.565	0.05
742.881	0.05
743.197	0.06
743.513	0.05
743.829	0.05
744.144	0.05
744.46	0.05
744.776	0.05
745.091	0.05
745.407	0.05
745.722	0.04
746.038	0.04
746.353	0.05
746.669	0.05
746.984	0.05
747.299	0.05
747.614	0.05
747.93	0.06
748.245	0.05
748.56	0.05
748.875	0.04
749.189	0.04
749.504	0.04
749.819	0.04
750.134	0.04
750.448	0.05
750.763	0.05
751.078	0.04
751.392	0.05
751.707	0.05
752.021	0.06
752.335	0.05
752.65	0.05
752.964	0.04
753.278	0.05
753.592	0.05
753.906	0.04
754.22	0.05
754.534	0.05
754.848	0.05
755.162	0.04
755.476	0.06
755.789	0.05
756.103	0.05
756.417	0.05
756.73	0.05
757.044	0.05
757.357	0.05
757.671	0.05
757.984	0.05
758.297	0.05
758.61	0.05
758.924	0.05
759.237	0.04
759.55	0.05
759.863	0.05
760.176	0.05
760.488	0.05
760.801	0.05
761.114	0.04
761.427	0.04
761.739	0.04
762.052	0.04
762.365	0.05
762.677	0.04
762.99	0.04
763.302	0.05
763.614	0.05
763.926	0.06
764.239	0.05
764.551	0.05
764.863	0.05
765.175	0.06
765.487	0.05
765.799	0.05
766.111	0.04
766.423	0.05
766.734	0.05
767.046	0.05
767.358	0.05
767.669	0.04
767.981	0.05
768.292	0.05
768.604	0.04
768.915	0.04
769.226	0.04
769.537	0.03
769.849	0.05
770.16	0.04
770.471	0.04
770.782	0.04
771.093	0.04
771.404	0.03
771.715	0.03
772.025	0.03
772.336	0.04
772.647	0.03
772.957	0.04
773.268	0.04
773.578	0.04
773.889	0.05
774.199	0.05
774.51	0.05
774.82	0.05
775.13	0.04
775.44	0.04
775.75	0.05
776.06	0.05
776.37	0.05
776.68	0.05
776.99	0.05
777.3	0.05
777.61	0.06
777.92	0.05
778.229	0.06
778.539	0.05
778.848	0.05
779.158	0.05
779.467	0.06
779.777	0.06
780.086	0.06
780.395	0.04
780.704	0.05
781.013	0.05
781.323	0.04
781.632	0.05
781.941	0.05
782.249	0.05
782.558	0.04
782.867	0.05
783.176	0.04
783.485	0.04
783.793	0.05
784.102	0.04
784.41	0.05
784.719	0.05
785.027	0.04
785.335	0.04
785.644	0.05
785.952	0.05
786.26	0.05
786.568	0.05
786.876	0.04
787.184	0.05
787.492	0.05
787.8	0.05
788.108	0.06
788.416	0.05
788.723	0.05
789.031	0.04
789.338	0.05
789.646	0.05
789.953	0.06
790.261	0.05
790.568	0.05
790.876	0.05
791.183	0.05
791.49	0.05
791.797	0.04
792.104	0.04
792.411	0.05
792.718	0.04
793.025	0.05
793.332	0.05
793.639	0.06
793.945	0.06
794.252	0.05
794.559	0.06
794.865	0.05
795.172	0.05
795.478	0.06
795.784	0.04
796.091	0.05
796.397	0.06
796.703	0.05
797.009	0.05
797.315	0.05
797.622	0.05
797.927	0.05
798.233	0.05
798.539	0.05
798.845	0.05
799.151	0.05
799.456	0.05
799.762	0.04
800.068	0.05
800.373	0.06
800.679	0.05
800.984	0.05
801.289	0.05
801.595	0.05
801.9	0.05
802.205	0.05
802.51	0.05
802.815	0.05
803.12	0.05
803.425	0.05
803.73	0.05
804.035	0.05
804.339	0.04
804.644	0.05
804.949	0.05
805.253	0.05
805.558	0.05
805.862	0.05
806.167	0.05
806.471	0.04
806.775	0.05
807.08	0.05
807.384	0.05
807.688	0.06
807.992	0.06
808.296	0.04
808.6	0.05
808.904	0.05
809.207	0.06
809.511	0.06
809.815	0.06
810.119	0.05
810.422	0.06
810.726	0.07
811.029	0.06
811.332	0.06
811.636	0.06
811.939	0.06
812.242	0.06
812.546	0.06
812.849	0.05
813.152	0.06
813.455	0.06
813.758	0.06
814.06	0.06
814.363	0.05
814.666	0.05
814.969	0.05
815.271	0.06
815.574	0.05
815.877	0.05
816.179	0.05
816.481	0.05
816.784	0.05
817.086	0.04
817.388	0.05
817.69	0.03
817.993	0.04
818.295	0.04
818.597	0.04
818.899	0.04
819.2	0.04
819.502	0.04
819.804	0.05
820.106	0.04
820.407	0.04
820.709	0.04
821.01	0.04
821.312	0.04
821.613	0.03
821.915	0.03
822.216	0.04
822.517	0.03
822.818	0.04
823.119	0.04
823.42	0.03
823.721	0.03
824.022	0.03
824.323	0.04
824.624	0.03
824.925	0.04
825.226	0.05
825.526	0.03
825.827	0.04
826.127	0.04
826.428	0.04
826.728	0.03
827.028	0.03
827.329	0.03
827.629	0.02
827.929	0.02
828.229	0.03
828.529	0.03
828.829	0.03
829.129	0.04
829.429	0.03
829.729	0.03
830.029	0.03
830.328	0.03
830.628	0.02
830.927	0.02
831.227	0.02
831.526	0.03
831.826	0.03
832.125	0.03
832.424	0.03
832.724	0.02
833.023	0.03
833.322	0.03
833.621	0.03
833.92	0.01
834.219	0.02
834.518	0.02
834.816	0.01
835.115	0.02
835.414	0.02
835.712	0.01
836.011	0.01
836.309	0.01
836.608	0.01
836.906	0.01
837.205	0
837.503	0.01
837.801	0
838.099	-0
838.397	-0.01
838.695	-0.01
838.993	-0.01
839.291	-0.01
839.589	-0.01
839.887	-0.01
840.184	-0.02
840.482	-0.01
840.78	-0.01
841.077	-0.02
841.375	-0.01
841.672	-0.01
841.969	-0.02
842.267	-0.02
842.564	-0.01
842.861	-0
843.158	-0.01
843.455	-0.02
843.752	-0.02
844.049	-0.02
844.346	-0.02
844.643	-0.03
844.94	-0.03
845.236	-0.01
845.533	-0.03
845.83	-0.02
846.126	-0.03
846.423	-0.02
846.719	-0.03
847.015	-0.03
847.312	-0.03
847.608	-0.04
847.904	-0.04
848.2	-0.03
848.496	-0.04
848.792	-0.04
849.088	-0.03
849.384	-0.05
849.68	-0.05
849.975	-0.05
850.271	-0.05
850.567	-0.05
850.862	-0.06
851.158	-0.05
851.453	-0.05
851.748	-0.07
852.044	-0.06
852.339	-0.05
852.634	-0.08
852.929	-0.06
853.224	-0.07
853.519	-0.06
853.814	-0.06
854.109	-0.07
854.404	-0.07
854.699	-0.07
854.994	-0.06
855.288	-0.06
855.583	-0.05
855.877	-0.07
856.172	-0.06
856.466	-0.06
856.76	-0.07
857.055	-0.07
857.349	-0.08
857.643	-0.07
857.937	-0.08
858.231	-0.08
858.525	-0.08
858.819	-0.09
859.113	-0.1
859.407	-0.09
859.701	-0.1
859.994	-0.11
860.288	-0.08
860.581	-0.1
860.875	-0.1
861.168	-0.11
861.462	-0.1
861.755	-0.09
862.048	-0.1
862.341	-0.11
862.634	-0.1
862.928	-0.1
863.221	-0.11
863.513	-0.12
863.806	-0.11
864.099	-0.12
864.392	-0.12
864.685	-0.11
864.977	-0.12
865.27	-0.11
865.562	-0.12
865.855	-0.11
866.147	-0.12
866.44	-0.12
866.732	-0.12
867.024	-0.13
867.316	-0.12
867.608	-0.14
867.9	-0.12
868.192	-0.13
868.484	-0.13
868.776	-0.13
869.068	-0.13
869.359	-0.13
869.651	-0.14
869.943	-0.14
870.234	-0.14
870.526	-0.14
870.817	-0.15
871.108	-0.13
871.4	-0.14
871.691	-0.14
871.982	-0.16
872.273	-0.15
872.564	-0.15
872.855	-0.15
873.146	-0.16
873.437	-0.15
873.728	-0.17
874.019	-0.16
874.309	-0.16
874.6	-0.16
874.89	-0.16
875.181	-0.16
875.471	-0.16
875.762	-0.16
876.052	-0.15
876.342	-0.14
876.632	-0.17
876.922	-0.17
877.213	-0.17
877.503	-0.18
877.792	-0.17
878.082	-0.17
878.372	-0.16
878.662	-0.18
878.952	-0.18
879.241	-0.17
879.531	-0.16
879.82	-0.16
880.11	-0.17
880.399	-0.16
880.688	-0.15
880.978	-0.15
881.267	-0.15
