Data from 12-12-AQDScycling_Absorbance__859__00859.txt Node

Date: Tue Dec 12 14:31:29 EST 2023
User: kyuminlee
Spectrometer: FLMS00943
Trigger mode: 0
Integration Time (sec): 1.000000E-1
Scans to average: 1
Electric dark correction enabled: true
Nonlinearity correction enabled: false
Boxcar width: 0
XAxis mode: Wavelengths
Number of Pixels in Spectrum: 2048
>>>>>Begin Spectral Data<<<<<
179.651	-0
180.037	-0
180.424	-0
180.81	0.92
181.197	0.27
181.583	-0
181.97	-0.53
182.356	-0
182.743	-0
183.129	0.06
183.515	-0
183.901	-2.61
184.288	0.99
184.674	-0
185.06	-0.87
185.446	1.09
185.832	-0
186.218	0.11
186.604	0.17
186.99	-0
187.376	-0
187.762	-0.3
188.148	0.43
188.534	-0.13
188.92	0.24
189.305	0.03
189.691	0.05
190.077	0.21
190.463	0.1
190.848	0.03
191.234	0.01
191.619	-0.02
192.005	0.11
192.391	0.15
192.776	0.14
193.161	0.06
193.547	0.21
193.932	0.04
194.318	-0.01
194.703	0.07
195.088	0.19
195.473	0.23
195.859	0.18
196.244	0.3
196.629	0.11
197.014	0.06
197.399	0.21
197.784	0.14
198.169	0.06
198.554	0.17
198.939	0.04
199.324	-0.03
199.709	0.01
200.094	0.13
200.478	0.11
200.863	0.25
201.248	0.17
201.633	0.16
202.017	0.08
202.402	0.3
202.787	0.04
203.171	0.29
203.556	0.12
203.94	0.1
204.325	0.22
204.709	0.23
205.093	0.08
205.478	0.18
205.862	0.17
206.246	0.08
206.631	0.08
207.015	0.07
207.399	0.21
207.783	0.21
208.167	0.11
208.551	0.25
208.935	0.14
209.319	0.25
209.703	0.14
210.087	0.21
210.471	-0
210.855	0.04
211.239	0.16
211.623	0.31
212.007	0.28
212.39	0.16
212.774	0.1
213.158	0.14
213.541	0.22
213.925	0.21
214.309	0.19
214.692	0.26
215.076	0.19
215.459	0.16
215.842	0.01
216.226	0.18
216.609	0.22
216.993	0.21
217.376	0.69
217.759	0.07
218.142	0.27
218.525	0.39
218.909	0.33
219.292	0.35
219.675	0.47
220.058	0.43
220.441	0.41
220.824	0.55
221.207	0.6
221.59	0.47
221.973	0.51
222.355	0.7
222.738	0.79
223.121	0.77
223.504	0.54
223.886	0.68
224.269	0.61
224.652	0.68
225.034	0.79
225.417	0.72
225.799	0.7
226.182	0.77
226.564	0.81
226.947	0.87
227.329	0.8
227.711	0.99
228.094	0.77
228.476	0.97
228.858	0.8
229.24	0.88
229.623	1.03
230.005	0.83
230.387	0.9
230.769	0.91
231.151	1.05
231.533	0.87
231.915	0.88
232.297	0.94
232.679	0.91
233.061	0.98
233.442	1.08
233.824	1.08
234.206	1.06
234.588	1.02
234.969	1.01
235.351	0.95
235.733	1.09
236.114	1.19
236.496	1.08
236.877	0.96
237.259	1.16
237.64	1.18
238.022	1.02
238.403	0.99
238.784	0.93
239.165	1.01
239.547	0.96
239.928	1.07
240.309	1.11
240.69	1.07
241.071	1.15
241.452	1.11
241.834	0.99
242.215	1.17
242.595	1.08
242.976	1.05
243.357	1.03
243.738	1.05
244.119	1.3
244.5	1.14
244.881	1.21
245.261	1.13
245.642	1.07
246.023	1.25
246.403	1.21
246.784	1.34
247.164	1.22
247.545	1.21
247.925	1.26
248.306	1.09
248.686	1.38
249.067	1.26
249.447	1.35
249.827	1.49
250.207	1.38
250.588	1.38
250.968	1.39
251.348	1.31
251.728	1.48
252.108	1.44
252.488	1.47
252.868	1.3
253.248	1.38
253.628	1.43
254.008	1.49
254.388	1.26
254.768	1.28
255.147	1.33
255.527	1.43
255.907	1.27
256.287	1.37
256.666	1.43
257.046	1.43
257.425	1.49
257.805	1.38
258.184	1.25
258.564	1.32
258.943	1.34
259.323	1.55
259.702	1.43
260.081	1.38
260.461	1.56
260.84	1.39
261.219	1.67
261.598	1.43
261.977	1.44
262.356	1.52
262.736	1.48
263.115	1.45
263.494	1.37
263.873	1.45
264.251	1.39
264.63	1.68
265.009	1.41
265.388	1.45
265.767	1.26
266.145	1.4
266.524	1.33
266.903	1.33
267.281	1.36
267.66	1.48
268.039	1.39
268.417	1.4
268.796	1.3
269.174	1.4
269.552	1.33
269.931	1.47
270.309	1.36
270.687	1.53
271.066	1.52
271.444	1.34
271.822	1.54
272.2	1.44
272.578	1.3
272.956	1.39
273.334	1.34
273.712	1.37
274.09	1.36
274.468	1.43
274.846	1.42
275.224	1.38
275.602	1.54
275.98	1.58
276.357	1.45
276.735	1.37
277.113	1.36
277.49	1.3
277.868	1.3
278.246	1.42
278.623	1.36
279.001	1.35
279.378	1.37
279.756	1.51
280.133	1.59
280.51	1.29
280.888	1.35
281.265	1.45
281.642	1.43
282.019	1.6
282.396	1.57
282.773	1.37
283.151	1.55
283.528	1.42
283.905	1.45
284.282	1.5
284.659	1.55
285.035	1.35
285.412	1.28
285.789	1.4
286.166	1.39
286.543	1.3
286.919	1.39
287.296	1.38
287.673	1.66
288.049	1.55
288.426	1.6
288.802	1.56
289.179	1.36
289.555	1.59
289.932	1.5
290.308	1.35
290.684	1.49
291.061	1.34
291.437	1.53
291.813	1.34
292.189	1.24
292.565	1.32
292.942	1.25
293.318	1.3
293.694	1.44
294.07	1.23
294.446	1.3
294.822	1.51
295.197	1.43
295.573	1.4
295.949	1.5
296.325	1.41
296.701	1.53
297.076	1.44
297.452	1.49
297.828	1.38
298.203	1.5
298.579	1.35
298.954	1.33
299.33	1.34
299.705	1.26
300.081	1.33
300.456	1.33
300.831	1.29
301.206	1.24
301.582	1.27
301.957	1.23
302.332	1.24
302.707	1.13
303.082	1.15
303.457	1.18
303.832	1.16
304.207	1.08
304.582	1.05
304.957	1.13
305.332	1.1
305.707	1.06
306.082	1.08
306.456	1.06
306.831	1.02
307.206	0.99
307.58	0.98
307.955	0.91
308.33	0.99
308.704	0.93
309.079	0.9
309.453	0.9
309.828	0.88
310.202	0.84
310.576	0.85
310.951	0.87
311.325	0.84
311.699	0.82
312.073	0.78
312.447	0.8
312.821	0.76
313.196	0.79
313.57	0.72
313.944	0.74
314.317	0.74
314.691	0.76
315.065	0.75
315.439	0.73
315.813	0.72
316.187	0.71
316.56	0.75
316.934	0.69
317.308	0.69
317.681	0.67
318.055	0.69
318.428	0.68
318.802	0.68
319.175	0.65
319.549	0.69
319.922	0.67
320.295	0.65
320.669	0.7
321.042	0.67
321.415	0.69
321.788	0.65
322.162	0.63
322.535	0.66
322.908	0.65
323.281	0.62
323.654	0.64
324.027	0.64
324.4	0.65
324.773	0.64
325.145	0.64
325.518	0.62
325.891	0.62
326.264	0.65
326.636	0.64
327.009	0.63
327.382	0.64
327.754	0.66
328.127	0.65
328.499	0.67
328.872	0.69
329.244	0.69
329.616	0.64
329.989	0.67
330.361	0.68
330.733	0.66
331.106	0.68
331.478	0.7
331.85	0.69
332.222	0.68
332.594	0.69
332.966	0.7
333.338	0.75
333.71	0.73
334.082	0.77
334.454	0.74
334.826	0.76
335.197	0.75
335.569	0.77
335.941	0.76
336.312	0.78
336.684	0.77
337.056	0.81
337.427	0.84
337.799	0.83
338.17	0.83
338.542	0.85
338.913	0.86
339.284	0.87
339.656	0.84
340.027	0.89
340.398	0.9
340.769	0.9
341.141	0.97
341.512	0.93
341.883	0.93
342.254	0.92
342.625	0.94
342.996	0.95
343.367	0.95
343.738	0.95
344.108	0.97
344.479	1.07
344.85	0.98
345.221	1.06
345.591	0.95
345.962	1.09
346.333	1.1
346.703	0.99
347.074	1.1
347.444	1.01
347.815	1.08
348.185	1.12
348.556	1.08
348.926	1.1
349.296	1.14
349.666	1.14
350.037	1.23
350.407	1.06
350.777	1.21
351.147	1.15
351.517	1.21
351.887	1.24
352.257	1.3
352.627	1.23
352.997	1.23
353.367	1.28
353.737	1.39
354.106	1.36
354.476	1.3
354.846	1.31
355.216	1.34
355.585	1.52
355.955	1.37
356.324	1.43
356.694	1.41
357.063	1.39
357.433	1.38
357.802	1.48
358.171	1.55
358.541	1.43
358.91	1.56
359.279	1.51
359.648	1.38
360.017	1.5
360.387	1.57
360.756	1.42
361.125	1.55
361.494	1.59
361.863	1.5
362.231	1.49
362.6	1.66
362.969	1.57
363.338	1.49
363.707	1.51
364.075	1.63
364.444	1.5
364.813	1.54
365.181	1.44
365.55	1.53
365.918	1.67
366.287	1.59
366.655	1.71
367.024	1.45
367.392	1.57
367.76	1.54
368.128	1.63
368.497	1.54
368.865	1.62
369.233	1.48
369.601	1.51
369.969	1.55
370.337	1.55
370.705	1.5
371.073	1.58
371.441	1.59
371.809	1.45
372.177	1.5
372.544	1.54
372.912	1.7
373.28	1.51
373.647	1.57
374.015	1.68
374.383	1.68
374.75	1.67
375.118	1.53
375.485	1.57
375.853	1.7
376.22	1.54
376.587	1.56
376.955	1.57
377.322	1.6
377.689	1.59
378.056	1.49
378.423	1.45
378.79	1.69
379.157	1.51
379.524	1.65
379.891	1.54
380.258	1.79
380.625	1.52
380.992	1.61
381.359	1.47
381.726	1.61
382.092	1.48
382.459	1.66
382.826	1.68
383.192	1.59
383.559	1.67
383.925	1.57
384.292	1.43
384.658	1.51
385.025	1.65
385.391	1.76
385.757	1.56
386.123	1.5
386.49	1.54
386.856	1.62
387.222	1.68
387.588	1.54
387.954	1.69
388.32	1.56
388.686	1.56
389.052	1.45
389.418	1.63
389.784	1.63
390.15	1.66
390.515	1.36
390.881	1.64
391.247	1.43
391.613	1.61
391.978	1.46
392.344	1.69
392.709	1.53
393.075	1.59
393.44	1.69
393.806	1.57
394.171	1.52
394.536	1.52
394.902	1.66
395.267	1.58
395.632	1.61
395.997	1.55
396.362	1.69
396.727	1.52
397.092	1.54
397.457	1.6
397.822	1.49
398.187	1.54
398.552	1.57
398.917	1.68
399.282	1.5
399.646	1.57
400.011	1.62
400.376	1.48
400.74	1.47
401.105	1.68
401.47	1.64
401.834	1.67
402.199	1.61
402.563	1.59
402.927	1.5
403.292	1.57
403.656	1.64
404.02	1.58
404.384	1.75
404.749	1.56
405.113	1.56
405.477	1.63
405.841	1.52
406.205	1.57
406.569	1.64
406.933	1.54
407.296	1.66
407.66	1.53
408.024	1.49
408.388	1.6
408.752	1.62
409.115	1.59
409.479	1.61
409.842	1.62
410.206	1.47
410.569	1.59
410.933	1.61
411.296	1.49
411.66	1.68
412.023	1.43
412.386	1.51
412.749	1.41
413.113	1.49
413.476	1.51
413.839	1.59
414.202	1.63
414.565	1.4
414.928	1.59
415.291	1.29
415.654	1.5
416.017	1.66
416.38	1.45
416.742	1.56
417.105	1.43
417.468	1.45
417.83	1.57
418.193	1.72
418.556	1.45
418.918	1.43
419.281	1.53
419.643	1.63
420.005	1.47
420.368	1.4
420.73	1.5
421.092	1.72
421.455	1.64
421.817	1.49
422.179	1.41
422.541	1.48
422.903	1.51
423.265	1.68
423.627	1.54
423.989	1.57
424.351	1.43
424.713	1.58
425.075	1.37
425.436	1.52
425.798	1.61
426.16	1.68
426.521	1.47
426.883	1.49
427.245	1.55
427.606	1.4
427.967	1.43
428.329	1.57
428.69	1.6
429.052	1.5
429.413	1.61
429.774	1.6
430.135	1.54
430.497	1.74
430.858	1.63
431.219	1.52
431.58	1.42
431.941	1.54
432.302	1.48
432.663	1.51
433.024	1.66
433.384	1.59
433.745	1.55
434.106	1.64
434.467	1.56
434.827	1.55
435.188	1.52
435.548	1.57
435.909	1.48
436.269	1.64
436.63	1.54
436.99	1.52
437.351	1.33
437.711	1.52
438.071	1.54
438.431	1.51
438.792	1.52
439.152	1.5
439.512	1.47
439.872	1.45
440.232	1.54
440.592	1.47
440.952	1.49
441.312	1.38
441.671	1.55
442.031	1.5
442.391	1.53
442.751	1.62
443.11	1.49
443.47	1.45
443.83	1.43
444.189	1.4
444.549	1.46
444.908	1.4
445.267	1.43
445.627	1.42
445.986	1.37
446.345	1.38
446.705	1.44
447.064	1.39
447.423	1.4
447.782	1.44
448.141	1.33
448.5	1.28
448.859	1.34
449.218	1.34
449.577	1.38
449.936	1.37
450.295	1.34
450.653	1.34
451.012	1.33
451.371	1.38
451.729	1.29
452.088	1.36
452.447	1.34
452.805	1.29
453.163	1.27
453.522	1.31
453.88	1.28
454.239	1.25
454.597	1.24
454.955	1.22
455.313	1.23
455.671	1.22
456.029	1.23
456.388	1.16
456.746	1.19
457.104	1.19
457.461	1.14
457.819	1.15
458.177	1.13
458.535	1.12
458.893	1.1
459.25	1.11
459.608	1.09
459.966	1.06
460.323	1.06
460.681	1.03
461.038	1.02
461.396	1
461.753	0.98
462.111	0.99
462.468	0.97
462.825	0.93
463.182	0.93
463.54	0.91
463.897	0.93
464.254	0.9
464.611	0.89
464.968	0.86
465.325	0.87
465.682	0.84
466.039	0.84
466.395	0.82
466.752	0.81
467.109	0.8
467.466	0.79
467.822	0.78
468.179	0.77
468.535	0.75
468.892	0.75
469.248	0.72
469.605	0.71
469.961	0.7
470.318	0.7
470.674	0.68
471.03	0.68
471.386	0.66
471.743	0.65
472.099	0.63
472.455	0.64
472.811	0.61
473.167	0.6
473.523	0.59
473.879	0.59
474.235	0.57
474.59	0.56
474.946	0.54
475.302	0.55
475.657	0.53
476.013	0.52
476.369	0.51
476.724	0.51
477.08	0.5
477.435	0.48
477.791	0.48
478.146	0.46
478.501	0.46
478.857	0.45
479.212	0.45
479.567	0.43
479.922	0.42
480.277	0.41
480.632	0.39
480.987	0.4
481.342	0.39
481.697	0.38
482.052	0.37
482.407	0.37
482.762	0.35
483.116	0.35
483.471	0.34
483.826	0.33
484.18	0.32
484.535	0.31
484.89	0.31
485.244	0.31
485.598	0.31
485.953	0.29
486.307	0.28
486.661	0.28
487.016	0.27
487.37	0.27
487.724	0.26
488.078	0.26
488.432	0.25
488.786	0.25
489.14	0.24
489.494	0.24
489.848	0.23
490.202	0.23
490.556	0.22
490.91	0.22
491.263	0.21
491.617	0.21
491.971	0.2
492.324	0.2
492.678	0.2
493.031	0.2
493.385	0.19
493.738	0.19
494.091	0.19
494.445	0.18
494.798	0.18
495.151	0.17
495.504	0.17
495.857	0.17
496.21	0.16
496.564	0.16
496.916	0.16
497.269	0.15
497.622	0.15
497.975	0.15
498.328	0.15
498.681	0.14
499.033	0.14
499.386	0.13
499.739	0.13
500.091	0.13
500.444	0.12
500.796	0.13
501.149	0.12
501.501	0.12
501.854	0.12
502.206	0.12
502.558	0.11
502.91	0.12
503.263	0.11
503.615	0.11
503.967	0.11
504.319	0.1
504.671	0.1
505.023	0.1
505.375	0.1
505.726	0.1
506.078	0.1
506.43	0.09
506.782	0.09
507.133	0.1
507.485	0.1
507.837	0.11
508.188	0.1
508.54	0.09
508.891	0.1
509.243	0.09
509.594	0.09
509.945	0.08
510.296	0.08
510.648	0.09
510.999	0.08
511.35	0.08
511.701	0.08
512.052	0.08
512.403	0.08
512.754	0.07
513.105	0.07
513.456	0.07
513.807	0.08
514.157	0.08
514.508	0.07
514.859	0.07
515.209	0.07
515.56	0.08
515.91	0.07
516.261	0.07
516.611	0.07
516.962	0.07
517.312	0.07
517.662	0.07
518.013	0.07
518.363	0.07
518.713	0.08
519.063	0.07
519.413	0.06
519.763	0.07
520.113	0.07
520.463	0.07
520.813	0.07
521.163	0.07
521.512	0.07
521.862	0.07
522.212	0.07
522.562	0.07
522.911	0.06
523.261	0.06
523.61	0.06
523.96	0.07
524.309	0.07
524.658	0.07
525.008	0.06
525.357	0.07
525.706	0.07
526.056	0.06
526.405	0.06
526.754	0.06
527.103	0.06
527.452	0.06
527.801	0.07
528.15	0.07
528.499	0.07
528.847	0.06
529.196	0.07
529.545	0.07
529.893	0.07
530.242	0.07
530.591	0.07
530.939	0.08
531.288	0.07
531.636	0.08
531.985	0.07
532.333	0.07
532.681	0.07
533.029	0.07
533.378	0.07
533.726	0.06
534.074	0.07
534.422	0.06
534.77	0.07
535.118	0.07
535.466	0.06
535.814	0.06
536.162	0.07
536.509	0.07
536.857	0.06
537.205	0.07
537.552	0.07
537.9	0.07
538.248	0.06
538.595	0.07
538.943	0.07
539.29	0.07
539.637	0.06
539.985	0.06
540.332	0.06
540.679	0.06
541.026	0.06
541.373	0.07
541.721	0.06
542.068	0.07
542.415	0.06
542.762	0.06
543.108	0.05
543.455	0.06
543.802	0.05
544.149	0.05
544.496	0.06
544.842	0.06
545.189	0.05
545.535	0.06
545.882	0.06
546.228	0.05
546.575	0.05
546.921	0.05
547.267	0.05
547.614	0.05
547.96	0.05
548.306	0.05
548.652	0.05
548.998	0.07
549.344	0.05
549.69	0.06
550.036	0.05
550.382	0.05
550.728	0.05
551.074	0.05
551.42	0.05
551.765	0.06
552.111	0.06
552.457	0.07
552.802	0.06
553.148	0.05
553.493	0.05
553.839	0.06
554.184	0.06
554.529	0.06
554.875	0.06
555.22	0.06
555.565	0.06
555.91	0.05
556.255	0.07
556.6	0.06
556.945	0.05
557.29	0.05
557.635	0.06
557.98	0.05
558.325	0.06
558.67	0.05
559.014	0.06
559.359	0.06
559.704	0.05
560.048	0.05
560.393	0.05
560.737	0.05
561.082	0.05
561.426	0.04
561.77	0.05
562.115	0.05
562.459	0.05
562.803	0.05
563.147	0.05
563.491	0.05
563.835	0.06
564.179	0.06
564.523	0.05
564.867	0.05
565.211	0.05
565.555	0.05
565.899	0.05
566.242	0.05
566.586	0.05
566.93	0.05
567.273	0.06
567.617	0.06
567.96	0.06
568.304	0.06
568.647	0.05
568.99	0.06
569.334	0.07
569.677	0.06
570.02	0.06
570.363	0.06
570.706	0.06
571.049	0.06
571.392	0.06
571.735	0.06
572.078	0.06
572.421	0.07
572.764	0.06
573.106	0.06
573.449	0.06
573.792	0.05
574.134	0.06
574.477	0.06
574.819	0.05
575.162	0.05
575.504	0.05
575.847	0.05
576.189	0.06
576.531	0.05
576.873	0.05
577.215	0.05
577.558	0.06
577.9	0.05
578.242	0.05
578.584	0.05
578.926	0.05
579.267	0.05
579.609	0.05
579.951	0.05
580.293	0.05
580.634	0.06
580.976	0.05
581.318	0.05
581.659	0.05
582.001	0.06
582.342	0.05
582.683	0.06
583.025	0.05
583.366	0.05
583.707	0.05
584.049	0.05
584.39	0.05
584.731	0.05
585.072	0.05
585.413	0.06
585.754	0.06
586.095	0.06
586.435	0.05
586.776	0.06
587.117	0.05
587.458	0.05
587.798	0.05
588.139	0.06
588.48	0.05
588.82	0.04
589.161	0.05
589.501	0.05
589.841	0.05
590.182	0.04
590.522	0.05
590.862	0.05
591.202	0.05
591.542	0.05
591.882	0.05
592.222	0.05
592.562	0.05
592.902	0.06
593.242	0.05
593.582	0.05
593.922	0.05
594.261	0.05
594.601	0.04
594.941	0.05
595.28	0.05
595.62	0.05
595.959	0.05
596.299	0.05
596.638	0.05
596.977	0.05
597.317	0.06
597.656	0.05
597.995	0.05
598.334	0.06
598.673	0.05
599.012	0.05
599.351	0.06
599.69	0.06
600.029	0.06
600.368	0.06
600.707	0.06
601.046	0.06
601.384	0.06
601.723	0.06
602.061	0.06
602.4	0.06
602.738	0.06
603.077	0.06
603.415	0.06
603.754	0.06
604.092	0.06
604.43	0.05
604.768	0.06
605.107	0.05
605.445	0.05
605.783	0.05
606.121	0.05
606.459	0.05
606.796	0.05
607.134	0.04
607.472	0.05
607.81	0.06
608.148	0.05
608.485	0.06
608.823	0.06
609.16	0.04
609.498	0.05
609.835	0.05
610.173	0.05
610.51	0.05
610.847	0.05
611.185	0.06
611.522	0.06
611.859	0.05
612.196	0.06
612.533	0.06
612.87	0.06
613.207	0.06
613.544	0.06
613.881	0.07
614.217	0.06
614.554	0.06
614.891	0.06
615.228	0.06
615.564	0.06
615.901	0.06
616.237	0.07
616.574	0.06
616.91	0.07
617.246	0.07
617.583	0.07
617.919	0.06
618.255	0.07
618.591	0.06
618.927	0.06
619.263	0.07
619.599	0.07
619.935	0.06
620.271	0.07
620.607	0.07
620.943	0.06
621.279	0.07
621.614	0.07
621.95	0.07
622.286	0.06
622.621	0.06
622.957	0.06
623.292	0.06
623.627	0.06
623.963	0.06
624.298	0.06
624.633	0.06
624.968	0.06
625.304	0.05
625.639	0.06
625.974	0.06
626.309	0.06
626.644	0.06
626.979	0.06
627.313	0.06
627.648	0.06
627.983	0.06
628.318	0.06
628.652	0.05
628.987	0.06
629.321	0.06
629.656	0.05
629.99	0.05
630.325	0.05
630.659	0.05
630.993	0.05
631.327	0.05
631.662	0.04
631.996	0.05
632.33	0.05
632.664	0.05
632.998	0.04
633.332	0.04
633.666	0.04
633.999	0.04
634.333	0.04
634.667	0.04
635.001	0.05
635.334	0.04
635.668	0.05
636.001	0.04
636.335	0.05
636.668	0.05
637.001	0.04
637.335	0.04
637.668	0.04
638.001	0.04
638.334	0.04
638.668	0.04
639.001	0.05
639.334	0.04
639.667	0.04
639.999	0.05
640.332	0.04
640.665	0.04
640.998	0.05
641.331	0.04
641.663	0.04
641.996	0.04
642.328	0.05
642.661	0.05
642.993	0.05
643.326	0.05
643.658	0.05
643.99	0.04
644.323	0.05
644.655	0.06
644.987	0.06
645.319	0.06
645.651	0.06
645.983	0.06
646.315	0.05
646.647	0.05
646.979	0.06
647.31	0.06
647.642	0.06
647.974	0.05
648.305	0.06
648.637	0.06
648.968	0.06
649.3	0.05
649.631	0.06
649.963	0.06
650.294	0.06
650.625	0.05
650.957	0.05
651.288	0.05
651.619	0.06
651.95	0.06
652.281	0.06
652.612	0.06
652.943	0.06
653.274	0.06
653.604	0.06
653.935	0.05
654.266	0.05
654.596	0.05
654.927	0.05
655.258	0.06
655.588	0.06
655.918	0.06
656.249	0.04
656.579	0.05
656.909	0.05
657.24	0.05
657.57	0.06
657.9	0.05
658.23	0.05
658.56	0.06
658.89	0.06
659.22	0.05
659.55	0.05
659.88	0.06
660.209	0.06
660.539	0.06
660.869	0.06
661.198	0.06
661.528	0.05
661.857	0.06
662.187	0.06
662.516	0.05
662.846	0.05
663.175	0.05
663.504	0.05
663.833	0.05
664.163	0.05
664.492	0.04
664.821	0.05
665.15	0.05
665.479	0.05
665.807	0.05
666.136	0.06
666.465	0.05
666.794	0.05
667.122	0.06
667.451	0.05
667.78	0.05
668.108	0.06
668.437	0.06
668.765	0.06
669.093	0.06
669.422	0.06
669.75	0.06
670.078	0.05
670.406	0.06
670.734	0.07
671.062	0.06
671.39	0.06
671.718	0.06
672.046	0.06
672.374	0.05
672.702	0.06
673.029	0.06
673.357	0.06
673.685	0.06
674.012	0.06
674.34	0.06
674.667	0.06
674.995	0.05
675.322	0.06
675.649	0.06
675.977	0.06
676.304	0.06
676.631	0.05
676.958	0.05
677.285	0.05
677.612	0.05
677.939	0.05
678.266	0.06
678.593	0.06
678.92	0.05
679.246	0.05
679.573	0.06
679.9	0.06
680.226	0.05
680.553	0.05
680.879	0.06
681.206	0.06
681.532	0.06
681.858	0.06
682.184	0.05
682.511	0.06
682.837	0.06
683.163	0.06
683.489	0.06
683.815	0.05
684.141	0.06
684.467	0.06
684.793	0.06
685.118	0.05
685.444	0.06
685.77	0.05
686.095	0.06
686.421	0.06
686.746	0.06
687.072	0.05
687.397	0.05
687.723	0.06
688.048	0.06
688.373	0.06
688.698	0.05
689.023	0.05
689.349	0.05
689.674	0.05
689.999	0.05
690.323	0.04
690.648	0.04
690.973	0.05
691.298	0.04
691.623	0.05
691.947	0.05
692.272	0.04
692.596	0.04
692.921	0.06
693.245	0.05
693.57	0.05
693.894	0.06
694.218	0.06
694.543	0.05
694.867	0.05
695.191	0.05
695.515	0.05
695.839	0.05
696.163	0.06
696.487	0.05
696.811	0.05
697.135	0.06
697.458	0.06
697.782	0.05
698.106	0.06
698.429	0.06
698.753	0.05
699.076	0.05
699.4	0.05
699.723	0.05
700.046	0.05
700.37	0.06
700.693	0.05
701.016	0.05
701.339	0.05
701.662	0.06
701.985	0.06
702.308	0.05
702.631	0.05
702.954	0.05
703.277	0.05
703.599	0.05
703.922	0.04
704.245	0.05
704.567	0.04
704.89	0.05
705.212	0.05
705.535	0.04
705.857	0.04
706.179	0.04
706.502	0.04
706.824	0.04
707.146	0.04
707.468	0.05
707.79	0.04
708.112	0.05
708.434	0.04
708.756	0.05
709.078	0.04
709.399	0.04
709.721	0.04
710.043	0.05
710.364	0.05
710.686	0.05
711.007	0.05
711.329	0.05
711.65	0.05
711.972	0.05
712.293	0.05
712.614	0.06
712.935	0.06
713.256	0.05
713.577	0.07
713.898	0.06
714.219	0.05
714.54	0.05
714.861	0.05
715.182	0.05
715.503	0.05
715.823	0.05
716.144	0.05
716.464	0.05
716.785	0.04
717.105	0.05
717.426	0.05
717.746	0.04
718.066	0.04
718.387	0.04
718.707	0.04
719.027	0.05
719.347	0.04
719.667	0.04
719.987	0.04
720.307	0.03
720.627	0.04
720.947	0.04
721.266	0.04
721.586	0.04
721.906	0.04
722.225	0.04
722.545	0.04
722.864	0.04
723.184	0.05
723.503	0.04
723.823	0.05
724.142	0.04
724.461	0.04
724.78	0.04
725.099	0.04
725.418	0.04
725.737	0.05
726.056	0.05
726.375	0.05
726.694	0.05
727.013	0.05
727.331	0.04
727.65	0.04
727.969	0.04
728.287	0.05
728.606	0.05
728.924	0.04
729.242	0.04
729.561	0.03
729.879	0.04
730.197	0.05
730.515	0.04
730.834	0.04
731.152	0.04
731.47	0.04
731.788	0.04
732.105	0.04
732.423	0.05
732.741	0.05
733.059	0.04
733.376	0.05
733.694	0.04
734.012	0.05
734.329	0.05
734.647	0.05
734.964	0.05
735.281	0.06
735.599	0.05
735.916	0.06
736.233	0.05
736.55	0.05
736.867	0.04
737.184	0.06
737.501	0.05
737.818	0.06
738.135	0.06
738.452	0.05
738.768	0.06
739.085	0.05
739.402	0.04
739.718	0.06
740.035	0.05
740.351	0.05
740.668	0.05
740.984	0.05
741.3	0.05
741.617	0.06
741.933	0.05
742.249	0.05
742.565	0.05
742.881	0.05
743.197	0.05
743.513	0.05
743.829	0.04
744.144	0.04
744.46	0.05
744.776	0.05
745.091	0.05
745.407	0.04
745.722	0.04
746.038	0.05
746.353	0.04
746.669	0.05
746.984	0.03
747.299	0.05
747.614	0.05
747.93	0.06
748.245	0.04
748.56	0.04
748.875	0.04
749.189	0.05
749.504	0.03
749.819	0.04
750.134	0.04
750.448	0.04
750.763	0.04
751.078	0.03
751.392	0.04
751.707	0.06
752.021	0.04
752.335	0.06
752.65	0.04
752.964	0.04
753.278	0.04
753.592	0.04
753.906	0.04
754.22	0.05
754.534	0.05
754.848	0.04
755.162	0.04
755.476	0.04
755.789	0.05
756.103	0.04
756.417	0.05
756.73	0.04
757.044	0.05
757.357	0.05
757.671	0.05
757.984	0.05
758.297	0.05
758.61	0.04
758.924	0.04
759.237	0.04
759.55	0.05
759.863	0.04
760.176	0.04
760.488	0.04
760.801	0.04
761.114	0.03
761.427	0.04
761.739	0.04
762.052	0.04
762.365	0.04
762.677	0.04
762.99	0.03
763.302	0.04
763.614	0.04
763.926	0.05
764.239	0.04
764.551	0.04
764.863	0.04
765.175	0.05
765.487	0.04
765.799	0.04
766.111	0.03
766.423	0.04
766.734	0.04
767.046	0.03
767.358	0.04
767.669	0.05
767.981	0.04
768.292	0.04
768.604	0.04
768.915	0.04
769.226	0.05
769.537	0.03
769.849	0.04
770.16	0.04
770.471	0.04
770.782	0.04
771.093	0.04
771.404	0.03
771.715	0.03
772.025	0.04
772.336	0.03
772.647	0.03
772.957	0.04
773.268	0.04
773.578	0.03
773.889	0.04
774.199	0.04
774.51	0.04
774.82	0.04
775.13	0.04
775.44	0.05
775.75	0.05
776.06	0.05
776.37	0.04
776.68	0.05
776.99	0.05
777.3	0.04
777.61	0.05
777.92	0.05
778.229	0.04
778.539	0.05
778.848	0.04
779.158	0.05
779.467	0.05
779.777	0.04
780.086	0.04
780.395	0.04
780.704	0.04
781.013	0.04
781.323	0.03
781.632	0.05
781.941	0.05
782.249	0.05
782.558	0.04
782.867	0.05
783.176	0.03
783.485	0.04
783.793	0.05
784.102	0.05
784.41	0.04
784.719	0.04
785.027	0.04
785.335	0.04
785.644	0.04
785.952	0.04
786.26	0.04
786.568	0.03
786.876	0.04
787.184	0.04
787.492	0.04
787.8	0.05
788.108	0.04
788.416	0.05
788.723	0.05
789.031	0.04
789.338	0.04
789.646	0.04
789.953	0.05
790.261	0.05
790.568	0.05
790.876	0.05
791.183	0.05
791.49	0.04
791.797	0.05
792.104	0.03
792.411	0.04
792.718	0.04
793.025	0.04
793.332	0.04
793.639	0.05
793.945	0.06
794.252	0.05
794.559	0.04
794.865	0.05
795.172	0.05
795.478	0.04
795.784	0.05
796.091	0.06
796.397	0.05
796.703	0.05
797.009	0.06
797.315	0.05
797.622	0.05
797.927	0.05
798.233	0.05
798.539	0.06
798.845	0.05
799.151	0.06
799.456	0.06
799.762	0.05
800.068	0.04
800.373	0.06
800.679	0.04
800.984	0.06
801.289	0.05
801.595	0.05
801.9	0.05
802.205	0.05
802.51	0.05
802.815	0.05
803.12	0.05
803.425	0.05
803.73	0.05
804.035	0.05
804.339	0.05
804.644	0.05
804.949	0.05
805.253	0.05
805.558	0.05
805.862	0.05
806.167	0.04
806.471	0.04
806.775	0.05
807.08	0.05
807.384	0.05
807.688	0.05
807.992	0.05
808.296	0.05
808.6	0.05
808.904	0.06
809.207	0.05
809.511	0.06
809.815	0.06
810.119	0.05
810.422	0.05
810.726	0.06
811.029	0.06
811.332	0.05
811.636	0.06
811.939	0.06
812.242	0.05
812.546	0.05
812.849	0.06
813.152	0.06
813.455	0.06
813.758	0.06
814.06	0.05
814.363	0.05
814.666	0.06
814.969	0.06
815.271	0.06
815.574	0.05
815.877	0.05
816.179	0.04
816.481	0.05
816.784	0.05
817.086	0.04
817.388	0.04
817.69	0.04
817.993	0.04
818.295	0.04
818.597	0.04
818.899	0.04
819.2	0.03
819.502	0.04
819.804	0.04
820.106	0.04
820.407	0.03
820.709	0.04
821.01	0.04
821.312	0.05
821.613	0.04
821.915	0.03
822.216	0.04
822.517	0.03
822.818	0.03
823.119	0.04
823.42	0.04
823.721	0.03
824.022	0.03
824.323	0.04
824.624	0.03
824.925	0.04
825.226	0.04
825.526	0.04
825.827	0.03
826.127	0.04
826.428	0.03
826.728	0.03
827.028	0.04
827.329	0.03
827.629	0.02
827.929	0.03
828.229	0.03
828.529	0.04
828.829	0.03
829.129	0.03
829.429	0.04
829.729	0.03
830.029	0.03
830.328	0.04
830.628	0.02
830.927	0.02
831.227	0.03
831.526	0.03
831.826	0.03
832.125	0.02
832.424	0.02
832.724	0.02
833.023	0.03
833.322	0.03
833.621	0.03
833.92	0.01
834.219	0.02
834.518	0.03
834.816	0.01
835.115	0.03
835.414	0.02
835.712	0.01
836.011	0.01
836.309	0.02
836.608	0.01
836.906	0
837.205	-0.01
837.503	-0
837.801	0
838.099	-0
838.397	-0.01
838.695	-0.01
838.993	-0
839.291	-0.02
839.589	-0
839.887	-0.01
840.184	-0.01
840.482	-0.02
840.78	-0.01
841.077	-0.02
841.375	-0.02
841.672	-0.01
841.969	-0.02
842.267	-0.01
842.564	-0.02
842.861	-0.01
843.158	-0.02
843.455	-0.03
843.752	-0.03
844.049	-0.02
844.346	-0.02
844.643	-0.03
844.94	-0.02
845.236	-0.02
845.533	-0.02
845.83	-0.02
846.126	-0.02
846.423	-0.03
846.719	-0.03
847.015	-0.03
847.312	-0.04
847.608	-0.03
847.904	-0.04
848.2	-0.03
848.496	-0.04
848.792	-0.04
849.088	-0.03
849.384	-0.04
849.68	-0.04
849.975	-0.04
850.271	-0.05
850.567	-0.05
850.862	-0.05
851.158	-0.04
851.453	-0.05
851.748	-0.06
852.044	-0.05
852.339	-0.05
852.634	-0.06
852.929	-0.05
853.224	-0.06
853.519	-0.06
853.814	-0.05
854.109	-0.07
854.404	-0.07
854.699	-0.06
854.994	-0.05
855.288	-0.05
855.583	-0.06
855.877	-0.06
856.172	-0.07
856.466	-0.07
856.76	-0.06
857.055	-0.06
857.349	-0.07
857.643	-0.07
857.937	-0.07
858.231	-0.08
858.525	-0.09
858.819	-0.08
859.113	-0.1
859.407	-0.1
859.701	-0.1
859.994	-0.1
860.288	-0.09
860.581	-0.1
860.875	-0.1
861.168	-0.1
861.462	-0.11
861.755	-0.1
862.048	-0.11
862.341	-0.11
862.634	-0.11
862.928	-0.11
863.221	-0.11
863.513	-0.11
863.806	-0.11
864.099	-0.12
864.392	-0.11
864.685	-0.11
864.977	-0.11
865.27	-0.11
865.562	-0.12
865.855	-0.11
866.147	-0.12
866.44	-0.11
866.732	-0.12
867.024	-0.13
867.316	-0.12
867.608	-0.13
867.9	-0.12
868.192	-0.13
868.484	-0.13
868.776	-0.13
869.068	-0.13
869.359	-0.12
869.651	-0.14
869.943	-0.15
870.234	-0.15
870.526	-0.14
870.817	-0.15
871.108	-0.13
871.4	-0.14
871.691	-0.15
871.982	-0.15
872.273	-0.16
872.564	-0.15
872.855	-0.15
873.146	-0.15
873.437	-0.14
873.728	-0.15
874.019	-0.14
874.309	-0.16
874.6	-0.16
874.89	-0.15
875.181	-0.17
875.471	-0.15
875.762	-0.16
876.052	-0.16
876.342	-0.14
876.632	-0.16
876.922	-0.17
877.213	-0.17
877.503	-0.17
877.792	-0.17
878.082	-0.16
878.372	-0.16
878.662	-0.19
878.952	-0.16
879.241	-0.18
879.531	-0.17
879.82	-0.17
880.11	-0.16
880.399	-0.16
880.688	-0.15
880.978	-0.15
881.267	-0.15
