Data from 12-12-AQDScycling_Absorbance__344__00344.txt Node

Date: Tue Dec 12 12:22:44 EST 2023
User: kyuminlee
Spectrometer: FLMS00943
Trigger mode: 0
Integration Time (sec): 1.000000E-1
Scans to average: 1
Electric dark correction enabled: true
Nonlinearity correction enabled: false
Boxcar width: 0
XAxis mode: Wavelengths
Number of Pixels in Spectrum: 2048
>>>>>Begin Spectral Data<<<<<
179.651	-0
180.037	-0
180.424	-0
180.81	-0
181.197	0.26
181.583	-0
181.97	-0.28
182.356	-0
182.743	-0.47
183.129	0.24
183.515	-0
183.901	-0
184.288	0.27
184.674	-0
185.06	-0
185.446	-0
185.832	-0.97
186.218	1.14
186.604	-0.18
186.99	-0.45
187.376	-0.07
187.762	0.7
188.148	1.46
188.534	-0.42
188.92	0.3
189.305	0
189.691	0.22
190.077	0.17
190.463	0.09
190.848	0.02
191.234	0.04
191.619	0
192.005	0.16
192.391	0.11
192.776	0.27
193.161	0.17
193.547	0.19
193.932	0
194.318	0.12
194.703	0.31
195.088	0.06
195.473	0.19
195.859	0.07
196.244	0.13
196.629	0.09
197.014	0.16
197.399	0.14
197.784	0.22
198.169	0.13
198.554	0.21
198.939	0.07
199.324	0.1
199.709	0.2
200.094	0.16
200.478	0.05
200.863	0.21
201.248	0.24
201.633	0.09
202.017	0.17
202.402	0.2
202.787	0.12
203.171	0.24
203.556	0.2
203.94	0.05
204.325	0.27
204.709	0.09
205.093	0.13
205.478	0.08
205.862	0.14
206.246	0.16
206.631	0.13
207.015	0.17
207.399	0.13
207.783	0.12
208.167	0.13
208.551	0.29
208.935	0.17
209.319	0.12
209.703	0.16
210.087	0.28
210.471	0.08
210.855	0.15
211.239	0.19
211.623	0.25
212.007	0.18
212.39	0.32
212.774	0.26
213.158	0.16
213.541	0.2
213.925	0.25
214.309	0.29
214.692	0.38
215.076	0.12
215.459	0.17
215.842	0.16
216.226	0.15
216.609	0.38
216.993	0.2
217.376	0.48
217.759	0.18
218.142	0.4
218.525	0.61
218.909	0.3
219.292	0.29
219.675	0.4
220.058	0.46
220.441	0.53
220.824	0.51
221.207	0.64
221.59	0.48
221.973	0.51
222.355	0.61
222.738	0.66
223.121	0.59
223.504	0.62
223.886	0.54
224.269	0.73
224.652	0.64
225.034	0.8
225.417	0.76
225.799	0.83
226.182	0.97
226.564	0.94
226.947	0.73
227.329	0.82
227.711	0.98
228.094	0.83
228.476	0.97
228.858	0.81
229.24	0.73
229.623	1.02
230.005	0.9
230.387	0.92
230.769	0.74
231.151	0.93
231.533	0.97
231.915	1.03
232.297	1.04
232.679	0.98
233.061	0.98
233.442	0.97
233.824	1.18
234.206	1.04
234.588	1.05
234.969	1.23
235.351	1.01
235.733	1.07
236.114	1.14
236.496	1.03
236.877	1.07
237.259	1.12
237.64	1.17
238.022	0.94
238.403	0.96
238.784	1.08
239.165	1.03
239.547	1.17
239.928	1.2
240.309	1.03
240.69	0.96
241.071	1.15
241.452	1.13
241.834	1.01
242.215	1.15
242.595	1.1
242.976	1.06
243.357	1.17
243.738	1.16
244.119	1.28
244.5	1.16
244.881	1.23
245.261	1.31
245.642	1.12
246.023	1.16
246.403	1.13
246.784	1.33
247.164	1.29
247.545	1.23
247.925	1.31
248.306	1.12
248.686	1.3
249.067	1.25
249.447	1.29
249.827	1.59
250.207	1.64
250.588	1.31
250.968	1.78
251.348	1.3
251.728	1.38
252.108	1.54
252.488	1.33
252.868	1.33
253.248	1.27
253.628	1.65
254.008	1.35
254.388	1.35
254.768	1.34
255.147	1.33
255.527	1.5
255.907	1.3
256.287	1.47
256.666	1.39
257.046	1.47
257.425	1.33
257.805	1.44
258.184	1.41
258.564	1.42
258.943	1.44
259.323	1.54
259.702	1.39
260.081	1.38
260.461	1.56
260.84	1.53
261.219	1.73
261.598	1.4
261.977	1.42
262.356	1.42
262.736	1.43
263.115	1.57
263.494	1.32
263.873	1.47
264.251	1.49
264.63	1.45
265.009	1.51
265.388	1.38
265.767	1.36
266.145	1.55
266.524	1.36
266.903	1.38
267.281	1.5
267.66	1.36
268.039	1.42
268.417	1.34
268.796	1.42
269.174	1.44
269.552	1.45
269.931	1.49
270.309	1.38
270.687	1.59
271.066	1.59
271.444	1.39
271.822	1.53
272.2	1.39
272.578	1.26
272.956	1.36
273.334	1.44
273.712	1.29
274.09	1.4
274.468	1.35
274.846	1.35
275.224	1.28
275.602	1.37
275.98	1.46
276.357	1.48
276.735	1.36
277.113	1.37
277.49	1.2
277.868	1.33
278.246	1.42
278.623	1.37
279.001	1.4
279.378	1.4
279.756	1.66
280.133	1.5
280.51	1.38
280.888	1.46
281.265	1.37
281.642	1.36
282.019	1.72
282.396	1.54
282.773	1.42
283.151	1.43
283.528	1.47
283.905	1.52
284.282	1.4
284.659	1.68
285.035	1.39
285.412	1.28
285.789	1.46
286.166	1.34
286.543	1.45
286.919	1.42
287.296	1.34
287.673	1.52
288.049	1.5
288.426	1.52
288.802	1.43
289.179	1.44
289.555	1.64
289.932	1.36
290.308	1.34
290.684	1.42
291.061	1.32
291.437	1.71
291.813	1.42
292.189	1.23
292.565	1.26
292.942	1.37
293.318	1.53
293.694	1.43
294.07	1.23
294.446	1.39
294.822	1.52
295.197	1.43
295.573	1.62
295.949	1.51
296.325	1.47
296.701	1.47
297.076	1.47
297.452	1.47
297.828	1.36
298.203	1.52
298.579	1.38
298.954	1.42
299.33	1.35
299.705	1.3
300.081	1.28
300.456	1.3
300.831	1.28
301.206	1.25
301.582	1.29
301.957	1.26
302.332	1.3
302.707	1.13
303.082	1.13
303.457	1.16
303.832	1.12
304.207	1.05
304.582	1.09
304.957	1.01
305.332	1.07
305.707	1.05
306.082	1.02
306.456	1.03
306.831	0.99
307.206	0.97
307.58	0.95
307.955	0.93
308.33	0.92
308.704	0.92
309.079	0.86
309.453	0.87
309.828	0.85
310.202	0.81
310.576	0.83
310.951	0.81
311.325	0.83
311.699	0.78
312.073	0.72
312.447	0.75
312.821	0.72
313.196	0.73
313.57	0.7
313.944	0.68
314.317	0.67
314.691	0.7
315.065	0.68
315.439	0.67
315.813	0.67
316.187	0.64
316.56	0.65
316.934	0.65
317.308	0.62
317.681	0.63
318.055	0.63
318.428	0.61
318.802	0.6
319.175	0.6
319.549	0.6
319.922	0.59
320.295	0.58
320.669	0.6
321.042	0.6
321.415	0.6
321.788	0.56
322.162	0.56
322.535	0.58
322.908	0.56
323.281	0.54
323.654	0.56
324.027	0.52
324.4	0.55
324.773	0.57
325.145	0.56
325.518	0.52
325.891	0.54
326.264	0.58
326.636	0.56
327.009	0.57
327.382	0.57
327.754	0.57
328.127	0.58
328.499	0.56
328.872	0.58
329.244	0.57
329.616	0.57
329.989	0.59
330.361	0.6
330.733	0.59
331.106	0.58
331.478	0.6
331.85	0.61
332.222	0.61
332.594	0.65
332.966	0.63
333.338	0.67
333.71	0.68
334.082	0.71
334.454	0.67
334.826	0.7
335.197	0.68
335.569	0.71
335.941	0.69
336.312	0.73
336.684	0.75
337.056	0.71
337.427	0.76
337.799	0.78
338.17	0.8
338.542	0.77
338.913	0.77
339.284	0.81
339.656	0.79
340.027	0.81
340.398	0.85
340.769	0.84
341.141	0.87
341.512	0.81
341.883	0.86
342.254	0.86
342.625	0.88
342.996	0.86
343.367	0.88
343.738	0.91
344.108	0.92
344.479	1.04
344.85	0.97
345.221	0.97
345.591	0.95
345.962	1.02
346.333	0.97
346.703	0.97
347.074	0.98
347.444	0.96
347.815	1.07
348.185	1.1
348.556	1.07
348.926	1.05
349.296	1.12
349.666	1.14
350.037	1.15
350.407	1.07
350.777	1.17
351.147	1.19
351.517	1.2
351.887	1.23
352.257	1.27
352.627	1.19
352.997	1.25
353.367	1.22
353.737	1.3
354.106	1.33
354.476	1.28
354.846	1.27
355.216	1.44
355.585	1.38
355.955	1.36
356.324	1.49
356.694	1.48
357.063	1.42
357.433	1.35
357.802	1.37
358.171	1.48
358.541	1.42
358.91	1.45
359.279	1.46
359.648	1.39
360.017	1.49
360.387	1.66
360.756	1.41
361.125	1.55
361.494	1.53
361.863	1.49
362.231	1.62
362.6	1.73
362.969	1.62
363.338	1.41
363.707	1.95
364.075	1.65
364.444	1.37
364.813	1.53
365.181	1.61
365.55	1.52
365.918	1.66
366.287	1.68
366.655	1.64
367.024	1.68
367.392	1.62
367.76	1.54
368.128	1.57
368.497	1.46
368.865	1.51
369.233	1.52
369.601	1.52
369.969	1.65
370.337	1.48
370.705	1.52
371.073	1.56
371.441	1.62
371.809	1.52
372.177	1.4
372.544	1.54
372.912	1.61
373.28	1.52
373.647	1.63
374.015	1.66
374.383	1.92
374.75	1.61
375.118	1.59
375.485	1.49
375.853	1.54
376.22	1.55
376.587	1.54
376.955	1.59
377.322	1.69
377.689	1.56
378.056	1.56
378.423	1.47
378.79	1.56
379.157	1.52
379.524	1.65
379.891	1.4
380.258	1.52
380.625	1.53
380.992	1.58
381.359	1.63
381.726	1.67
382.092	1.5
382.459	1.5
382.826	1.69
383.192	1.54
383.559	1.57
383.925	1.65
384.292	1.47
384.658	1.78
385.025	1.6
385.391	1.73
385.757	1.8
386.123	1.7
386.49	1.6
386.856	1.55
387.222	1.67
387.588	1.6
387.954	1.66
388.32	1.68
388.686	1.75
389.052	1.6
389.418	1.74
389.784	1.48
390.15	1.56
390.515	1.42
390.881	1.69
391.247	1.49
391.613	1.64
391.978	1.59
392.344	1.87
392.709	1.73
393.075	1.62
393.44	1.61
393.806	1.53
394.171	1.51
394.536	1.45
394.902	1.7
395.267	1.48
395.632	1.48
395.997	1.43
396.362	1.48
396.727	1.55
397.092	1.58
397.457	1.48
397.822	1.52
398.187	1.65
398.552	1.55
398.917	1.64
399.282	1.49
399.646	1.56
400.011	1.75
400.376	1.42
400.74	1.61
401.105	1.5
401.47	1.53
401.834	1.63
402.199	1.51
402.563	1.48
402.927	1.54
403.292	1.65
403.656	1.6
404.02	1.62
404.384	1.91
404.749	1.6
405.113	1.86
405.477	1.7
405.841	1.56
406.205	1.48
406.569	1.46
406.933	1.58
407.296	1.67
407.66	1.6
408.024	1.52
408.388	1.86
408.752	1.57
409.115	1.77
409.479	1.45
409.842	1.48
410.206	1.51
410.569	1.61
410.933	1.55
411.296	1.52
411.66	1.55
412.023	1.44
412.386	1.5
412.749	1.49
413.113	1.56
413.476	1.42
413.839	1.5
414.202	1.53
414.565	1.39
414.928	1.43
415.291	1.33
415.654	1.39
416.017	1.61
416.38	1.46
416.742	1.51
417.105	1.43
417.468	1.45
417.83	1.61
418.193	1.78
418.556	1.48
418.918	1.57
419.281	1.59
419.643	1.52
420.005	1.49
420.368	1.58
420.73	1.36
421.092	1.58
421.455	1.6
421.817	1.46
422.179	1.51
422.541	1.57
422.903	1.86
423.265	1.67
423.627	1.6
423.989	1.49
424.351	1.51
424.713	1.63
425.075	1.47
425.436	1.44
425.798	1.57
426.16	1.65
426.521	1.5
426.883	1.5
427.245	1.63
427.606	1.44
427.967	1.47
428.329	1.54
428.69	1.62
429.052	1.44
429.413	1.55
429.774	1.51
430.135	1.65
430.497	1.53
430.858	1.49
431.219	1.6
431.58	1.42
431.941	1.56
432.302	1.46
432.663	1.68
433.024	1.67
433.384	1.65
433.745	1.48
434.106	1.65
434.467	1.55
434.827	1.62
435.188	1.49
435.548	1.65
435.909	1.63
436.269	1.64
436.63	1.5
436.99	1.55
437.351	1.47
437.711	1.59
438.071	1.49
438.431	1.5
438.792	1.43
439.152	1.53
439.512	1.58
439.872	1.45
440.232	1.53
440.592	1.57
440.952	1.54
441.312	1.54
441.671	1.47
442.031	1.55
442.391	1.48
442.751	1.46
443.11	1.48
443.47	1.41
443.83	1.4
444.189	1.45
444.549	1.49
444.908	1.43
445.267	1.44
445.627	1.42
445.986	1.35
446.345	1.31
446.705	1.53
447.064	1.44
447.423	1.43
447.782	1.41
448.141	1.43
448.5	1.33
448.859	1.3
449.218	1.39
449.577	1.43
449.936	1.36
450.295	1.4
450.653	1.34
451.012	1.34
451.371	1.29
451.729	1.38
452.088	1.36
452.447	1.35
452.805	1.37
453.163	1.33
453.522	1.31
453.88	1.29
454.239	1.29
454.597	1.27
454.955	1.21
455.313	1.24
455.671	1.23
456.029	1.24
456.388	1.22
456.746	1.15
457.104	1.17
457.461	1.16
457.819	1.16
458.177	1.16
458.535	1.12
458.893	1.12
459.25	1.1
459.608	1.1
459.966	1.07
460.323	1.09
460.681	1.04
461.038	1.02
461.396	1.01
461.753	1
462.111	0.98
462.468	0.97
462.825	0.94
463.182	0.93
463.54	0.92
463.897	0.93
464.254	0.91
464.611	0.89
464.968	0.87
465.325	0.86
465.682	0.86
466.039	0.84
466.395	0.83
466.752	0.82
467.109	0.8
467.466	0.8
467.822	0.78
468.179	0.76
468.535	0.76
468.892	0.74
469.248	0.73
469.605	0.71
469.961	0.71
470.318	0.69
470.674	0.69
471.03	0.68
471.386	0.68
471.743	0.66
472.099	0.63
472.455	0.64
472.811	0.62
473.167	0.61
473.523	0.59
473.879	0.58
474.235	0.57
474.59	0.56
474.946	0.55
475.302	0.53
475.657	0.52
476.013	0.52
476.369	0.5
476.724	0.5
477.08	0.49
477.435	0.48
477.791	0.48
478.146	0.47
478.501	0.46
478.857	0.45
479.212	0.43
479.567	0.43
479.922	0.42
480.277	0.41
480.632	0.39
480.987	0.39
481.342	0.38
481.697	0.37
482.052	0.36
482.407	0.36
482.762	0.35
483.116	0.34
483.471	0.34
483.826	0.33
484.18	0.31
484.535	0.31
484.89	0.31
485.244	0.3
485.598	0.29
485.953	0.28
486.307	0.28
486.661	0.28
487.016	0.27
487.37	0.27
487.724	0.26
488.078	0.25
488.432	0.25
488.786	0.24
489.14	0.23
489.494	0.22
489.848	0.22
490.202	0.22
490.556	0.21
490.91	0.22
491.263	0.21
491.617	0.2
491.971	0.2
492.324	0.19
492.678	0.19
493.031	0.19
493.385	0.18
493.738	0.18
494.091	0.18
494.445	0.17
494.798	0.16
495.151	0.16
495.504	0.16
495.857	0.16
496.21	0.15
496.564	0.14
496.916	0.15
497.269	0.13
497.622	0.14
497.975	0.14
498.328	0.14
498.681	0.14
499.033	0.13
499.386	0.13
499.739	0.13
500.091	0.12
500.444	0.11
500.796	0.11
501.149	0.11
501.501	0.11
501.854	0.11
502.206	0.1
502.558	0.1
502.91	0.1
503.263	0.1
503.615	0.1
503.967	0.09
504.319	0.09
504.671	0.08
505.023	0.08
505.375	0.08
505.726	0.08
506.078	0.08
506.43	0.08
506.782	0.07
507.133	0.08
507.485	0.08
507.837	0.08
508.188	0.07
508.54	0.08
508.891	0.08
509.243	0.07
509.594	0.07
509.945	0.06
510.296	0.06
510.648	0.06
510.999	0.06
511.35	0.06
511.701	0.06
512.052	0.07
512.403	0.06
512.754	0.05
513.105	0.05
513.456	0.05
513.807	0.05
514.157	0.06
514.508	0.06
514.859	0.04
515.209	0.05
515.56	0.05
515.91	0.05
516.261	0.05
516.611	0.04
516.962	0.04
517.312	0.05
517.662	0.05
518.013	0.05
518.363	0.05
518.713	0.04
519.063	0.05
519.413	0.05
519.763	0.04
520.113	0.04
520.463	0.05
520.813	0.04
521.163	0.05
521.512	0.04
521.862	0.04
522.212	0.04
522.562	0.04
522.911	0.04
523.261	0.04
523.61	0.04
523.96	0.04
524.309	0.05
524.658	0.04
525.008	0.03
525.357	0.04
525.706	0.05
526.056	0.03
526.405	0.03
526.754	0.03
527.103	0.03
527.452	0.04
527.801	0.04
528.15	0.04
528.499	0.04
528.847	0.04
529.196	0.04
529.545	0.04
529.893	0.04
530.242	0.04
530.591	0.04
530.939	0.05
531.288	0.04
531.636	0.04
531.985	0.04
532.333	0.04
532.681	0.04
533.029	0.04
533.378	0.04
533.726	0.03
534.074	0.04
534.422	0.03
534.77	0.03
535.118	0.04
535.466	0.03
535.814	0.04
536.162	0.03
536.509	0.04
536.857	0.04
537.205	0.04
537.552	0.04
537.9	0.04
538.248	0.03
538.595	0.04
538.943	0.04
539.29	0.04
539.637	0.03
539.985	0.04
540.332	0.03
540.679	0.03
541.026	0.03
541.373	0.04
541.721	0.02
542.068	0.02
542.415	0.03
542.762	0.03
543.108	0.03
543.455	0.01
543.802	0.02
544.149	0.02
544.496	0.02
544.842	0.02
545.189	0.01
545.535	0.02
545.882	0.03
546.228	0.01
546.575	0.01
546.921	0.01
547.267	0.02
547.614	0.02
547.96	0.02
548.306	0.01
548.652	0.02
548.998	0.02
549.344	0.02
549.69	0.02
550.036	0.02
550.382	0.01
550.728	0.01
551.074	0.02
551.42	0.03
551.765	0.02
552.111	0.02
552.457	0.03
552.802	0.02
553.148	0.02
553.493	0.02
553.839	0.02
554.184	0.03
554.529	0.02
554.875	0.03
555.22	0.03
555.565	0.02
555.91	0.03
556.255	0.03
556.6	0.03
556.945	0.02
557.29	0.02
557.635	0.02
557.98	0.02
558.325	0.02
558.67	0.03
559.014	0.03
559.359	0.03
559.704	0.03
560.048	0.02
560.393	0.02
560.737	0.01
561.082	0.02
561.426	0.02
561.77	0.02
562.115	0.01
562.459	0.02
562.803	0.02
563.147	0.02
563.491	0.02
563.835	0.02
564.179	0.02
564.523	0.02
564.867	0.01
565.211	0.02
565.555	0.01
565.899	0.02
566.242	0.02
566.586	0.02
566.93	0.02
567.273	0.03
567.617	0.03
567.96	0.03
568.304	0.02
568.647	0.02
568.99	0.03
569.334	0.03
569.677	0.02
570.02	0.03
570.363	0.03
570.706	0.02
571.049	0.02
571.392	0.03
571.735	0.01
572.078	0.02
572.421	0.03
572.764	0.02
573.106	0.02
573.449	0.02
573.792	0.01
574.134	0.01
574.477	0.02
574.819	0.02
575.162	0.02
575.504	0.02
575.847	0.02
576.189	0.02
576.531	0.02
576.873	0.02
577.215	0.01
577.558	0.02
577.9	0.02
578.242	0.02
578.584	0.02
578.926	0.03
579.267	0.02
579.609	0.02
579.951	0.02
580.293	0.02
580.634	0.03
580.976	0.02
581.318	0.02
581.659	0.02
582.001	0.03
582.342	0.02
582.683	0.02
583.025	0.02
583.366	0.01
583.707	0.02
584.049	0.02
584.39	0.02
584.731	0.01
585.072	0.02
585.413	0.03
585.754	0.02
586.095	0.02
586.435	0.03
586.776	0.02
587.117	0.02
587.458	0.02
587.798	0.02
588.139	0.02
588.48	0.02
588.82	0.02
589.161	0.02
589.501	0.02
589.841	0.02
590.182	0.02
590.522	0.01
590.862	0.02
591.202	0.02
591.542	0.02
591.882	0.02
592.222	0.01
592.562	0.02
592.902	0.02
593.242	0.02
593.582	0.02
593.922	0.02
594.261	0.02
594.601	0.01
594.941	0.02
595.28	0.02
595.62	0.02
595.959	0.02
596.299	0.02
596.638	0.02
596.977	0.02
597.317	0.03
597.656	0.02
597.995	0.02
598.334	0.02
598.673	0.02
599.012	0.02
599.351	0.03
599.69	0.01
600.029	0.02
600.368	0.02
600.707	0.02
601.046	0.02
601.384	0.03
601.723	0.02
602.061	0.02
602.4	0.02
602.738	0.02
603.077	0.02
603.415	0.01
603.754	0.02
604.092	0.02
604.43	0.01
604.768	0.02
605.107	0.02
605.445	0.02
605.783	0.01
606.121	0.02
606.459	0.02
606.796	0.02
607.134	0.01
607.472	0.01
607.81	0.02
608.148	0.01
608.485	0.02
608.823	0.02
609.16	0.02
609.498	0.02
609.835	0.01
610.173	0.02
610.51	0.02
610.847	0.02
611.185	0.03
611.522	0.03
611.859	0.03
612.196	0.03
612.533	0.03
612.87	0.03
613.207	0.03
613.544	0.04
613.881	0.04
614.217	0.03
614.554	0.02
614.891	0.03
615.228	0.03
615.564	0.03
615.901	0.03
616.237	0.03
616.574	0.03
616.91	0.04
617.246	0.04
617.583	0.03
617.919	0.04
618.255	0.03
618.591	0.03
618.927	0.04
619.263	0.04
619.599	0.04
619.935	0.03
620.271	0.03
620.607	0.03
620.943	0.03
621.279	0.03
621.614	0.03
621.95	0.03
622.286	0.03
622.621	0.03
622.957	0.03
623.292	0.02
623.627	0.02
623.963	0.02
624.298	0.03
624.633	0.02
624.968	0.02
625.304	0.02
625.639	0.02
625.974	0.02
626.309	0.02
626.644	0.02
626.979	0.03
627.313	0.02
627.648	0.02
627.983	0.02
628.318	0.02
628.652	0.02
628.987	0.02
629.321	0.02
629.656	0.02
629.99	0.02
630.325	0.03
630.659	0.02
630.993	0.02
631.327	0.02
631.662	0.01
631.996	0.02
632.33	0.02
632.664	0.02
632.998	0.02
633.332	0.02
633.666	0.02
633.999	0.02
634.333	0.02
634.667	0.02
635.001	0.02
635.334	0.02
635.668	0.02
636.001	0.02
636.335	0.02
636.668	0.02
637.001	0.01
637.335	0.02
637.668	0.02
638.001	0.01
638.334	0.02
638.668	0.01
639.001	0.02
639.334	0.01
639.667	0.01
639.999	0.01
640.332	0.01
640.665	0.01
640.998	0.02
641.331	0.02
641.663	0.01
641.996	0.02
642.328	0.02
642.661	0.01
642.993	0.02
643.326	0.02
643.658	0.01
643.99	0.01
644.323	0.01
644.655	0.01
644.987	0.01
645.319	0.02
645.651	0.02
645.983	0.01
646.315	0.01
646.647	0.01
646.979	0.02
647.31	0.03
647.642	0.02
647.974	0.02
648.305	0.03
648.637	0.02
648.968	0.02
649.3	0.02
649.631	0.03
649.963	0.02
650.294	0.02
650.625	0.02
650.957	0.03
651.288	0.02
651.619	0.03
651.95	0.02
652.281	0.03
652.612	0.02
652.943	0.02
653.274	0.03
653.604	0.03
653.935	0.02
654.266	0.03
654.596	0.03
654.927	0.02
655.258	0.03
655.588	0.03
655.918	0.03
656.249	0.01
656.579	0.02
656.909	0.03
657.24	0.02
657.57	0.04
657.9	0.03
658.23	0.03
658.56	0.03
658.89	0.04
659.22	0.03
659.55	0.03
659.88	0.03
660.209	0.04
660.539	0.05
660.869	0.04
661.198	0.03
661.528	0.04
661.857	0.04
662.187	0.04
662.516	0.04
662.846	0.03
663.175	0.03
663.504	0.03
663.833	0.03
664.163	0.04
664.492	0.04
664.821	0.03
665.15	0.03
665.479	0.03
665.807	0.03
666.136	0.03
666.465	0.03
666.794	0.03
667.122	0.03
667.451	0.03
667.78	0.03
668.108	0.03
668.437	0.02
668.765	0.02
669.093	0.03
669.422	0.02
669.75	0.03
670.078	0.03
670.406	0.04
670.734	0.03
671.062	0.03
671.39	0.03
671.718	0.03
672.046	0.03
672.374	0.02
672.702	0.03
673.029	0.03
673.357	0.03
673.685	0.04
674.012	0.03
674.34	0.03
674.667	0.03
674.995	0.04
675.322	0.04
675.649	0.03
675.977	0.03
676.304	0.03
676.631	0.03
676.958	0.03
677.285	0.04
677.612	0.03
677.939	0.04
678.266	0.03
678.593	0.03
678.92	0.04
679.246	0.03
679.573	0.03
679.9	0.03
680.226	0.04
680.553	0.03
680.879	0.03
681.206	0.03
681.532	0.02
681.858	0.03
682.184	0.03
682.511	0.03
682.837	0.02
683.163	0.03
683.489	0.03
683.815	0.03
684.141	0.03
684.467	0.03
684.793	0.02
685.118	0.02
685.444	0.03
685.77	0.03
686.095	0.03
686.421	0.03
686.746	0.04
687.072	0.03
687.397	0.03
687.723	0.04
688.048	0.04
688.373	0.03
688.698	0.04
689.023	0.03
689.349	0.04
689.674	0.04
689.999	0.03
690.323	0.03
690.648	0.03
690.973	0.03
691.298	0.03
691.623	0.03
691.947	0.03
692.272	0.03
692.596	0.03
692.921	0.03
693.245	0.03
693.57	0.03
693.894	0.03
694.218	0.03
694.543	0.03
694.867	0.03
695.191	0.03
695.515	0.03
695.839	0.03
696.163	0.03
696.487	0.03
696.811	0.03
697.135	0.03
697.458	0.03
697.782	0.03
698.106	0.03
698.429	0.03
698.753	0.03
699.076	0.03
699.4	0.03
699.723	0.03
700.046	0.02
700.37	0.04
700.693	0.03
701.016	0.03
701.339	0.03
701.662	0.04
701.985	0.03
702.308	0.03
702.631	0.04
702.954	0.04
703.277	0.03
703.599	0.03
703.922	0.02
704.245	0.02
704.567	0.03
704.89	0.03
705.212	0.03
705.535	0.02
705.857	0.02
706.179	0.02
706.502	0.02
706.824	0.02
707.146	0.02
707.468	0.02
707.79	0.02
708.112	0.02
708.434	0.02
708.756	0.03
709.078	0.03
709.399	0.02
709.721	0.02
710.043	0.03
710.364	0.03
710.686	0.03
711.007	0.03
711.329	0.04
711.65	0.03
711.972	0.03
712.293	0.03
712.614	0.03
712.935	0.03
713.256	0.03
713.577	0.04
713.898	0.03
714.219	0.03
714.54	0.03
714.861	0.03
715.182	0.03
715.503	0.02
715.823	0.03
716.144	0.03
716.464	0.01
716.785	0.02
717.105	0.02
717.426	0.02
717.746	0.02
718.066	0.02
718.387	0.02
718.707	0.01
719.027	0.02
719.347	0.02
719.667	0.01
719.987	0.01
720.307	0.02
720.627	0.01
720.947	0.03
721.266	0.02
721.586	0.02
721.906	0.02
722.225	0.01
722.545	0.02
722.864	0.02
723.184	0.02
723.503	0.02
723.823	0.02
724.142	0.01
724.461	0.01
724.78	0.02
725.099	0.02
725.418	0.02
725.737	0.02
726.056	0.02
726.375	0.03
726.694	0.02
727.013	0.02
727.331	0.01
727.65	0.01
727.969	0.02
728.287	0.03
728.606	0.02
728.924	0.01
729.242	0.02
729.561	0.02
729.879	0.02
730.197	0.02
730.515	0.02
730.834	0.03
731.152	0.02
731.47	0.03
731.788	0.02
732.105	0.02
732.423	0.02
732.741	0.02
733.059	0.02
733.376	0.02
733.694	0.02
734.012	0.02
734.329	0.02
734.647	0.02
734.964	0.03
735.281	0.03
735.599	0.02
735.916	0.03
736.233	0.02
736.55	0.02
736.867	0.02
737.184	0.03
737.501	0.02
737.818	0.03
738.135	0.03
738.452	0.03
738.768	0.03
739.085	0.03
739.402	0.02
739.718	0.03
740.035	0.03
740.351	0.03
740.668	0.03
740.984	0.02
741.3	0.02
741.617	0.03
741.933	0.03
742.249	0.03
742.565	0.03
742.881	0.04
743.197	0.02
743.513	0.03
743.829	0.02
744.144	0.03
744.46	0.02
744.776	0.03
745.091	0.03
745.407	0.02
745.722	0.02
746.038	0.02
746.353	0.01
746.669	0.03
746.984	0.02
747.299	0.03
747.614	0.03
747.93	0.03
748.245	0.02
748.56	0.03
748.875	0.03
749.189	0.03
749.504	0.02
749.819	0.03
750.134	0.03
750.448	0.03
750.763	0.03
751.078	0.02
751.392	0.03
751.707	0.03
752.021	0.04
752.335	0.04
752.65	0.03
752.964	0.03
753.278	0.04
753.592	0.02
753.906	0.02
754.22	0.03
754.534	0.03
754.848	0.04
755.162	0.03
755.476	0.03
755.789	0.03
756.103	0.03
756.417	0.04
756.73	0.03
757.044	0.04
757.357	0.04
757.671	0.03
757.984	0.03
758.297	0.04
758.61	0.04
758.924	0.03
759.237	0.03
759.55	0.04
759.863	0.03
760.176	0.03
760.488	0.04
760.801	0.03
761.114	0.03
761.427	0.03
761.739	0.03
762.052	0.03
762.365	0.03
762.677	0.03
762.99	0.02
763.302	0.03
763.614	0.03
763.926	0.03
764.239	0.03
764.551	0.02
764.863	0.02
765.175	0.03
765.487	0.03
765.799	0.02
766.111	0.02
766.423	0.03
766.734	0.03
767.046	0.02
767.358	0.03
767.669	0.03
767.981	0.03
768.292	0.03
768.604	0.03
768.915	0.03
769.226	0.03
769.537	0.02
769.849	0.03
770.16	0.02
770.471	0.03
770.782	0.02
771.093	0.03
771.404	0.02
771.715	0.02
772.025	0.02
772.336	0.02
772.647	0.02
772.957	0.02
773.268	0.03
773.578	0.02
773.889	0.03
774.199	0.04
774.51	0.02
774.82	0.03
775.13	0.02
775.44	0.03
775.75	0.03
776.06	0.03
776.37	0.02
776.68	0.03
776.99	0.03
777.3	0.02
777.61	0.03
777.92	0.03
778.229	0.03
778.539	0.03
778.848	0.03
779.158	0.03
779.467	0.03
779.777	0.02
780.086	0.03
780.395	0.03
780.704	0.03
781.013	0.02
781.323	0.02
781.632	0.03
781.941	0.04
782.249	0.03
782.558	0.02
782.867	0.03
783.176	0.03
783.485	0.02
783.793	0.03
784.102	0.03
784.41	0.02
784.719	0.03
785.027	0.02
785.335	0.02
785.644	0.03
785.952	0.03
786.26	0.03
786.568	0.02
786.876	0.02
787.184	0.02
787.492	0.02
787.8	0.03
788.108	0.03
788.416	0.02
788.723	0.02
789.031	0.02
789.338	0.02
789.646	0.02
789.953	0.03
790.261	0.03
790.568	0.03
790.876	0.03
791.183	0.03
791.49	0.02
791.797	0.03
792.104	0.02
792.411	0.04
792.718	0.02
793.025	0.03
793.332	0.03
793.639	0.04
793.945	0.04
794.252	0.03
794.559	0.03
794.865	0.04
795.172	0.03
795.478	0.03
795.784	0.03
796.091	0.04
796.397	0.05
796.703	0.05
797.009	0.05
797.315	0.04
797.622	0.04
797.927	0.03
798.233	0.04
798.539	0.05
798.845	0.04
799.151	0.04
799.456	0.04
799.762	0.04
800.068	0.04
800.373	0.05
800.679	0.03
800.984	0.04
801.289	0.03
801.595	0.04
801.9	0.03
802.205	0.03
802.51	0.03
802.815	0.04
803.12	0.03
803.425	0.04
803.73	0.03
804.035	0.03
804.339	0.04
804.644	0.03
804.949	0.04
805.253	0.04
805.558	0.04
805.862	0.03
806.167	0.04
806.471	0.04
806.775	0.04
807.08	0.04
807.384	0.04
807.688	0.03
807.992	0.04
808.296	0.03
808.6	0.04
808.904	0.05
809.207	0.04
809.511	0.05
809.815	0.04
810.119	0.04
810.422	0.05
810.726	0.05
811.029	0.05
811.332	0.05
811.636	0.05
811.939	0.05
812.242	0.05
812.546	0.05
812.849	0.05
813.152	0.05
813.455	0.04
813.758	0.06
814.06	0.05
814.363	0.05
814.666	0.05
814.969	0.04
815.271	0.05
815.574	0.04
815.877	0.04
816.179	0.04
816.481	0.03
816.784	0.05
817.086	0.03
817.388	0.04
817.69	0.03
817.993	0.03
818.295	0.03
818.597	0.03
818.899	0.03
819.2	0.03
819.502	0.03
819.804	0.03
820.106	0.03
820.407	0.03
820.709	0.03
821.01	0.03
821.312	0.04
821.613	0.03
821.915	0.02
822.216	0.02
822.517	0.02
822.818	0.03
823.119	0.03
823.42	0.03
823.721	0.02
824.022	0.03
824.323	0.03
824.624	0.02
824.925	0.03
825.226	0.03
825.526	0.02
825.827	0.02
826.127	0.03
826.428	0.03
826.728	0.02
827.028	0.03
827.329	0.03
827.629	0.02
827.929	0.02
828.229	0.03
828.529	0.04
828.829	0.03
829.129	0.03
829.429	0.02
829.729	0.02
830.029	0.02
830.328	0.02
830.628	0.01
830.927	0
831.227	0.01
831.526	0.02
831.826	0.02
832.125	0.02
832.424	0.02
832.724	0.02
833.023	0.01
833.322	0.02
833.621	0.01
833.92	0.01
834.219	0.02
834.518	0.02
834.816	0
835.115	0.02
835.414	0.01
835.712	0.01
836.011	0.01
836.309	0.01
836.608	0
836.906	-0
837.205	0
837.503	0.01
837.801	-0
838.099	-0.01
838.397	-0.01
838.695	-0.01
838.993	-0
839.291	-0.01
839.589	-0.01
839.887	-0.01
840.184	-0.01
840.482	-0.01
840.78	-0.01
841.077	-0.02
841.375	-0.01
841.672	-0.02
841.969	-0.02
842.267	-0.02
842.564	-0.02
842.861	-0.02
843.158	-0.02
843.455	-0.04
843.752	-0.04
844.049	-0.03
844.346	-0.04
844.643	-0.04
844.94	-0.04
845.236	-0.03
845.533	-0.04
845.83	-0.04
846.126	-0.04
846.423	-0.05
846.719	-0.05
847.015	-0.05
847.312	-0.05
847.608	-0.06
847.904	-0.06
848.2	-0.06
848.496	-0.05
848.792	-0.04
849.088	-0.05
849.384	-0.05
849.68	-0.06
849.975	-0.06
850.271	-0.06
850.567	-0.06
850.862	-0.07
851.158	-0.07
851.453	-0.07
851.748	-0.08
852.044	-0.07
852.339	-0.07
852.634	-0.09
852.929	-0.07
853.224	-0.08
853.519	-0.08
853.814	-0.08
854.109	-0.08
854.404	-0.08
854.699	-0.09
854.994	-0.08
855.288	-0.07
855.583	-0.07
855.877	-0.08
856.172	-0.08
856.466	-0.08
856.76	-0.08
857.055	-0.08
857.349	-0.09
857.643	-0.1
857.937	-0.1
858.231	-0.1
858.525	-0.1
858.819	-0.1
859.113	-0.11
859.407	-0.11
859.701	-0.11
859.994	-0.11
860.288	-0.1
860.581	-0.11
860.875	-0.11
861.168	-0.11
861.462	-0.1
861.755	-0.11
862.048	-0.11
862.341	-0.12
862.634	-0.11
862.928	-0.1
863.221	-0.11
863.513	-0.13
863.806	-0.11
864.099	-0.13
864.392	-0.12
864.685	-0.12
864.977	-0.12
865.27	-0.12
865.562	-0.12
865.855	-0.12
866.147	-0.12
866.44	-0.12
866.732	-0.13
867.024	-0.14
867.316	-0.14
867.608	-0.14
867.9	-0.14
868.192	-0.13
868.484	-0.14
868.776	-0.14
869.068	-0.14
869.359	-0.14
869.651	-0.15
869.943	-0.16
870.234	-0.15
870.526	-0.16
870.817	-0.15
871.108	-0.15
871.4	-0.15
871.691	-0.17
871.982	-0.18
872.273	-0.18
872.564	-0.17
872.855	-0.17
873.146	-0.17
873.437	-0.17
873.728	-0.19
874.019	-0.17
874.309	-0.18
874.6	-0.18
874.89	-0.17
875.181	-0.18
875.471	-0.16
875.762	-0.18
876.052	-0.16
876.342	-0.16
876.632	-0.18
876.922	-0.17
877.213	-0.17
877.503	-0.18
877.792	-0.17
878.082	-0.19
878.372	-0.18
878.662	-0.19
878.952	-0.18
879.241	-0.17
879.531	-0.17
879.82	-0.18
880.11	-0.18
880.399	-0.18
880.688	-0.16
880.978	-0.16
881.267	-0.16
