Data from 12-12-AQDScycling_Absorbance__758__00758.txt Node

Date: Tue Dec 12 14:06:14 EST 2023
User: kyuminlee
Spectrometer: FLMS00943
Trigger mode: 0
Integration Time (sec): 1.000000E-1
Scans to average: 1
Electric dark correction enabled: true
Nonlinearity correction enabled: false
Boxcar width: 0
XAxis mode: Wavelengths
Number of Pixels in Spectrum: 2048
>>>>>Begin Spectral Data<<<<<
179.651	-0
180.037	-0
180.424	-0
180.81	-0
181.197	0.23
181.583	-0
181.97	-0
182.356	-0
182.743	-0.95
183.129	1.38
183.515	0.83
183.901	-0
184.288	-0.08
184.674	-0
185.06	-0
185.446	-0
185.832	-0
186.218	0.06
186.604	-0
186.99	-0
187.376	-0
187.762	-0.14
188.148	0.16
188.534	-0.21
188.92	0.09
189.305	0.03
189.691	0.09
190.077	0.02
190.463	0.09
190.848	0.15
191.234	-0.02
191.619	-0.04
192.005	0.05
192.391	0.13
192.776	0.11
193.161	0.16
193.547	0.12
193.932	0.06
194.318	0.12
194.703	0.26
195.088	0.26
195.473	0.05
195.859	0.06
196.244	0.1
196.629	0.09
197.014	0.1
197.399	0.18
197.784	0.19
198.169	0.04
198.554	0.26
198.939	0.19
199.324	0.11
199.709	0.08
200.094	0.16
200.478	0.05
200.863	0.08
201.248	0.15
201.633	0.15
202.017	0.06
202.402	0.09
202.787	0.1
203.171	0.15
203.556	0.18
203.94	0.03
204.325	0.36
204.709	0.1
205.093	0.12
205.478	0.11
205.862	0.03
206.246	0.28
206.631	0.07
207.015	0.05
207.399	0.13
207.783	0.15
208.167	0.13
208.551	0.12
208.935	0.22
209.319	0.07
209.703	0.09
210.087	0.34
210.471	0.14
210.855	0.29
211.239	0.36
211.623	0.28
212.007	0.3
212.39	0.29
212.774	0.28
213.158	0.15
213.541	0.15
213.925	0.25
214.309	0.29
214.692	0.23
215.076	0.13
215.459	0.07
215.842	0.19
216.226	0.36
216.609	0.3
216.993	0.26
217.376	0.42
217.759	0.23
218.142	0.21
218.525	0.37
218.909	0.3
219.292	0.47
219.675	0.38
220.058	0.4
220.441	0.56
220.824	0.39
221.207	0.51
221.59	0.5
221.973	0.48
222.355	0.56
222.738	0.77
223.121	0.62
223.504	0.57
223.886	0.57
224.269	0.76
224.652	0.72
225.034	0.69
225.417	0.68
225.799	0.74
226.182	1.05
226.564	0.87
226.947	0.92
227.329	0.78
227.711	0.86
228.094	1.05
228.476	0.97
228.858	0.7
229.24	0.85
229.623	0.95
230.005	0.82
230.387	0.9
230.769	0.92
231.151	0.94
231.533	0.98
231.915	0.97
232.297	1.11
232.679	0.95
233.061	1.02
233.442	0.95
233.824	0.98
234.206	1.01
234.588	0.98
234.969	1.11
235.351	1.07
235.733	1.04
236.114	1.11
236.496	1.1
236.877	1.04
237.259	0.98
237.64	1.08
238.022	0.97
238.403	1.04
238.784	1
239.165	0.91
239.547	1.05
239.928	1.16
240.309	1.05
240.69	1.02
241.071	1.12
241.452	1.1
241.834	1.08
242.215	1.09
242.595	1.11
242.976	1.25
243.357	1.21
243.738	1.01
244.119	1.09
244.5	1.17
244.881	1.22
245.261	1.16
245.642	1.11
246.023	1.16
246.403	1.17
246.784	1.22
247.164	1.34
247.545	1.23
247.925	1.3
248.306	1.22
248.686	1.37
249.067	1.27
249.447	1.46
249.827	1.3
250.207	1.54
250.588	1.27
250.968	1.64
251.348	1.37
251.728	1.49
252.108	1.29
252.488	1.28
252.868	1.42
253.248	1.32
253.628	1.29
254.008	1.41
254.388	1.28
254.768	1.38
255.147	1.47
255.527	1.43
255.907	1.31
256.287	1.3
256.666	1.39
257.046	1.57
257.425	1.5
257.805	1.3
258.184	1.32
258.564	1.31
258.943	1.24
259.323	1.41
259.702	1.43
260.081	1.42
260.461	1.38
260.84	1.41
261.219	1.72
261.598	1.57
261.977	1.37
262.356	1.55
262.736	1.45
263.115	1.75
263.494	1.38
263.873	1.39
264.251	1.43
264.63	1.52
265.009	1.39
265.388	1.42
265.767	1.41
266.145	1.51
266.524	1.44
266.903	1.48
267.281	1.34
267.66	1.4
268.039	1.39
268.417	1.41
268.796	1.39
269.174	1.36
269.552	1.32
269.931	1.55
270.309	1.46
270.687	1.54
271.066	1.55
271.444	1.43
271.822	1.38
272.2	1.42
272.578	1.4
272.956	1.39
273.334	1.43
273.712	1.38
274.09	1.37
274.468	1.35
274.846	1.34
275.224	1.36
275.602	1.35
275.98	1.49
276.357	1.31
276.735	1.6
277.113	1.37
277.49	1.26
277.868	1.33
278.246	1.43
278.623	1.33
279.001	1.33
279.378	1.38
279.756	1.46
280.133	1.68
280.51	1.36
280.888	1.59
281.265	1.33
281.642	1.36
282.019	1.54
282.396	1.62
282.773	1.49
283.151	1.53
283.528	1.43
283.905	1.31
284.282	1.41
284.659	1.55
285.035	1.3
285.412	1.37
285.789	1.54
286.166	1.46
286.543	1.51
286.919	1.6
287.296	1.33
287.673	1.6
288.049	1.5
288.426	1.47
288.802	1.47
289.179	1.45
289.555	1.54
289.932	1.56
290.308	1.41
290.684	1.4
291.061	1.41
291.437	1.36
291.813	1.53
292.189	1.2
292.565	1.25
292.942	1.37
293.318	1.39
293.694	1.4
294.07	1.33
294.446	1.45
294.822	1.57
295.197	1.38
295.573	1.41
295.949	1.51
296.325	1.4
296.701	1.5
297.076	1.48
297.452	1.53
297.828	1.44
298.203	1.52
298.579	1.38
298.954	1.4
299.33	1.41
299.705	1.46
300.081	1.53
300.456	1.65
300.831	1.41
301.206	1.43
301.582	1.49
301.957	1.53
302.332	1.62
302.707	1.37
303.082	1.47
303.457	1.41
303.832	1.41
304.207	1.32
304.582	1.44
304.957	1.46
305.332	1.49
305.707	1.38
306.082	1.36
306.456	1.54
306.831	1.39
307.206	1.43
307.58	1.48
307.955	1.43
308.33	1.32
308.704	1.46
309.079	1.39
309.453	1.48
309.828	1.41
310.202	1.4
310.576	1.33
310.951	1.43
311.325	1.36
311.699	1.41
312.073	1.34
312.447	1.33
312.821	1.36
313.196	1.4
313.57	1.34
313.944	1.26
314.317	1.33
314.691	1.39
315.065	1.51
315.439	1.42
315.813	1.4
316.187	1.35
316.56	1.39
316.934	1.41
317.308	1.37
317.681	1.41
318.055	1.36
318.428	1.41
318.802	1.4
319.175	1.38
319.549	1.4
319.922	1.3
320.295	1.34
320.669	1.48
321.042	1.43
321.415	1.48
321.788	1.42
322.162	1.34
322.535	1.5
322.908	1.55
323.281	1.47
323.654	1.54
324.027	1.46
324.4	1.46
324.773	1.48
325.145	1.38
325.518	1.39
325.891	1.42
326.264	1.55
326.636	1.32
327.009	1.44
327.382	1.48
327.754	1.62
328.127	1.45
328.499	1.48
328.872	1.33
329.244	1.49
329.616	1.37
329.989	1.47
330.361	1.52
330.733	1.41
331.106	1.35
331.478	1.55
331.85	1.37
332.222	1.32
332.594	1.51
332.966	1.6
333.338	1.69
333.71	1.61
334.082	1.44
334.454	1.43
334.826	1.55
335.197	1.49
335.569	1.51
335.941	1.47
336.312	1.57
336.684	1.36
337.056	1.43
337.427	1.48
337.799	1.49
338.17	1.51
338.542	1.52
338.913	1.51
339.284	1.47
339.656	1.44
340.027	1.44
340.398	1.49
340.769	1.41
341.141	1.67
341.512	1.48
341.883	1.51
342.254	1.39
342.625	1.49
342.996	1.51
343.367	1.43
343.738	1.41
344.108	1.46
344.479	1.42
344.85	1.35
345.221	1.47
345.591	1.29
345.962	1.44
346.333	1.44
346.703	1.26
347.074	1.36
347.444	1.25
347.815	1.33
348.185	1.4
348.556	1.34
348.926	1.33
349.296	1.38
349.666	1.3
350.037	1.25
350.407	1.34
350.777	1.41
351.147	1.31
351.517	1.41
351.887	1.33
352.257	1.42
352.627	1.29
352.997	1.34
353.367	1.4
353.737	1.42
354.106	1.4
354.476	1.27
354.846	1.36
355.216	1.39
355.585	1.38
355.955	1.31
356.324	1.35
356.694	1.35
357.063	1.34
357.433	1.27
357.802	1.34
358.171	1.3
358.541	1.26
358.91	1.37
359.279	1.45
359.648	1.31
360.017	1.43
360.387	1.47
360.756	1.36
361.125	1.35
361.494	1.38
361.863	1.33
362.231	1.33
362.6	1.37
362.969	1.4
363.338	1.27
363.707	1.42
364.075	1.42
364.444	1.33
364.813	1.33
365.181	1.35
365.55	1.29
365.918	1.41
366.287	1.43
366.655	1.39
367.024	1.37
367.392	1.46
367.76	1.43
368.128	1.39
368.497	1.29
368.865	1.42
369.233	1.29
369.601	1.35
369.969	1.35
370.337	1.31
370.705	1.37
371.073	1.31
371.441	1.39
371.809	1.31
372.177	1.35
372.544	1.33
372.912	1.38
373.28	1.39
373.647	1.45
374.015	1.45
374.383	1.47
374.75	1.49
375.118	1.37
375.485	1.41
375.853	1.47
376.22	1.33
376.587	1.34
376.955	1.43
377.322	1.4
377.689	1.4
378.056	1.33
378.423	1.43
378.79	1.44
379.157	1.38
379.524	1.38
379.891	1.35
380.258	1.46
380.625	1.41
380.992	1.34
381.359	1.39
381.726	1.52
382.092	1.39
382.459	1.45
382.826	1.32
383.192	1.45
383.559	1.43
383.925	1.42
384.292	1.42
384.658	1.59
385.025	1.52
385.391	1.57
385.757	1.51
386.123	1.46
386.49	1.5
386.856	1.44
387.222	1.47
387.588	1.44
387.954	1.67
388.32	1.5
388.686	1.55
389.052	1.46
389.418	1.52
389.784	1.4
390.15	1.61
390.515	1.37
390.881	1.51
391.247	1.46
391.613	1.74
391.978	1.46
392.344	1.57
392.709	1.61
393.075	1.55
393.44	1.65
393.806	1.61
394.171	1.35
394.536	1.5
394.902	1.46
395.267	1.42
395.632	1.49
395.997	1.44
396.362	1.5
396.727	1.48
397.092	1.48
397.457	1.53
397.822	1.54
398.187	1.48
398.552	1.45
398.917	1.51
399.282	1.38
399.646	1.5
400.011	1.69
400.376	1.4
400.74	1.44
401.105	1.48
401.47	1.52
401.834	1.42
402.199	1.4
402.563	1.39
402.927	1.37
403.292	1.63
403.656	1.44
404.02	1.43
404.384	1.45
404.749	1.5
405.113	1.41
405.477	1.37
405.841	1.46
406.205	1.42
406.569	1.32
406.933	1.34
407.296	1.42
407.66	1.29
408.024	1.37
408.388	1.32
408.752	1.45
409.115	1.45
409.479	1.45
409.842	1.37
410.206	1.34
410.569	1.36
410.933	1.34
411.296	1.26
411.66	1.37
412.023	1.28
412.386	1.3
412.749	1.16
413.113	1.36
413.476	1.31
413.839	1.21
414.202	1.25
414.565	1.16
414.928	1.37
415.291	1.17
415.654	1.26
416.017	1.23
416.38	1.17
416.742	1.24
417.105	1.19
417.468	1.2
417.83	1.26
418.193	1.38
418.556	1.15
418.918	1.2
419.281	1.17
419.643	1.22
420.005	1.22
420.368	1.15
420.73	1.17
421.092	1.26
421.455	1.25
421.817	1.18
422.179	1.16
422.541	1.2
422.903	1.31
423.265	1.22
423.627	1.18
423.989	1.16
424.351	1.17
424.713	1.19
425.075	1.2
425.436	1.11
425.798	1.12
426.16	1.19
426.521	1.18
426.883	1.16
427.245	1.11
427.606	1.16
427.967	1.11
428.329	1.15
428.69	1.12
429.052	1.16
429.413	1.16
429.774	1.11
430.135	1.16
430.497	1.11
430.858	1.11
431.219	1.15
431.58	1.11
431.941	1.13
432.302	1.05
432.663	1.07
433.024	1.17
433.384	1.16
433.745	1.07
434.106	1.13
434.467	1.08
434.827	1.09
435.188	1.12
435.548	1.11
435.909	1.06
436.269	1.14
436.63	1.06
436.99	1.1
437.351	1.04
437.711	1.05
438.071	1.01
438.431	1.03
438.792	1.03
439.152	1.01
439.512	1.04
439.872	1.04
440.232	1.06
440.592	1
440.952	1.02
441.312	1
441.671	1.03
442.031	0.99
442.391	0.99
442.751	1.01
443.11	0.97
443.47	0.96
443.83	0.95
444.189	0.96
444.549	0.96
444.908	0.91
445.267	0.93
445.627	0.93
445.986	0.91
446.345	0.89
446.705	0.92
447.064	0.91
447.423	0.88
447.782	0.91
448.141	0.92
448.5	0.86
448.859	0.88
449.218	0.88
449.577	0.92
449.936	0.87
450.295	0.89
450.653	0.86
451.012	0.85
451.371	0.86
451.729	0.86
452.088	0.84
452.447	0.84
452.805	0.85
453.163	0.85
453.522	0.83
453.88	0.82
454.239	0.82
454.597	0.79
454.955	0.79
455.313	0.79
455.671	0.79
456.029	0.76
456.388	0.75
456.746	0.76
457.104	0.77
457.461	0.73
457.819	0.74
458.177	0.72
458.535	0.71
458.893	0.71
459.25	0.7
459.608	0.69
459.966	0.69
460.323	0.68
460.681	0.66
461.038	0.66
461.396	0.66
461.753	0.65
462.111	0.64
462.468	0.63
462.825	0.63
463.182	0.62
463.54	0.61
463.897	0.6
464.254	0.59
464.611	0.59
464.968	0.6
465.325	0.58
465.682	0.58
466.039	0.58
466.395	0.55
466.752	0.55
467.109	0.54
467.466	0.55
467.822	0.55
468.179	0.53
468.535	0.52
468.892	0.52
469.248	0.49
469.605	0.49
469.961	0.49
470.318	0.5
470.674	0.49
471.03	0.48
471.386	0.48
471.743	0.46
472.099	0.45
472.455	0.46
472.811	0.44
473.167	0.43
473.523	0.44
473.879	0.43
474.235	0.43
474.59	0.42
474.946	0.41
475.302	0.41
475.657	0.41
476.013	0.4
476.369	0.39
476.724	0.4
477.08	0.39
477.435	0.38
477.791	0.38
478.146	0.38
478.501	0.37
478.857	0.36
479.212	0.36
479.567	0.35
479.922	0.34
480.277	0.34
480.632	0.33
480.987	0.33
481.342	0.33
481.697	0.32
482.052	0.32
482.407	0.31
482.762	0.31
483.116	0.3
483.471	0.3
483.826	0.29
484.18	0.3
484.535	0.29
484.89	0.28
485.244	0.28
485.598	0.29
485.953	0.28
486.307	0.28
486.661	0.27
487.016	0.27
487.37	0.26
487.724	0.26
488.078	0.26
488.432	0.26
488.786	0.26
489.14	0.25
489.494	0.25
489.848	0.25
490.202	0.24
490.556	0.24
490.91	0.24
491.263	0.23
491.617	0.24
491.971	0.23
492.324	0.23
492.678	0.23
493.031	0.23
493.385	0.23
493.738	0.22
494.091	0.22
494.445	0.22
494.798	0.22
495.151	0.22
495.504	0.21
495.857	0.22
496.21	0.22
496.564	0.21
496.916	0.21
497.269	0.2
497.622	0.21
497.975	0.2
498.328	0.2
498.681	0.2
499.033	0.19
499.386	0.2
499.739	0.19
500.091	0.19
500.444	0.19
500.796	0.19
501.149	0.19
501.501	0.19
501.854	0.19
502.206	0.19
502.558	0.2
502.91	0.19
503.263	0.19
503.615	0.19
503.967	0.19
504.319	0.19
504.671	0.18
505.023	0.18
505.375	0.18
505.726	0.19
506.078	0.18
506.43	0.18
506.782	0.18
507.133	0.18
507.485	0.18
507.837	0.19
508.188	0.18
508.54	0.18
508.891	0.19
509.243	0.18
509.594	0.18
509.945	0.18
510.296	0.18
510.648	0.18
510.999	0.18
511.35	0.17
511.701	0.18
512.052	0.18
512.403	0.18
512.754	0.18
513.105	0.18
513.456	0.18
513.807	0.17
514.157	0.17
514.508	0.18
514.859	0.16
515.209	0.18
515.56	0.17
515.91	0.17
516.261	0.18
516.611	0.17
516.962	0.17
517.312	0.17
517.662	0.18
518.013	0.18
518.363	0.18
518.713	0.18
519.063	0.18
519.413	0.18
519.763	0.18
520.113	0.18
520.463	0.18
520.813	0.18
521.163	0.18
521.512	0.17
521.862	0.18
522.212	0.18
522.562	0.18
522.911	0.18
523.261	0.18
523.61	0.17
523.96	0.18
524.309	0.19
524.658	0.18
525.008	0.18
525.357	0.18
525.706	0.18
526.056	0.18
526.405	0.18
526.754	0.18
527.103	0.17
527.452	0.18
527.801	0.18
528.15	0.18
528.499	0.18
528.847	0.18
529.196	0.18
529.545	0.19
529.893	0.19
530.242	0.18
530.591	0.19
530.939	0.19
531.288	0.19
531.636	0.19
531.985	0.18
532.333	0.18
532.681	0.19
533.029	0.19
533.378	0.19
533.726	0.18
534.074	0.19
534.422	0.18
534.77	0.19
535.118	0.19
535.466	0.19
535.814	0.18
536.162	0.19
536.509	0.2
536.857	0.19
537.205	0.2
537.552	0.2
537.9	0.19
538.248	0.2
538.595	0.2
538.943	0.19
539.29	0.19
539.637	0.19
539.985	0.19
540.332	0.19
540.679	0.19
541.026	0.18
541.373	0.19
541.721	0.18
542.068	0.18
542.415	0.19
542.762	0.19
543.108	0.18
543.455	0.18
543.802	0.18
544.149	0.18
544.496	0.19
544.842	0.18
545.189	0.17
545.535	0.18
545.882	0.18
546.228	0.17
546.575	0.17
546.921	0.17
547.267	0.18
547.614	0.18
547.96	0.18
548.306	0.18
548.652	0.17
548.998	0.19
549.344	0.18
549.69	0.18
550.036	0.18
550.382	0.19
550.728	0.18
551.074	0.19
551.42	0.18
551.765	0.19
552.111	0.18
552.457	0.19
552.802	0.19
553.148	0.18
553.493	0.18
553.839	0.19
554.184	0.19
554.529	0.19
554.875	0.19
555.22	0.2
555.565	0.19
555.91	0.18
556.255	0.2
556.6	0.19
556.945	0.19
557.29	0.18
557.635	0.19
557.98	0.19
558.325	0.19
558.67	0.19
559.014	0.19
559.359	0.19
559.704	0.2
560.048	0.18
560.393	0.18
560.737	0.18
561.082	0.19
561.426	0.17
561.77	0.19
562.115	0.17
562.459	0.19
562.803	0.19
563.147	0.18
563.491	0.19
563.835	0.19
564.179	0.19
564.523	0.18
564.867	0.18
565.211	0.18
565.555	0.19
565.899	0.2
566.242	0.19
566.586	0.18
566.93	0.19
567.273	0.19
567.617	0.19
567.96	0.19
568.304	0.19
568.647	0.19
568.99	0.19
569.334	0.2
569.677	0.19
570.02	0.2
570.363	0.2
570.706	0.19
571.049	0.19
571.392	0.2
571.735	0.19
572.078	0.19
572.421	0.2
572.764	0.19
573.106	0.2
573.449	0.19
573.792	0.19
574.134	0.19
574.477	0.19
574.819	0.18
575.162	0.2
575.504	0.18
575.847	0.19
576.189	0.19
576.531	0.19
576.873	0.19
577.215	0.19
577.558	0.19
577.9	0.19
578.242	0.19
578.584	0.2
578.926	0.19
579.267	0.19
579.609	0.19
579.951	0.19
580.293	0.19
580.634	0.19
580.976	0.19
581.318	0.19
581.659	0.18
582.001	0.19
582.342	0.19
582.683	0.19
583.025	0.18
583.366	0.19
583.707	0.18
584.049	0.18
584.39	0.19
584.731	0.18
585.072	0.18
585.413	0.19
585.754	0.19
586.095	0.2
586.435	0.19
586.776	0.19
587.117	0.19
587.458	0.18
587.798	0.19
588.139	0.19
588.48	0.19
588.82	0.19
589.161	0.18
589.501	0.19
589.841	0.19
590.182	0.18
590.522	0.18
590.862	0.19
591.202	0.19
591.542	0.19
591.882	0.18
592.222	0.18
592.562	0.19
592.902	0.19
593.242	0.18
593.582	0.18
593.922	0.18
594.261	0.18
594.601	0.18
594.941	0.18
595.28	0.18
595.62	0.18
595.959	0.18
596.299	0.18
596.638	0.18
596.977	0.18
597.317	0.19
597.656	0.19
597.995	0.18
598.334	0.2
598.673	0.19
599.012	0.19
599.351	0.19
599.69	0.19
600.029	0.2
600.368	0.2
600.707	0.2
601.046	0.19
601.384	0.19
601.723	0.19
602.061	0.19
602.4	0.19
602.738	0.19
603.077	0.19
603.415	0.18
603.754	0.18
604.092	0.19
604.43	0.19
604.768	0.19
605.107	0.19
605.445	0.19
605.783	0.18
606.121	0.18
606.459	0.18
606.796	0.19
607.134	0.18
607.472	0.18
607.81	0.18
608.148	0.17
608.485	0.19
608.823	0.19
609.16	0.18
609.498	0.18
609.835	0.18
610.173	0.18
610.51	0.18
610.847	0.18
611.185	0.19
611.522	0.19
611.859	0.18
612.196	0.19
612.533	0.18
612.87	0.19
613.207	0.19
613.544	0.19
613.881	0.2
614.217	0.19
614.554	0.19
614.891	0.19
615.228	0.19
615.564	0.19
615.901	0.19
616.237	0.19
616.574	0.18
616.91	0.19
617.246	0.19
617.583	0.19
617.919	0.19
618.255	0.19
618.591	0.19
618.927	0.19
619.263	0.19
619.599	0.19
619.935	0.19
620.271	0.19
620.607	0.19
620.943	0.19
621.279	0.18
621.614	0.19
621.95	0.19
622.286	0.19
622.621	0.18
622.957	0.18
623.292	0.18
623.627	0.18
623.963	0.18
624.298	0.18
624.633	0.18
624.968	0.17
625.304	0.18
625.639	0.17
625.974	0.18
626.309	0.18
626.644	0.18
626.979	0.18
627.313	0.18
627.648	0.18
627.983	0.18
628.318	0.17
628.652	0.18
628.987	0.18
629.321	0.18
629.656	0.17
629.99	0.17
630.325	0.17
630.659	0.17
630.993	0.17
631.327	0.16
631.662	0.16
631.996	0.16
632.33	0.16
632.664	0.16
632.998	0.16
633.332	0.17
633.666	0.16
633.999	0.16
634.333	0.15
634.667	0.16
635.001	0.16
635.334	0.16
635.668	0.16
636.001	0.16
636.335	0.16
636.668	0.17
637.001	0.15
637.335	0.16
637.668	0.16
638.001	0.16
638.334	0.16
638.668	0.16
639.001	0.16
639.334	0.16
639.667	0.15
639.999	0.16
640.332	0.16
640.665	0.16
640.998	0.16
641.331	0.16
641.663	0.16
641.996	0.16
642.328	0.16
642.661	0.16
642.993	0.16
643.326	0.16
643.658	0.16
643.99	0.15
644.323	0.16
644.655	0.16
644.987	0.16
645.319	0.16
645.651	0.16
645.983	0.16
646.315	0.15
646.647	0.16
646.979	0.17
647.31	0.16
647.642	0.16
647.974	0.15
648.305	0.17
648.637	0.16
648.968	0.16
649.3	0.16
649.631	0.17
649.963	0.15
650.294	0.16
650.625	0.15
650.957	0.16
651.288	0.16
651.619	0.17
651.95	0.16
652.281	0.16
652.612	0.15
652.943	0.16
653.274	0.16
653.604	0.16
653.935	0.15
654.266	0.16
654.596	0.15
654.927	0.15
655.258	0.16
655.588	0.16
655.918	0.16
656.249	0.14
656.579	0.15
656.909	0.15
657.24	0.15
657.57	0.15
657.9	0.15
658.23	0.15
658.56	0.16
658.89	0.16
659.22	0.14
659.55	0.15
659.88	0.15
660.209	0.15
660.539	0.16
660.869	0.16
661.198	0.15
661.528	0.15
661.857	0.15
662.187	0.15
662.516	0.15
662.846	0.14
663.175	0.14
663.504	0.14
663.833	0.15
664.163	0.14
664.492	0.13
664.821	0.15
665.15	0.14
665.479	0.14
665.807	0.14
666.136	0.15
666.465	0.15
666.794	0.14
667.122	0.15
667.451	0.15
667.78	0.15
668.108	0.15
668.437	0.15
668.765	0.16
669.093	0.15
669.422	0.15
669.75	0.15
670.078	0.15
670.406	0.15
670.734	0.15
671.062	0.14
671.39	0.14
671.718	0.14
672.046	0.15
672.374	0.14
672.702	0.15
673.029	0.13
673.357	0.14
673.685	0.15
674.012	0.14
674.34	0.13
674.667	0.14
674.995	0.14
675.322	0.15
675.649	0.14
675.977	0.15
676.304	0.14
676.631	0.14
676.958	0.14
677.285	0.13
677.612	0.13
677.939	0.13
678.266	0.13
678.593	0.13
678.92	0.13
679.246	0.13
679.573	0.13
679.9	0.13
680.226	0.13
680.553	0.13
680.879	0.14
681.206	0.13
681.532	0.14
681.858	0.13
682.184	0.13
682.511	0.14
682.837	0.13
683.163	0.13
683.489	0.13
683.815	0.14
684.141	0.13
684.467	0.14
684.793	0.13
685.118	0.13
685.444	0.13
685.77	0.13
686.095	0.13
686.421	0.13
686.746	0.13
687.072	0.13
687.397	0.13
687.723	0.13
688.048	0.13
688.373	0.13
688.698	0.13
689.023	0.12
689.349	0.12
689.674	0.13
689.999	0.12
690.323	0.12
690.648	0.12
690.973	0.11
691.298	0.12
691.623	0.12
691.947	0.12
692.272	0.11
692.596	0.12
692.921	0.13
693.245	0.12
693.57	0.13
693.894	0.13
694.218	0.13
694.543	0.12
694.867	0.13
695.191	0.12
695.515	0.13
695.839	0.12
696.163	0.12
696.487	0.12
696.811	0.12
697.135	0.13
697.458	0.12
697.782	0.12
698.106	0.13
698.429	0.12
698.753	0.12
699.076	0.12
699.4	0.12
699.723	0.12
700.046	0.12
700.37	0.12
700.693	0.13
701.016	0.12
701.339	0.12
701.662	0.13
701.985	0.12
702.308	0.12
702.631	0.12
702.954	0.12
703.277	0.12
703.599	0.11
703.922	0.11
704.245	0.11
704.567	0.11
704.89	0.11
705.212	0.11
705.535	0.1
705.857	0.1
706.179	0.11
706.502	0.1
706.824	0.1
707.146	0.11
707.468	0.11
707.79	0.1
708.112	0.11
708.434	0.11
708.756	0.11
709.078	0.11
709.399	0.11
709.721	0.1
710.043	0.1
710.364	0.11
710.686	0.11
711.007	0.11
711.329	0.12
711.65	0.11
711.972	0.11
712.293	0.12
712.614	0.11
712.935	0.12
713.256	0.11
713.577	0.12
713.898	0.11
714.219	0.11
714.54	0.1
714.861	0.1
715.182	0.11
715.503	0.1
715.823	0.11
716.144	0.1
716.464	0.1
716.785	0.1
717.105	0.09
717.426	0.1
717.746	0.1
718.066	0.09
718.387	0.1
718.707	0.09
719.027	0.1
719.347	0.09
719.667	0.09
719.987	0.09
720.307	0.09
720.627	0.09
720.947	0.1
721.266	0.1
721.586	0.09
721.906	0.1
722.225	0.08
722.545	0.09
722.864	0.09
723.184	0.09
723.503	0.1
723.823	0.1
724.142	0.09
724.461	0.1
724.78	0.09
725.099	0.09
725.418	0.09
725.737	0.09
726.056	0.09
726.375	0.1
726.694	0.09
727.013	0.1
727.331	0.09
727.65	0.09
727.969	0.09
728.287	0.09
728.606	0.09
728.924	0.09
729.242	0.09
729.561	0.09
729.879	0.09
730.197	0.09
730.515	0.08
730.834	0.09
731.152	0.09
731.47	0.09
731.788	0.09
732.105	0.08
732.423	0.09
732.741	0.09
733.059	0.09
733.376	0.1
733.694	0.08
734.012	0.09
734.329	0.09
734.647	0.09
734.964	0.1
735.281	0.09
735.599	0.09
735.916	0.1
736.233	0.1
736.55	0.09
736.867	0.09
737.184	0.1
737.501	0.09
737.818	0.09
738.135	0.09
738.452	0.09
738.768	0.1
739.085	0.09
739.402	0.08
739.718	0.09
740.035	0.09
740.351	0.08
740.668	0.09
740.984	0.08
741.3	0.08
741.617	0.09
741.933	0.08
742.249	0.08
742.565	0.09
742.881	0.1
743.197	0.09
743.513	0.08
743.829	0.08
744.144	0.08
744.46	0.08
744.776	0.09
745.091	0.08
745.407	0.08
745.722	0.09
746.038	0.08
746.353	0.07
746.669	0.09
746.984	0.08
747.299	0.07
747.614	0.08
747.93	0.08
748.245	0.07
748.56	0.07
748.875	0.08
749.189	0.07
749.504	0.08
749.819	0.07
750.134	0.07
750.448	0.07
750.763	0.08
751.078	0.06
751.392	0.07
751.707	0.08
752.021	0.08
752.335	0.08
752.65	0.08
752.964	0.07
753.278	0.08
753.592	0.08
753.906	0.07
754.22	0.08
754.534	0.08
754.848	0.08
755.162	0.08
755.476	0.08
755.789	0.08
756.103	0.07
756.417	0.08
756.73	0.07
757.044	0.08
757.357	0.08
757.671	0.08
757.984	0.08
758.297	0.08
758.61	0.08
758.924	0.09
759.237	0.07
759.55	0.07
759.863	0.07
760.176	0.08
760.488	0.07
760.801	0.07
761.114	0.07
761.427	0.07
761.739	0.08
762.052	0.07
762.365	0.07
762.677	0.07
762.99	0.06
763.302	0.07
763.614	0.07
763.926	0.07
764.239	0.07
764.551	0.07
764.863	0.07
765.175	0.07
765.487	0.07
765.799	0.07
766.111	0.06
766.423	0.07
766.734	0.08
767.046	0.06
767.358	0.07
767.669	0.06
767.981	0.07
768.292	0.07
768.604	0.07
768.915	0.07
769.226	0.06
769.537	0.06
769.849	0.07
770.16	0.06
770.471	0.07
770.782	0.06
771.093	0.07
771.404	0.06
771.715	0.06
772.025	0.06
772.336	0.07
772.647	0.06
772.957	0.06
773.268	0.06
773.578	0.07
773.889	0.07
774.199	0.07
774.51	0.07
774.82	0.06
775.13	0.07
775.44	0.06
775.75	0.08
776.06	0.07
776.37	0.07
776.68	0.07
776.99	0.07
777.3	0.07
777.61	0.08
777.92	0.07
778.229	0.07
778.539	0.06
778.848	0.07
779.158	0.07
779.467	0.07
779.777	0.07
780.086	0.07
780.395	0.06
780.704	0.06
781.013	0.05
781.323	0.06
781.632	0.06
781.941	0.07
782.249	0.06
782.558	0.05
782.867	0.07
783.176	0.05
783.485	0.06
783.793	0.07
784.102	0.06
784.41	0.06
784.719	0.06
785.027	0.06
785.335	0.06
785.644	0.07
785.952	0.06
786.26	0.06
786.568	0.06
786.876	0.05
787.184	0.06
787.492	0.06
787.8	0.06
788.108	0.06
788.416	0.06
788.723	0.06
789.031	0.06
789.338	0.06
789.646	0.06
789.953	0.07
790.261	0.06
790.568	0.06
790.876	0.06
791.183	0.07
791.49	0.06
791.797	0.06
792.104	0.06
792.411	0.07
792.718	0.06
793.025	0.06
793.332	0.07
793.639	0.06
793.945	0.08
794.252	0.06
794.559	0.06
794.865	0.07
795.172	0.07
795.478	0.07
795.784	0.07
796.091	0.06
796.397	0.06
796.703	0.07
797.009	0.07
797.315	0.07
797.622	0.07
797.927	0.07
798.233	0.06
798.539	0.07
798.845	0.07
799.151	0.08
799.456	0.07
799.762	0.07
800.068	0.08
800.373	0.07
800.679	0.07
800.984	0.07
801.289	0.07
801.595	0.07
801.9	0.07
802.205	0.06
802.51	0.07
802.815	0.07
803.12	0.07
803.425	0.07
803.73	0.06
804.035	0.07
804.339	0.06
804.644	0.06
804.949	0.07
805.253	0.05
805.558	0.07
805.862	0.06
806.167	0.06
806.471	0.05
806.775	0.07
807.08	0.06
807.384	0.07
807.688	0.06
807.992	0.06
808.296	0.06
808.6	0.07
808.904	0.06
809.207	0.06
809.511	0.07
809.815	0.07
810.119	0.07
810.422	0.08
810.726	0.07
811.029	0.07
811.332	0.07
811.636	0.07
811.939	0.07
812.242	0.07
812.546	0.07
812.849	0.07
813.152	0.08
813.455	0.07
813.758	0.07
814.06	0.07
814.363	0.08
814.666	0.07
814.969	0.07
815.271	0.07
815.574	0.07
815.877	0.07
816.179	0.07
816.481	0.06
816.784	0.06
817.086	0.06
817.388	0.06
817.69	0.06
817.993	0.05
818.295	0.05
818.597	0.05
818.899	0.05
819.2	0.06
819.502	0.05
819.804	0.05
820.106	0.05
820.407	0.05
820.709	0.05
821.01	0.05
821.312	0.05
821.613	0.05
821.915	0.05
822.216	0.05
822.517	0.04
822.818	0.04
823.119	0.04
823.42	0.05
823.721	0.04
824.022	0.04
824.323	0.05
824.624	0.05
824.925	0.06
825.226	0.05
825.526	0.05
825.827	0.05
826.127	0.04
826.428	0.05
826.728	0.04
827.028	0.04
827.329	0.05
827.629	0.03
827.929	0.03
828.229	0.04
828.529	0.05
828.829	0.04
829.129	0.04
829.429	0.04
829.729	0.04
830.029	0.03
830.328	0.04
830.628	0.03
830.927	0.03
831.227	0.04
831.526	0.04
831.826	0.04
832.125	0.05
832.424	0.03
832.724	0.04
833.023	0.04
833.322	0.04
833.621	0.04
833.92	0.03
834.219	0.03
834.518	0.03
834.816	0.03
835.115	0.03
835.414	0.03
835.712	0.02
836.011	0.02
836.309	0.03
836.608	0.02
836.906	0.01
837.205	0.01
837.503	0
837.801	0.02
838.099	0
838.397	-0
838.695	-0
838.993	0
839.291	-0.01
839.589	0
839.887	0
840.184	-0.01
840.482	-0
840.78	-0.02
841.077	-0.01
841.375	0
841.672	0
841.969	-0.01
842.267	-0
842.564	-0
842.861	0
843.158	-0.01
843.455	-0.01
843.752	-0.02
844.049	-0.02
844.346	-0.01
844.643	-0.02
844.94	-0.02
845.236	-0.01
845.533	-0.01
845.83	-0.01
846.126	-0.02
846.423	-0.01
846.719	-0.03
847.015	-0.02
847.312	-0.02
847.608	-0.03
847.904	-0.04
848.2	-0.03
848.496	-0.04
848.792	-0.02
849.088	-0.02
849.384	-0.03
849.68	-0.04
849.975	-0.03
850.271	-0.04
850.567	-0.04
850.862	-0.04
851.158	-0.05
851.453	-0.04
851.748	-0.05
852.044	-0.05
852.339	-0.05
852.634	-0.05
852.929	-0.04
853.224	-0.05
853.519	-0.05
853.814	-0.05
854.109	-0.06
854.404	-0.05
854.699	-0.06
854.994	-0.05
855.288	-0.05
855.583	-0.05
855.877	-0.06
856.172	-0.06
856.466	-0.06
856.76	-0.06
857.055	-0.06
857.349	-0.07
857.643	-0.07
857.937	-0.09
858.231	-0.08
858.525	-0.08
858.819	-0.08
859.113	-0.09
859.407	-0.09
859.701	-0.1
859.994	-0.09
860.288	-0.09
860.581	-0.1
860.875	-0.09
861.168	-0.1
861.462	-0.1
861.755	-0.1
862.048	-0.11
862.341	-0.1
862.634	-0.1
862.928	-0.11
863.221	-0.1
863.513	-0.1
863.806	-0.1
864.099	-0.11
864.392	-0.12
864.685	-0.1
864.977	-0.1
865.27	-0.11
865.562	-0.12
865.855	-0.1
866.147	-0.11
866.44	-0.11
866.732	-0.11
867.024	-0.12
867.316	-0.13
867.608	-0.12
867.9	-0.11
868.192	-0.12
868.484	-0.12
868.776	-0.13
869.068	-0.13
869.359	-0.12
869.651	-0.13
869.943	-0.14
870.234	-0.13
870.526	-0.15
870.817	-0.14
871.108	-0.12
871.4	-0.13
871.691	-0.14
871.982	-0.15
872.273	-0.15
872.564	-0.15
872.855	-0.15
873.146	-0.15
873.437	-0.15
873.728	-0.16
874.019	-0.16
874.309	-0.15
874.6	-0.14
874.89	-0.15
875.181	-0.16
875.471	-0.15
875.762	-0.16
876.052	-0.15
876.342	-0.15
876.632	-0.15
876.922	-0.16
877.213	-0.16
877.503	-0.17
877.792	-0.16
878.082	-0.18
878.372	-0.16
878.662	-0.17
878.952	-0.16
879.241	-0.16
879.531	-0.16
879.82	-0.16
880.11	-0.16
880.399	-0.17
880.688	-0.15
880.978	-0.15
881.267	-0.15
