Data from 12-12-AQDScycling_Absorbance__424__00424.txt Node

Date: Tue Dec 12 12:42:44 EST 2023
User: kyuminlee
Spectrometer: FLMS00943
Trigger mode: 0
Integration Time (sec): 1.000000E-1
Scans to average: 1
Electric dark correction enabled: true
Nonlinearity correction enabled: false
Boxcar width: 0
XAxis mode: Wavelengths
Number of Pixels in Spectrum: 2048
>>>>>Begin Spectral Data<<<<<
179.651	0.67
180.037	0.67
180.424	0.67
180.81	-0
181.197	0.21
181.583	0.69
181.97	-0.58
182.356	-0
182.743	-0.47
183.129	0.29
183.515	-0
183.901	-0
184.288	0.33
184.674	-0
185.06	-1.24
185.446	-0
185.832	-0.97
186.218	0.59
186.604	-0
186.99	-0.64
187.376	0.65
187.762	-0.38
188.148	0.24
188.534	-0.24
188.92	0.1
189.305	0.05
189.691	0.21
190.077	0.34
190.463	0.2
190.848	0.2
191.234	0.2
191.619	0.15
192.005	0.04
192.391	0.19
192.776	0.14
193.161	0.29
193.547	0.13
193.932	-0.06
194.318	0.06
194.703	0.09
195.088	0.22
195.473	0.25
195.859	0.11
196.244	0.16
196.629	0.18
197.014	0.11
197.399	0.11
197.784	0.23
198.169	0.23
198.554	0.11
198.939	0.12
199.324	0.05
199.709	0.1
200.094	0.09
200.478	0.17
200.863	0.08
201.248	0.1
201.633	0.06
202.017	0.2
202.402	0.26
202.787	0.07
203.171	0.12
203.556	0.24
203.94	0.03
204.325	0.28
204.709	0.22
205.093	0.06
205.478	0.13
205.862	-0.08
206.246	0.25
206.631	0.08
207.015	0.14
207.399	0.25
207.783	0.16
208.167	0.25
208.551	0.17
208.935	0.16
209.319	0.13
209.703	0.18
210.087	0.06
210.471	0.09
210.855	0.29
211.239	0.16
211.623	0.23
212.007	0.21
212.39	0.24
212.774	0.15
213.158	0.18
213.541	0.22
213.925	0.22
214.309	0.36
214.692	0.43
215.076	0.24
215.459	0.11
215.842	0.12
216.226	0.37
216.609	0.34
216.993	0.26
217.376	0.46
217.759	0.15
218.142	0.37
218.525	0.42
218.909	0.44
219.292	0.36
219.675	0.42
220.058	0.44
220.441	0.51
220.824	0.53
221.207	0.57
221.59	0.42
221.973	0.5
222.355	0.63
222.738	0.6
223.121	0.54
223.504	0.57
223.886	0.74
224.269	0.73
224.652	0.69
225.034	0.7
225.417	0.78
225.799	0.8
226.182	1.03
226.564	0.94
226.947	0.68
227.329	0.83
227.711	1.01
228.094	0.88
228.476	0.96
228.858	1.02
229.24	0.79
229.623	0.86
230.005	0.86
230.387	0.8
230.769	0.86
231.151	0.89
231.533	0.96
231.915	0.87
232.297	1.05
232.679	0.9
233.061	1.01
233.442	0.96
233.824	1.01
234.206	1.08
234.588	1.04
234.969	1.02
235.351	0.93
235.733	1.01
236.114	1.33
236.496	0.96
236.877	1.07
237.259	1.08
237.64	1.2
238.022	0.97
238.403	0.96
238.784	1.12
239.165	1
239.547	1.09
239.928	1.01
240.309	1.04
240.69	0.99
241.071	1
241.452	1.12
241.834	1.02
242.215	1
242.595	1.13
242.976	1.18
243.357	1.13
243.738	1.09
244.119	1.26
244.5	1.05
244.881	1.34
245.261	1.13
245.642	1.15
246.023	1.13
246.403	1.16
246.784	1.16
247.164	1.27
247.545	1.28
247.925	1.33
248.306	1.26
248.686	1.36
249.067	1.22
249.447	1.38
249.827	1.5
250.207	1.49
250.588	1.4
250.968	1.4
251.348	1.29
251.728	1.48
252.108	1.39
252.488	1.42
252.868	1.22
253.248	1.27
253.628	1.35
254.008	1.34
254.388	1.29
254.768	1.42
255.147	1.26
255.527	1.39
255.907	1.32
256.287	1.42
256.666	1.42
257.046	1.43
257.425	1.47
257.805	1.37
258.184	1.38
258.564	1.45
258.943	1.29
259.323	1.54
259.702	1.46
260.081	1.48
260.461	1.5
260.84	1.45
261.219	1.9
261.598	1.52
261.977	1.41
262.356	1.54
262.736	1.49
263.115	1.74
263.494	1.38
263.873	1.42
264.251	1.46
264.63	1.47
265.009	1.45
265.388	1.42
265.767	1.38
266.145	1.36
266.524	1.35
266.903	1.39
267.281	1.46
267.66	1.53
268.039	1.45
268.417	1.29
268.796	1.28
269.174	1.45
269.552	1.33
269.931	1.36
270.309	1.55
270.687	1.48
271.066	1.59
271.444	1.38
271.822	1.43
272.2	1.41
272.578	1.38
272.956	1.46
273.334	1.36
273.712	1.37
274.09	1.34
274.468	1.44
274.846	1.2
275.224	1.33
275.602	1.53
275.98	1.62
276.357	1.57
276.735	1.41
277.113	1.43
277.49	1.42
277.868	1.24
278.246	1.32
278.623	1.26
279.001	1.31
279.378	1.44
279.756	1.46
280.133	1.55
280.51	1.56
280.888	1.4
281.265	1.37
281.642	1.46
282.019	1.45
282.396	1.64
282.773	1.52
283.151	1.69
283.528	1.45
283.905	1.37
284.282	1.52
284.659	1.5
285.035	1.39
285.412	1.35
285.789	1.56
286.166	1.39
286.543	1.51
286.919	1.5
287.296	1.39
287.673	1.69
288.049	1.46
288.426	1.47
288.802	1.54
289.179	1.49
289.555	1.59
289.932	1.55
290.308	1.25
290.684	1.35
291.061	1.38
291.437	1.67
291.813	1.3
292.189	1.28
292.565	1.34
292.942	1.32
293.318	1.39
293.694	1.35
294.07	1.29
294.446	1.46
294.822	1.61
295.197	1.42
295.573	1.51
295.949	1.4
296.325	1.6
296.701	1.47
297.076	1.71
297.452	1.59
297.828	1.44
298.203	1.59
298.579	1.38
298.954	1.54
299.33	1.39
299.705	1.51
300.081	1.63
300.456	1.45
300.831	1.46
301.206	1.43
301.582	1.54
301.957	1.46
302.332	1.49
302.707	1.42
303.082	1.38
303.457	1.4
303.832	1.49
304.207	1.42
304.582	1.39
304.957	1.46
305.332	1.6
305.707	1.44
306.082	1.43
306.456	1.53
306.831	1.4
307.206	1.52
307.58	1.5
307.955	1.34
308.33	1.42
308.704	1.47
309.079	1.36
309.453	1.52
309.828	1.51
310.202	1.36
310.576	1.36
310.951	1.46
311.325	1.61
311.699	1.48
312.073	1.4
312.447	1.43
312.821	1.28
313.196	1.39
313.57	1.27
313.944	1.32
314.317	1.29
314.691	1.47
315.065	1.52
315.439	1.43
315.813	1.38
316.187	1.31
316.56	1.55
316.934	1.42
317.308	1.4
317.681	1.49
318.055	1.4
318.428	1.42
318.802	1.46
319.175	1.45
319.549	1.45
319.922	1.37
320.295	1.37
320.669	1.51
321.042	1.46
321.415	1.55
321.788	1.43
322.162	1.4
322.535	1.54
322.908	1.55
323.281	1.4
323.654	1.58
324.027	1.45
324.4	1.65
324.773	1.61
325.145	1.54
325.518	1.42
325.891	1.48
326.264	1.53
326.636	1.51
327.009	1.56
327.382	1.53
327.754	1.61
328.127	1.42
328.499	1.43
328.872	1.5
329.244	1.43
329.616	1.42
329.989	1.37
330.361	1.44
330.733	1.31
331.106	1.34
331.478	1.59
331.85	1.45
332.222	1.43
332.594	1.46
332.966	1.55
333.338	1.5
333.71	1.42
334.082	1.59
334.454	1.49
334.826	1.4
335.197	1.45
335.569	1.39
335.941	1.4
336.312	1.43
336.684	1.42
337.056	1.45
337.427	1.57
337.799	1.46
338.17	1.52
338.542	1.53
338.913	1.53
339.284	1.56
339.656	1.42
340.027	1.6
340.398	1.52
340.769	1.4
341.141	1.62
341.512	1.44
341.883	1.53
342.254	1.46
342.625	1.44
342.996	1.42
343.367	1.44
343.738	1.6
344.108	1.38
344.479	1.53
344.85	1.37
345.221	1.55
345.591	1.36
345.962	1.4
346.333	1.4
346.703	1.26
347.074	1.47
347.444	1.21
347.815	1.37
348.185	1.41
348.556	1.39
348.926	1.37
349.296	1.36
349.666	1.28
350.037	1.22
350.407	1.17
350.777	1.41
351.147	1.35
351.517	1.35
351.887	1.31
352.257	1.44
352.627	1.32
352.997	1.25
353.367	1.28
353.737	1.52
354.106	1.42
354.476	1.32
354.846	1.38
355.216	1.39
355.585	1.4
355.955	1.43
356.324	1.35
356.694	1.31
357.063	1.37
357.433	1.29
357.802	1.33
358.171	1.31
358.541	1.27
358.91	1.35
359.279	1.35
359.648	1.35
360.017	1.31
360.387	1.3
360.756	1.29
361.125	1.37
361.494	1.36
361.863	1.35
362.231	1.24
362.6	1.26
362.969	1.36
363.338	1.21
363.707	1.28
364.075	1.3
364.444	1.19
364.813	1.24
365.181	1.24
365.55	1.26
365.918	1.37
366.287	1.32
366.655	1.41
367.024	1.31
367.392	1.32
367.76	1.25
368.128	1.27
368.497	1.29
368.865	1.29
369.233	1.28
369.601	1.28
369.969	1.27
370.337	1.26
370.705	1.22
371.073	1.21
371.441	1.36
371.809	1.23
372.177	1.24
372.544	1.32
372.912	1.35
373.28	1.39
373.647	1.34
374.015	1.31
374.383	1.35
374.75	1.39
375.118	1.3
375.485	1.33
375.853	1.4
376.22	1.34
376.587	1.34
376.955	1.43
377.322	1.32
377.689	1.27
378.056	1.26
378.423	1.29
378.79	1.29
379.157	1.37
379.524	1.37
379.891	1.3
380.258	1.44
380.625	1.3
380.992	1.33
381.359	1.42
381.726	1.45
382.092	1.41
382.459	1.39
382.826	1.35
383.192	1.57
383.559	1.54
383.925	1.37
384.292	1.27
384.658	1.44
385.025	1.42
385.391	1.43
385.757	1.52
386.123	1.47
386.49	1.44
386.856	1.49
387.222	1.54
387.588	1.51
387.954	1.69
388.32	1.62
388.686	1.48
389.052	1.48
389.418	1.5
389.784	1.38
390.15	1.5
390.515	1.32
390.881	1.48
391.247	1.37
391.613	1.48
391.978	1.44
392.344	1.61
392.709	1.45
393.075	1.47
393.44	1.53
393.806	1.45
394.171	1.45
394.536	1.46
394.902	1.44
395.267	1.38
395.632	1.38
395.997	1.43
396.362	1.4
396.727	1.45
397.092	1.55
397.457	1.4
397.822	1.38
398.187	1.47
398.552	1.36
398.917	1.52
399.282	1.42
399.646	1.33
400.011	1.44
400.376	1.33
400.74	1.37
401.105	1.36
401.47	1.52
401.834	1.34
402.199	1.36
402.563	1.36
402.927	1.34
403.292	1.5
403.656	1.4
404.02	1.36
404.384	1.42
404.749	1.38
405.113	1.41
405.477	1.37
405.841	1.31
406.205	1.38
406.569	1.27
406.933	1.37
407.296	1.32
407.66	1.32
408.024	1.26
408.388	1.31
408.752	1.26
409.115	1.33
409.479	1.25
409.842	1.23
410.206	1.26
410.569	1.18
410.933	1.26
411.296	1.16
411.66	1.21
412.023	1.16
412.386	1.23
412.749	1.17
413.113	1.24
413.476	1.16
413.839	1.11
414.202	1.13
414.565	1.17
414.928	1.14
415.291	1.19
415.654	1.15
416.017	1.15
416.38	1.16
416.742	1.2
417.105	1.15
417.468	1.12
417.83	1.13
418.193	1.15
418.556	1.1
418.918	1.09
419.281	1.07
419.643	1.12
420.005	1.12
420.368	1.16
420.73	1.11
421.092	1.14
421.455	1.13
421.817	1.08
422.179	1.1
422.541	1.13
422.903	1.14
423.265	1.11
423.627	1.12
423.989	1.09
424.351	1.06
424.713	1.07
425.075	1.04
425.436	1.04
425.798	1.08
426.16	1.16
426.521	1.11
426.883	1.07
427.245	1.08
427.606	1.03
427.967	1.04
428.329	1.01
428.69	1.03
429.052	1.04
429.413	1.11
429.774	1.06
430.135	1.05
430.497	1.09
430.858	1.02
431.219	1.04
431.58	1.01
431.941	1.03
432.302	1.01
432.663	1
433.024	1.05
433.384	1.05
433.745	0.99
434.106	0.99
434.467	1.02
434.827	0.99
435.188	1
435.548	1.03
435.909	0.95
436.269	1
436.63	0.97
436.99	0.98
437.351	0.96
437.711	0.97
438.071	0.97
438.431	0.98
438.792	0.96
439.152	0.95
439.512	0.94
439.872	0.92
440.232	0.95
440.592	0.91
440.952	0.93
441.312	0.91
441.671	0.92
442.031	0.91
442.391	0.91
442.751	0.9
443.11	0.9
443.47	0.88
443.83	0.86
444.189	0.84
444.549	0.88
444.908	0.85
445.267	0.85
445.627	0.84
445.986	0.83
446.345	0.83
446.705	0.86
447.064	0.85
447.423	0.82
447.782	0.83
448.141	0.82
448.5	0.8
448.859	0.82
449.218	0.82
449.577	0.82
449.936	0.81
450.295	0.81
450.653	0.79
451.012	0.78
451.371	0.8
451.729	0.77
452.088	0.76
452.447	0.77
452.805	0.76
453.163	0.76
453.522	0.76
453.88	0.75
454.239	0.74
454.597	0.71
454.955	0.73
455.313	0.72
455.671	0.72
456.029	0.71
456.388	0.69
456.746	0.7
457.104	0.67
457.461	0.68
457.819	0.67
458.177	0.65
458.535	0.65
458.893	0.64
459.25	0.65
459.608	0.63
459.966	0.62
460.323	0.61
460.681	0.61
461.038	0.61
461.396	0.59
461.753	0.59
462.111	0.6
462.468	0.57
462.825	0.56
463.182	0.58
463.54	0.55
463.897	0.56
464.254	0.54
464.611	0.55
464.968	0.54
465.325	0.53
465.682	0.53
466.039	0.52
466.395	0.5
466.752	0.5
467.109	0.49
467.466	0.5
467.822	0.49
468.179	0.49
468.535	0.48
468.892	0.47
469.248	0.47
469.605	0.45
469.961	0.45
470.318	0.45
470.674	0.45
471.03	0.44
471.386	0.44
471.743	0.42
472.099	0.43
472.455	0.43
472.811	0.41
473.167	0.41
473.523	0.4
473.879	0.39
474.235	0.4
474.59	0.38
474.946	0.38
475.302	0.37
475.657	0.37
476.013	0.36
476.369	0.35
476.724	0.36
477.08	0.35
477.435	0.35
477.791	0.34
478.146	0.35
478.501	0.33
478.857	0.34
479.212	0.32
479.567	0.32
479.922	0.32
480.277	0.31
480.632	0.31
480.987	0.31
481.342	0.3
481.697	0.3
482.052	0.3
482.407	0.29
482.762	0.28
483.116	0.28
483.471	0.27
483.826	0.27
484.18	0.27
484.535	0.27
484.89	0.26
485.244	0.26
485.598	0.26
485.953	0.26
486.307	0.25
486.661	0.25
487.016	0.25
487.37	0.25
487.724	0.24
488.078	0.24
488.432	0.24
488.786	0.24
489.14	0.24
489.494	0.23
489.848	0.22
490.202	0.22
490.556	0.22
490.91	0.22
491.263	0.22
491.617	0.21
491.971	0.21
492.324	0.21
492.678	0.21
493.031	0.21
493.385	0.21
493.738	0.21
494.091	0.21
494.445	0.2
494.798	0.2
495.151	0.2
495.504	0.2
495.857	0.19
496.21	0.19
496.564	0.19
496.916	0.19
497.269	0.19
497.622	0.19
497.975	0.19
498.328	0.19
498.681	0.19
499.033	0.19
499.386	0.18
499.739	0.19
500.091	0.18
500.444	0.18
500.796	0.18
501.149	0.18
501.501	0.18
501.854	0.18
502.206	0.17
502.558	0.18
502.91	0.18
503.263	0.17
503.615	0.17
503.967	0.17
504.319	0.17
504.671	0.17
505.023	0.17
505.375	0.17
505.726	0.16
506.078	0.17
506.43	0.17
506.782	0.16
507.133	0.16
507.485	0.16
507.837	0.18
508.188	0.17
508.54	0.17
508.891	0.17
509.243	0.17
509.594	0.17
509.945	0.17
510.296	0.16
510.648	0.16
510.999	0.16
511.35	0.16
511.701	0.16
512.052	0.17
512.403	0.16
512.754	0.16
513.105	0.16
513.456	0.16
513.807	0.16
514.157	0.16
514.508	0.16
514.859	0.16
515.209	0.16
515.56	0.16
515.91	0.17
516.261	0.17
516.611	0.15
516.962	0.17
517.312	0.16
517.662	0.16
518.013	0.16
518.363	0.17
518.713	0.16
519.063	0.17
519.413	0.17
519.763	0.16
520.113	0.16
520.463	0.16
520.813	0.17
521.163	0.17
521.512	0.16
521.862	0.16
522.212	0.16
522.562	0.17
522.911	0.16
523.261	0.16
523.61	0.16
523.96	0.16
524.309	0.17
524.658	0.17
525.008	0.16
525.357	0.17
525.706	0.17
526.056	0.16
526.405	0.16
526.754	0.16
527.103	0.16
527.452	0.16
527.801	0.17
528.15	0.17
528.499	0.16
528.847	0.17
529.196	0.18
529.545	0.17
529.893	0.17
530.242	0.17
530.591	0.17
530.939	0.18
531.288	0.17
531.636	0.17
531.985	0.17
532.333	0.17
532.681	0.17
533.029	0.17
533.378	0.18
533.726	0.18
534.074	0.18
534.422	0.17
534.77	0.17
535.118	0.17
535.466	0.17
535.814	0.17
536.162	0.17
536.509	0.18
536.857	0.17
537.205	0.18
537.552	0.17
537.9	0.17
538.248	0.17
538.595	0.17
538.943	0.18
539.29	0.18
539.637	0.17
539.985	0.17
540.332	0.18
540.679	0.18
541.026	0.17
541.373	0.18
541.721	0.17
542.068	0.17
542.415	0.17
542.762	0.17
543.108	0.17
543.455	0.16
543.802	0.17
544.149	0.16
544.496	0.17
544.842	0.16
545.189	0.16
545.535	0.16
545.882	0.17
546.228	0.17
546.575	0.16
546.921	0.16
547.267	0.16
547.614	0.17
547.96	0.16
548.306	0.17
548.652	0.17
548.998	0.17
549.344	0.17
549.69	0.17
550.036	0.16
550.382	0.17
550.728	0.17
551.074	0.18
551.42	0.17
551.765	0.17
552.111	0.18
552.457	0.17
552.802	0.17
553.148	0.17
553.493	0.17
553.839	0.17
554.184	0.18
554.529	0.16
554.875	0.17
555.22	0.17
555.565	0.18
555.91	0.18
556.255	0.18
556.6	0.18
556.945	0.17
557.29	0.17
557.635	0.18
557.98	0.17
558.325	0.17
558.67	0.17
559.014	0.17
559.359	0.18
559.704	0.17
560.048	0.17
560.393	0.18
560.737	0.16
561.082	0.18
561.426	0.16
561.77	0.17
562.115	0.17
562.459	0.17
562.803	0.17
563.147	0.17
563.491	0.18
563.835	0.18
564.179	0.17
564.523	0.17
564.867	0.17
565.211	0.18
565.555	0.17
565.899	0.18
566.242	0.17
566.586	0.17
566.93	0.17
567.273	0.18
567.617	0.18
567.96	0.18
568.304	0.19
568.647	0.18
568.99	0.18
569.334	0.19
569.677	0.17
570.02	0.18
570.363	0.18
570.706	0.18
571.049	0.18
571.392	0.18
571.735	0.17
572.078	0.18
572.421	0.18
572.764	0.18
573.106	0.18
573.449	0.16
573.792	0.18
574.134	0.17
574.477	0.18
574.819	0.18
575.162	0.17
575.504	0.17
575.847	0.18
576.189	0.18
576.531	0.17
576.873	0.18
577.215	0.18
577.558	0.18
577.9	0.17
578.242	0.18
578.584	0.18
578.926	0.18
579.267	0.18
579.609	0.17
579.951	0.18
580.293	0.17
580.634	0.18
580.976	0.19
581.318	0.17
581.659	0.17
582.001	0.18
582.342	0.17
582.683	0.18
583.025	0.17
583.366	0.17
583.707	0.18
584.049	0.17
584.39	0.18
584.731	0.17
585.072	0.17
585.413	0.18
585.754	0.17
586.095	0.18
586.435	0.18
586.776	0.18
587.117	0.17
587.458	0.18
587.798	0.17
588.139	0.18
588.48	0.17
588.82	0.18
589.161	0.17
589.501	0.18
589.841	0.17
590.182	0.17
590.522	0.17
590.862	0.18
591.202	0.17
591.542	0.17
591.882	0.17
592.222	0.17
592.562	0.17
592.902	0.18
593.242	0.17
593.582	0.17
593.922	0.17
594.261	0.17
594.601	0.17
594.941	0.17
595.28	0.18
595.62	0.17
595.959	0.17
596.299	0.18
596.638	0.17
596.977	0.17
597.317	0.19
597.656	0.18
597.995	0.18
598.334	0.18
598.673	0.17
599.012	0.17
599.351	0.18
599.69	0.17
600.029	0.18
600.368	0.18
600.707	0.18
601.046	0.18
601.384	0.18
601.723	0.18
602.061	0.18
602.4	0.17
602.738	0.18
603.077	0.17
603.415	0.17
603.754	0.17
604.092	0.18
604.43	0.18
604.768	0.17
605.107	0.17
605.445	0.17
605.783	0.17
606.121	0.16
606.459	0.17
606.796	0.17
607.134	0.16
607.472	0.16
607.81	0.17
608.148	0.17
608.485	0.17
608.823	0.17
609.16	0.17
609.498	0.17
609.835	0.17
610.173	0.17
610.51	0.17
610.847	0.17
611.185	0.18
611.522	0.18
611.859	0.18
612.196	0.17
612.533	0.19
612.87	0.17
613.207	0.18
613.544	0.18
613.881	0.18
614.217	0.18
614.554	0.18
614.891	0.18
615.228	0.17
615.564	0.18
615.901	0.19
616.237	0.18
616.574	0.17
616.91	0.18
617.246	0.18
617.583	0.18
617.919	0.18
618.255	0.18
618.591	0.18
618.927	0.18
619.263	0.18
619.599	0.18
619.935	0.18
620.271	0.18
620.607	0.18
620.943	0.17
621.279	0.19
621.614	0.17
621.95	0.18
622.286	0.17
622.621	0.17
622.957	0.17
623.292	0.17
623.627	0.17
623.963	0.16
624.298	0.17
624.633	0.16
624.968	0.16
625.304	0.17
625.639	0.16
625.974	0.16
626.309	0.15
626.644	0.16
626.979	0.16
627.313	0.16
627.648	0.16
627.983	0.17
628.318	0.16
628.652	0.16
628.987	0.16
629.321	0.16
629.656	0.16
629.99	0.15
630.325	0.15
630.659	0.16
630.993	0.15
631.327	0.16
631.662	0.15
631.996	0.15
632.33	0.16
632.664	0.15
632.998	0.16
633.332	0.16
633.666	0.15
633.999	0.15
634.333	0.15
634.667	0.15
635.001	0.14
635.334	0.15
635.668	0.15
636.001	0.15
636.335	0.15
636.668	0.15
637.001	0.14
637.335	0.15
637.668	0.15
638.001	0.15
638.334	0.15
638.668	0.14
639.001	0.15
639.334	0.15
639.667	0.14
639.999	0.15
640.332	0.15
640.665	0.14
640.998	0.15
641.331	0.15
641.663	0.13
641.996	0.14
642.328	0.14
642.661	0.14
642.993	0.14
643.326	0.15
643.658	0.14
643.99	0.14
644.323	0.14
644.655	0.14
644.987	0.14
645.319	0.14
645.651	0.14
645.983	0.14
646.315	0.14
646.647	0.14
646.979	0.14
647.31	0.14
647.642	0.15
647.974	0.14
648.305	0.15
648.637	0.14
648.968	0.15
649.3	0.14
649.631	0.15
649.963	0.15
650.294	0.14
650.625	0.15
650.957	0.15
651.288	0.15
651.619	0.14
651.95	0.14
652.281	0.14
652.612	0.14
652.943	0.14
653.274	0.15
653.604	0.14
653.935	0.14
654.266	0.14
654.596	0.14
654.927	0.14
655.258	0.15
655.588	0.14
655.918	0.15
656.249	0.13
656.579	0.14
656.909	0.14
657.24	0.14
657.57	0.14
657.9	0.14
658.23	0.15
658.56	0.15
658.89	0.15
659.22	0.14
659.55	0.15
659.88	0.15
660.209	0.14
660.539	0.15
660.869	0.15
661.198	0.15
661.528	0.15
661.857	0.14
662.187	0.15
662.516	0.14
662.846	0.14
663.175	0.14
663.504	0.14
663.833	0.13
664.163	0.14
664.492	0.14
664.821	0.14
665.15	0.14
665.479	0.14
665.807	0.14
666.136	0.14
666.465	0.14
666.794	0.14
667.122	0.14
667.451	0.13
667.78	0.14
668.108	0.14
668.437	0.14
668.765	0.13
669.093	0.14
669.422	0.14
669.75	0.13
670.078	0.13
670.406	0.13
670.734	0.14
671.062	0.14
671.39	0.13
671.718	0.14
672.046	0.13
672.374	0.13
672.702	0.13
673.029	0.13
673.357	0.14
673.685	0.13
674.012	0.13
674.34	0.13
674.667	0.14
674.995	0.13
675.322	0.13
675.649	0.13
675.977	0.13
676.304	0.13
676.631	0.13
676.958	0.13
677.285	0.12
677.612	0.13
677.939	0.13
678.266	0.13
678.593	0.13
678.92	0.13
679.246	0.13
679.573	0.12
679.9	0.12
680.226	0.13
680.553	0.13
680.879	0.12
681.206	0.13
681.532	0.13
681.858	0.13
682.184	0.12
682.511	0.13
682.837	0.12
683.163	0.13
683.489	0.12
683.815	0.12
684.141	0.13
684.467	0.12
684.793	0.12
685.118	0.12
685.444	0.12
685.77	0.11
686.095	0.11
686.421	0.12
686.746	0.12
687.072	0.12
687.397	0.12
687.723	0.12
688.048	0.13
688.373	0.12
688.698	0.13
689.023	0.13
689.349	0.13
689.674	0.13
689.999	0.12
690.323	0.11
690.648	0.12
690.973	0.12
691.298	0.12
691.623	0.11
691.947	0.12
692.272	0.12
692.596	0.12
692.921	0.12
693.245	0.12
693.57	0.12
693.894	0.12
694.218	0.12
694.543	0.11
694.867	0.11
695.191	0.1
695.515	0.11
695.839	0.11
696.163	0.11
696.487	0.11
696.811	0.11
697.135	0.11
697.458	0.12
697.782	0.11
698.106	0.12
698.429	0.12
698.753	0.11
699.076	0.11
699.4	0.11
699.723	0.11
700.046	0.11
700.37	0.11
700.693	0.11
701.016	0.11
701.339	0.11
701.662	0.11
701.985	0.12
702.308	0.11
702.631	0.11
702.954	0.12
703.277	0.11
703.599	0.11
703.922	0.11
704.245	0.1
704.567	0.1
704.89	0.1
705.212	0.1
705.535	0.1
705.857	0.1
706.179	0.09
706.502	0.09
706.824	0.09
707.146	0.09
707.468	0.1
707.79	0.1
708.112	0.1
708.434	0.1
708.756	0.09
709.078	0.1
709.399	0.1
709.721	0.09
710.043	0.1
710.364	0.1
710.686	0.1
711.007	0.1
711.329	0.11
711.65	0.1
711.972	0.1
712.293	0.11
712.614	0.11
712.935	0.11
713.256	0.1
713.577	0.1
713.898	0.1
714.219	0.1
714.54	0.1
714.861	0.09
715.182	0.1
715.503	0.09
715.823	0.09
716.144	0.09
716.464	0.09
716.785	0.09
717.105	0.09
717.426	0.09
717.746	0.09
718.066	0.08
718.387	0.09
718.707	0.07
719.027	0.09
719.347	0.08
719.667	0.09
719.987	0.08
720.307	0.07
720.627	0.08
720.947	0.08
721.266	0.08
721.586	0.08
721.906	0.08
722.225	0.08
722.545	0.08
722.864	0.08
723.184	0.09
723.503	0.08
723.823	0.09
724.142	0.08
724.461	0.08
724.78	0.08
725.099	0.08
725.418	0.08
725.737	0.07
726.056	0.08
726.375	0.08
726.694	0.08
727.013	0.07
727.331	0.07
727.65	0.07
727.969	0.08
728.287	0.08
728.606	0.08
728.924	0.08
729.242	0.08
729.561	0.08
729.879	0.08
730.197	0.08
730.515	0.07
730.834	0.08
731.152	0.08
731.47	0.08
731.788	0.08
732.105	0.08
732.423	0.07
732.741	0.08
733.059	0.08
733.376	0.09
733.694	0.07
734.012	0.08
734.329	0.08
734.647	0.08
734.964	0.09
735.281	0.09
735.599	0.08
735.916	0.08
736.233	0.08
736.55	0.08
736.867	0.08
737.184	0.08
737.501	0.07
737.818	0.09
738.135	0.08
738.452	0.08
738.768	0.08
739.085	0.08
739.402	0.07
739.718	0.07
740.035	0.07
740.351	0.08
740.668	0.08
740.984	0.08
741.3	0.08
741.617	0.08
741.933	0.07
742.249	0.08
742.565	0.07
742.881	0.08
743.197	0.08
743.513	0.07
743.829	0.08
744.144	0.07
744.46	0.07
744.776	0.07
745.091	0.07
745.407	0.07
745.722	0.07
746.038	0.07
746.353	0.06
746.669	0.07
746.984	0.06
747.299	0.07
747.614	0.07
747.93	0.07
748.245	0.06
748.56	0.07
748.875	0.06
749.189	0.07
749.504	0.06
749.819	0.07
750.134	0.07
750.448	0.07
750.763	0.07
751.078	0.06
751.392	0.07
751.707	0.08
752.021	0.07
752.335	0.08
752.65	0.07
752.964	0.08
753.278	0.07
753.592	0.07
753.906	0.07
754.22	0.07
754.534	0.07
754.848	0.07
755.162	0.07
755.476	0.07
755.789	0.08
756.103	0.07
756.417	0.07
756.73	0.07
757.044	0.08
757.357	0.07
757.671	0.08
757.984	0.07
758.297	0.08
758.61	0.08
758.924	0.07
759.237	0.07
759.55	0.08
759.863	0.07
760.176	0.07
760.488	0.07
760.801	0.07
761.114	0.07
761.427	0.07
761.739	0.07
762.052	0.07
762.365	0.07
762.677	0.07
762.99	0.06
763.302	0.06
763.614	0.06
763.926	0.07
764.239	0.06
764.551	0.06
764.863	0.06
765.175	0.06
765.487	0.06
765.799	0.05
766.111	0.05
766.423	0.06
766.734	0.06
767.046	0.06
767.358	0.06
767.669	0.06
767.981	0.06
768.292	0.06
768.604	0.06
768.915	0.06
769.226	0.06
769.537	0.05
769.849	0.06
770.16	0.06
770.471	0.05
770.782	0.06
771.093	0.05
771.404	0.04
771.715	0.05
772.025	0.05
772.336	0.05
772.647	0.05
772.957	0.05
773.268	0.05
773.578	0.06
773.889	0.06
774.199	0.07
774.51	0.06
774.82	0.05
775.13	0.06
775.44	0.06
775.75	0.06
776.06	0.06
776.37	0.05
776.68	0.05
776.99	0.06
777.3	0.06
777.61	0.07
777.92	0.06
778.229	0.06
778.539	0.05
778.848	0.05
779.158	0.07
779.467	0.06
779.777	0.06
780.086	0.06
780.395	0.06
780.704	0.05
781.013	0.05
781.323	0.05
781.632	0.05
781.941	0.05
782.249	0.06
782.558	0.05
782.867	0.06
783.176	0.05
783.485	0.05
783.793	0.05
784.102	0.05
784.41	0.05
784.719	0.05
785.027	0.05
785.335	0.04
785.644	0.05
785.952	0.05
786.26	0.04
786.568	0.04
786.876	0.04
787.184	0.05
787.492	0.05
787.8	0.05
788.108	0.05
788.416	0.05
788.723	0.05
789.031	0.04
789.338	0.05
789.646	0.05
789.953	0.05
790.261	0.05
790.568	0.05
790.876	0.05
791.183	0.06
791.49	0.06
791.797	0.05
792.104	0.05
792.411	0.06
792.718	0.05
793.025	0.06
793.332	0.06
793.639	0.06
793.945	0.06
794.252	0.05
794.559	0.05
794.865	0.06
795.172	0.06
795.478	0.05
795.784	0.06
796.091	0.06
796.397	0.06
796.703	0.06
797.009	0.08
797.315	0.06
797.622	0.06
797.927	0.06
798.233	0.06
798.539	0.07
798.845	0.07
799.151	0.06
799.456	0.07
799.762	0.06
800.068	0.06
800.373	0.06
800.679	0.06
800.984	0.06
801.289	0.06
801.595	0.06
801.9	0.05
802.205	0.05
802.51	0.06
802.815	0.06
803.12	0.06
803.425	0.06
803.73	0.05
804.035	0.05
804.339	0.05
804.644	0.05
804.949	0.05
805.253	0.05
805.558	0.05
805.862	0.05
806.167	0.05
806.471	0.05
806.775	0.05
807.08	0.04
807.384	0.05
807.688	0.06
807.992	0.06
808.296	0.05
808.6	0.05
808.904	0.06
809.207	0.05
809.511	0.06
809.815	0.06
810.119	0.06
810.422	0.06
810.726	0.07
811.029	0.07
811.332	0.07
811.636	0.07
811.939	0.06
812.242	0.07
812.546	0.07
812.849	0.07
813.152	0.07
813.455	0.07
813.758	0.07
814.06	0.07
814.363	0.07
814.666	0.07
814.969	0.07
815.271	0.07
815.574	0.06
815.877	0.06
816.179	0.06
816.481	0.06
816.784	0.06
817.086	0.06
817.388	0.05
817.69	0.05
817.993	0.05
818.295	0.05
818.597	0.05
818.899	0.04
819.2	0.05
819.502	0.05
819.804	0.05
820.106	0.04
820.407	0.04
820.709	0.05
821.01	0.04
821.312	0.05
821.613	0.04
821.915	0.05
822.216	0.03
822.517	0.03
822.818	0.04
823.119	0.05
823.42	0.05
823.721	0.04
824.022	0.04
824.323	0.04
824.624	0.04
824.925	0.04
825.226	0.05
825.526	0.03
825.827	0.04
826.127	0.04
826.428	0.04
826.728	0.04
827.028	0.03
827.329	0.04
827.629	0.03
827.929	0.04
828.229	0.05
828.529	0.05
828.829	0.04
829.129	0.04
829.429	0.04
829.729	0.03
830.029	0.03
830.328	0.04
830.628	0.03
830.927	0.03
831.227	0.03
831.526	0.03
831.826	0.03
832.125	0.03
832.424	0.03
832.724	0.03
833.023	0.02
833.322	0.03
833.621	0.03
833.92	0.02
834.219	0.02
834.518	0.02
834.816	0.02
835.115	0.02
835.414	0.02
835.712	0.02
836.011	0.02
836.309	0.02
836.608	0.01
836.906	0.02
837.205	0
837.503	0
837.801	0.01
838.099	-0
838.397	-0.01
838.695	0
838.993	-0
839.291	-0
839.589	0
839.887	-0
840.184	-0
840.482	-0
840.78	-0
841.077	-0.01
841.375	-0.01
841.672	-0.01
841.969	-0.01
842.267	-0
842.564	-0.01
842.861	0.01
843.158	-0.01
843.455	-0.03
843.752	-0.02
844.049	-0.02
844.346	-0.02
844.643	-0.03
844.94	-0.02
845.236	-0.02
845.533	-0.02
845.83	-0.03
846.126	-0.03
846.423	-0.03
846.719	-0.04
847.015	-0.04
847.312	-0.04
847.608	-0.04
847.904	-0.05
848.2	-0.05
848.496	-0.04
848.792	-0.05
849.088	-0.03
849.384	-0.04
849.68	-0.05
849.975	-0.04
850.271	-0.05
850.567	-0.05
850.862	-0.05
851.158	-0.05
851.453	-0.06
851.748	-0.07
852.044	-0.06
852.339	-0.06
852.634	-0.08
852.929	-0.05
853.224	-0.06
853.519	-0.07
853.814	-0.06
854.109	-0.08
854.404	-0.07
854.699	-0.07
854.994	-0.07
855.288	-0.07
855.583	-0.06
855.877	-0.08
856.172	-0.07
856.466	-0.08
856.76	-0.08
857.055	-0.08
857.349	-0.09
857.643	-0.09
857.937	-0.1
858.231	-0.09
858.525	-0.09
858.819	-0.09
859.113	-0.11
859.407	-0.1
859.701	-0.1
859.994	-0.11
860.288	-0.09
860.581	-0.1
860.875	-0.11
861.168	-0.11
861.462	-0.1
861.755	-0.09
862.048	-0.1
862.341	-0.1
862.634	-0.1
862.928	-0.1
863.221	-0.1
863.513	-0.11
863.806	-0.11
864.099	-0.11
864.392	-0.11
864.685	-0.11
864.977	-0.11
865.27	-0.11
865.562	-0.11
865.855	-0.11
866.147	-0.12
866.44	-0.12
866.732	-0.13
867.024	-0.12
867.316	-0.12
867.608	-0.13
867.9	-0.13
868.192	-0.13
868.484	-0.13
868.776	-0.13
869.068	-0.13
869.359	-0.13
869.651	-0.14
869.943	-0.15
870.234	-0.14
870.526	-0.15
870.817	-0.15
871.108	-0.14
871.4	-0.14
871.691	-0.15
871.982	-0.17
872.273	-0.17
872.564	-0.16
872.855	-0.16
873.146	-0.17
873.437	-0.16
873.728	-0.17
874.019	-0.16
874.309	-0.17
874.6	-0.16
874.89	-0.17
875.181	-0.17
875.471	-0.15
875.762	-0.16
876.052	-0.16
876.342	-0.15
876.632	-0.16
876.922	-0.17
877.213	-0.16
877.503	-0.18
877.792	-0.16
878.082	-0.17
878.372	-0.16
878.662	-0.18
878.952	-0.17
879.241	-0.17
879.531	-0.17
879.82	-0.17
880.11	-0.17
880.399	-0.16
880.688	-0.15
880.978	-0.15
881.267	-0.15
