Data from 12-12-AQDScycling_Absorbance__556__00556.txt Node

Date: Tue Dec 12 13:15:44 EST 2023
User: kyuminlee
Spectrometer: FLMS00943
Trigger mode: 0
Integration Time (sec): 1.000000E-1
Scans to average: 1
Electric dark correction enabled: true
Nonlinearity correction enabled: false
Boxcar width: 0
XAxis mode: Wavelengths
Number of Pixels in Spectrum: 2048
>>>>>Begin Spectral Data<<<<<
179.651	-0.07
180.037	-0.07
180.424	-0.07
180.81	-0.22
181.197	0.12
181.583	-0.05
181.97	-0.3
182.356	-0
182.743	-0
183.129	0.4
183.515	-0
183.901	-2.1
184.288	-0
184.674	-0
185.06	-0
185.446	-0
185.832	-0.1
186.218	0.09
186.604	0.57
186.99	-0
187.376	-0
187.762	0.14
188.148	0.98
188.534	-0.15
188.92	0.12
189.305	0.14
189.691	0.17
190.077	0.12
190.463	0.13
190.848	0.15
191.234	0.14
191.619	0.11
192.005	0.16
192.391	0.17
192.776	0.15
193.161	0.31
193.547	0.2
193.932	0.1
194.318	0.13
194.703	0.48
195.088	0.25
195.473	0.17
195.859	0.22
196.244	0.24
196.629	0.35
197.014	0.07
197.399	0.16
197.784	0.2
198.169	0.27
198.554	0.35
198.939	0.11
199.324	0.13
199.709	0.13
200.094	0.17
200.478	0.06
200.863	0.13
201.248	0.27
201.633	0.21
202.017	0.09
202.402	0.2
202.787	0.08
203.171	0.1
203.556	0.14
203.94	0.17
204.325	0.16
204.709	0.17
205.093	0.2
205.478	0.2
205.862	0.13
206.246	0.13
206.631	0.19
207.015	0.14
207.399	0.18
207.783	0.11
208.167	0.19
208.551	0.26
208.935	0.14
209.319	0.1
209.703	0.17
210.087	0.35
210.471	0.11
210.855	0.12
211.239	0.2
211.623	0.25
212.007	0.26
212.39	0.31
212.774	0.3
213.158	0.16
213.541	0.34
213.925	0.26
214.309	0.35
214.692	0.31
215.076	0.18
215.459	0.21
215.842	0.23
216.226	0.16
216.609	0.27
216.993	0.22
217.376	0.39
217.759	0.25
218.142	0.31
218.525	0.54
218.909	0.29
219.292	0.39
219.675	0.41
220.058	0.48
220.441	0.59
220.824	0.53
221.207	0.45
221.59	0.47
221.973	0.5
222.355	0.8
222.738	0.76
223.121	0.63
223.504	0.53
223.886	0.67
224.269	0.73
224.652	0.6
225.034	0.79
225.417	0.7
225.799	1.02
226.182	0.99
226.564	0.85
226.947	0.74
227.329	0.91
227.711	0.92
228.094	0.88
228.476	1.07
228.858	0.88
229.24	0.75
229.623	0.97
230.005	0.81
230.387	1.05
230.769	0.92
231.151	0.92
231.533	0.93
231.915	0.93
232.297	0.98
232.679	1.03
233.061	0.96
233.442	1.07
233.824	1.1
234.206	1.11
234.588	1.09
234.969	1.17
235.351	1.04
235.733	0.97
236.114	1.16
236.496	1.16
236.877	1.28
237.259	1.09
237.64	1.13
238.022	1.03
238.403	0.94
238.784	1.12
239.165	1.07
239.547	1.23
239.928	1.11
240.309	1.41
240.69	1.03
241.071	1.19
241.452	1.14
241.834	1.02
242.215	1.16
242.595	1
242.976	1.17
243.357	1.15
243.738	1.11
244.119	1.29
244.5	1.06
244.881	1.29
245.261	1.31
245.642	1.3
246.023	1.14
246.403	1.26
246.784	1.31
247.164	1.28
247.545	1.39
247.925	1.29
248.306	1.12
248.686	1.32
249.067	1.38
249.447	1.48
249.827	1.49
250.207	1.44
250.588	1.27
250.968	1.41
251.348	1.31
251.728	1.54
252.108	1.35
252.488	1.49
252.868	1.49
253.248	1.22
253.628	1.35
254.008	1.49
254.388	1.3
254.768	1.39
255.147	1.35
255.527	1.47
255.907	1.35
256.287	1.42
256.666	1.42
257.046	1.51
257.425	1.61
257.805	1.37
258.184	1.29
258.564	1.44
258.943	1.37
259.323	1.45
259.702	1.4
260.081	1.41
260.461	1.41
260.84	1.48
261.219	1.58
261.598	1.56
261.977	1.45
262.356	1.5
262.736	1.56
263.115	1.74
263.494	1.37
263.873	1.45
264.251	1.68
264.63	2.01
265.009	1.5
265.388	1.38
265.767	1.34
266.145	1.62
266.524	1.39
266.903	1.43
267.281	1.43
267.66	1.64
268.039	1.48
268.417	1.49
268.796	1.36
269.174	1.39
269.552	1.37
269.931	1.46
270.309	1.49
270.687	1.57
271.066	1.96
271.444	1.46
271.822	1.56
272.2	1.36
272.578	1.47
272.956	1.41
273.334	1.42
273.712	1.48
274.09	1.48
274.468	1.31
274.846	1.3
275.224	1.46
275.602	1.38
275.98	1.51
276.357	1.38
276.735	1.45
277.113	1.47
277.49	1.34
277.868	1.25
278.246	1.49
278.623	1.3
279.001	1.42
279.378	1.34
279.756	1.37
280.133	1.53
280.51	1.33
280.888	1.47
281.265	1.46
281.642	1.56
282.019	1.63
282.396	1.66
282.773	1.53
283.151	1.49
283.528	1.69
283.905	1.5
284.282	1.58
284.659	1.48
285.035	1.39
285.412	1.4
285.789	1.57
286.166	1.38
286.543	1.5
286.919	1.64
287.296	1.49
287.673	1.67
288.049	1.59
288.426	1.64
288.802	1.42
289.179	1.45
289.555	1.65
289.932	1.51
290.308	1.39
290.684	1.4
291.061	1.35
291.437	1.63
291.813	1.3
292.189	1.41
292.565	1.25
292.942	1.34
293.318	1.33
293.694	1.51
294.07	1.29
294.446	1.37
294.822	1.6
295.197	1.43
295.573	1.47
295.949	1.42
296.325	1.52
296.701	1.43
297.076	1.61
297.452	1.49
297.828	1.41
298.203	1.54
298.579	1.46
298.954	1.44
299.33	1.41
299.705	1.39
300.081	1.46
300.456	1.36
300.831	1.33
301.206	1.3
301.582	1.42
301.957	1.27
302.332	1.39
302.707	1.24
303.082	1.2
303.457	1.23
303.832	1.27
304.207	1.19
304.582	1.22
304.957	1.21
305.332	1.28
305.707	1.17
306.082	1.15
306.456	1.24
306.831	1.11
307.206	1.15
307.58	1.17
307.955	1.05
308.33	1.04
308.704	1.09
309.079	1.03
309.453	1.09
309.828	1.05
310.202	0.99
310.576	1
310.951	0.99
311.325	1
311.699	0.99
312.073	0.98
312.447	0.99
312.821	0.95
313.196	0.93
313.57	0.97
313.944	0.94
314.317	0.89
314.691	0.94
315.065	0.96
315.439	0.94
315.813	0.94
316.187	0.9
316.56	1
316.934	0.92
317.308	0.92
317.681	0.92
318.055	0.91
318.428	0.91
318.802	0.92
319.175	0.85
319.549	0.9
319.922	0.89
320.295	0.9
320.669	0.88
321.042	0.89
321.415	0.93
321.788	0.88
322.162	0.87
322.535	0.89
322.908	0.88
323.281	0.87
323.654	0.9
324.027	0.83
324.4	0.91
324.773	0.92
325.145	0.93
325.518	0.89
325.891	0.88
326.264	0.89
326.636	0.89
327.009	0.9
327.382	0.94
327.754	0.96
328.127	0.86
328.499	0.93
328.872	0.91
329.244	0.91
329.616	0.92
329.989	0.95
330.361	0.94
330.733	0.9
331.106	0.91
331.478	0.92
331.85	0.94
332.222	0.87
332.594	0.99
332.966	0.96
333.338	1.02
333.71	0.99
334.082	1.02
334.454	0.97
334.826	1.01
335.197	1.02
335.569	1.01
335.941	0.95
336.312	1.02
336.684	1.01
337.056	1.04
337.427	1.06
337.799	1.06
338.17	1.04
338.542	1.03
338.913	1.09
339.284	1.1
339.656	1.06
340.027	1.1
340.398	1.11
340.769	1.1
341.141	1.11
341.512	1.1
341.883	1.12
342.254	1.13
342.625	1.14
342.996	1.15
343.367	1.11
343.738	1.11
344.108	1.06
344.479	1.22
344.85	1.09
345.221	1.17
345.591	1.1
345.962	1.17
346.333	1.22
346.703	1.09
347.074	1.24
347.444	1.11
347.815	1.21
348.185	1.25
348.556	1.2
348.926	1.23
349.296	1.25
349.666	1.23
350.037	1.22
350.407	1.19
350.777	1.22
351.147	1.23
351.517	1.25
351.887	1.24
352.257	1.33
352.627	1.22
352.997	1.26
353.367	1.19
353.737	1.46
354.106	1.32
354.476	1.24
354.846	1.41
355.216	1.37
355.585	1.42
355.955	1.4
356.324	1.41
356.694	1.47
357.063	1.37
357.433	1.3
357.802	1.55
358.171	1.55
358.541	1.43
358.91	1.45
359.279	1.62
359.648	1.47
360.017	1.56
360.387	1.48
360.756	1.49
361.125	1.53
361.494	1.62
361.863	1.52
362.231	1.46
362.6	1.52
362.969	1.52
363.338	1.44
363.707	1.71
364.075	1.58
364.444	1.41
364.813	1.53
365.181	1.41
365.55	1.47
365.918	1.58
366.287	1.49
366.655	1.64
367.024	1.52
367.392	1.55
367.76	1.53
368.128	1.55
368.497	1.51
368.865	1.51
369.233	1.61
369.601	1.49
369.969	1.64
370.337	1.57
370.705	1.5
371.073	1.55
371.441	1.62
371.809	1.46
372.177	1.54
372.544	1.55
372.912	1.62
373.28	1.54
373.647	1.44
374.015	1.65
374.383	1.85
374.75	1.74
375.118	1.68
375.485	1.66
375.853	1.63
376.22	1.52
376.587	1.61
376.955	1.68
377.322	1.59
377.689	1.64
378.056	1.55
378.423	1.5
378.79	1.64
379.157	1.6
379.524	1.66
379.891	1.65
380.258	1.76
380.625	1.65
380.992	1.49
381.359	1.52
381.726	1.77
382.092	1.45
382.459	1.62
382.826	1.59
383.192	1.59
383.559	1.47
383.925	1.66
384.292	1.48
384.658	2.01
385.025	1.64
385.391	1.71
385.757	1.58
386.123	1.7
386.49	1.55
386.856	1.69
387.222	1.66
387.588	1.49
387.954	1.78
388.32	1.65
388.686	1.63
389.052	1.52
389.418	1.63
389.784	1.44
390.15	1.56
390.515	1.42
390.881	1.8
391.247	1.49
391.613	1.67
391.978	1.55
392.344	1.78
392.709	1.59
393.075	1.69
393.44	1.68
393.806	1.61
394.171	1.59
394.536	1.55
394.902	1.62
395.267	1.66
395.632	1.47
395.997	1.61
396.362	1.58
396.727	1.54
397.092	1.57
397.457	1.61
397.822	1.56
398.187	1.63
398.552	1.62
398.917	1.74
399.282	1.55
399.646	1.59
400.011	1.72
400.376	1.51
400.74	1.46
401.105	1.64
401.47	1.51
401.834	1.62
402.199	1.61
402.563	1.86
402.927	1.54
403.292	1.73
403.656	1.62
404.02	1.52
404.384	1.58
404.749	1.72
405.113	1.63
405.477	1.76
405.841	1.51
406.205	1.6
406.569	1.58
406.933	1.59
407.296	1.55
407.66	1.55
408.024	1.52
408.388	1.72
408.752	1.62
409.115	1.75
409.479	1.82
409.842	1.5
410.206	1.43
410.569	1.49
410.933	1.63
411.296	1.55
411.66	1.6
412.023	1.45
412.386	1.5
412.749	1.56
413.113	1.66
413.476	1.53
413.839	1.58
414.202	1.55
414.565	1.49
414.928	1.47
415.291	1.42
415.654	1.53
416.017	1.5
416.38	1.51
416.742	1.41
417.105	1.48
417.468	1.37
417.83	1.57
418.193	1.72
418.556	1.42
418.918	1.46
419.281	1.6
419.643	1.65
420.005	1.36
420.368	1.58
420.73	1.45
421.092	1.54
421.455	1.62
421.817	1.33
422.179	1.53
422.541	1.5
422.903	1.79
423.265	1.64
423.627	1.51
423.989	1.5
424.351	1.46
424.713	1.43
425.075	1.52
425.436	1.47
425.798	1.53
426.16	1.63
426.521	1.66
426.883	1.66
427.245	1.6
427.606	1.47
427.967	1.39
428.329	1.51
428.69	1.61
429.052	1.43
429.413	1.51
429.774	1.63
430.135	1.56
430.497	1.56
430.858	1.51
431.219	1.5
431.58	1.47
431.941	1.41
432.302	1.35
432.663	1.49
433.024	1.7
433.384	1.51
433.745	1.38
434.106	1.61
434.467	1.47
434.827	1.53
435.188	1.49
435.548	1.58
435.909	1.54
436.269	1.58
436.63	1.46
436.99	1.48
437.351	1.35
437.711	1.54
438.071	1.44
438.431	1.48
438.792	1.47
439.152	1.43
439.512	1.47
439.872	1.44
440.232	1.54
440.592	1.43
440.952	1.5
441.312	1.45
441.671	1.37
442.031	1.42
442.391	1.42
442.751	1.46
443.11	1.56
443.47	1.3
443.83	1.35
444.189	1.36
444.549	1.37
444.908	1.34
445.267	1.36
445.627	1.39
445.986	1.28
446.345	1.36
446.705	1.35
447.064	1.36
447.423	1.31
447.782	1.34
448.141	1.32
448.5	1.3
448.859	1.32
449.218	1.28
449.577	1.28
449.936	1.31
450.295	1.28
450.653	1.28
451.012	1.27
451.371	1.26
451.729	1.25
452.088	1.23
452.447	1.26
452.805	1.23
453.163	1.23
453.522	1.2
453.88	1.18
454.239	1.19
454.597	1.16
454.955	1.14
455.313	1.14
455.671	1.14
456.029	1.15
456.388	1.11
456.746	1.11
457.104	1.09
457.461	1.06
457.819	1.07
458.177	1.06
458.535	1.04
458.893	1.04
459.25	1.04
459.608	1.01
459.966	1
460.323	0.97
460.681	0.97
461.038	0.95
461.396	0.94
461.753	0.93
462.111	0.92
462.468	0.91
462.825	0.88
463.182	0.88
463.54	0.84
463.897	0.87
464.254	0.85
464.611	0.84
464.968	0.81
465.325	0.8
465.682	0.81
466.039	0.8
466.395	0.79
466.752	0.77
467.109	0.76
467.466	0.74
467.822	0.74
468.179	0.72
468.535	0.71
468.892	0.7
469.248	0.69
469.605	0.68
469.961	0.67
470.318	0.66
470.674	0.65
471.03	0.64
471.386	0.63
471.743	0.61
472.099	0.6
472.455	0.59
472.811	0.59
473.167	0.58
473.523	0.57
473.879	0.57
474.235	0.55
474.59	0.53
474.946	0.52
475.302	0.53
475.657	0.51
476.013	0.5
476.369	0.49
476.724	0.48
477.08	0.48
477.435	0.47
477.791	0.47
478.146	0.45
478.501	0.44
478.857	0.44
479.212	0.43
479.567	0.42
479.922	0.41
480.277	0.41
480.632	0.4
480.987	0.4
481.342	0.39
481.697	0.37
482.052	0.37
482.407	0.37
482.762	0.36
483.116	0.36
483.471	0.35
483.826	0.34
484.18	0.33
484.535	0.33
484.89	0.32
485.244	0.31
485.598	0.32
485.953	0.3
486.307	0.3
486.661	0.3
487.016	0.29
487.37	0.28
487.724	0.29
488.078	0.27
488.432	0.27
488.786	0.27
489.14	0.26
489.494	0.26
489.848	0.25
490.202	0.25
490.556	0.25
490.91	0.24
491.263	0.23
491.617	0.23
491.971	0.23
492.324	0.22
492.678	0.22
493.031	0.23
493.385	0.22
493.738	0.21
494.091	0.21
494.445	0.21
494.798	0.2
495.151	0.2
495.504	0.19
495.857	0.19
496.21	0.19
496.564	0.18
496.916	0.19
497.269	0.18
497.622	0.18
497.975	0.17
498.328	0.17
498.681	0.17
499.033	0.17
499.386	0.17
499.739	0.16
500.091	0.17
500.444	0.16
500.796	0.16
501.149	0.16
501.501	0.16
501.854	0.15
502.206	0.15
502.558	0.15
502.91	0.15
503.263	0.14
503.615	0.15
503.967	0.14
504.319	0.15
504.671	0.14
505.023	0.14
505.375	0.14
505.726	0.14
506.078	0.14
506.43	0.13
506.782	0.13
507.133	0.13
507.485	0.14
507.837	0.14
508.188	0.13
508.54	0.13
508.891	0.14
509.243	0.12
509.594	0.13
509.945	0.13
510.296	0.13
510.648	0.13
510.999	0.12
511.35	0.12
511.701	0.12
512.052	0.13
512.403	0.12
512.754	0.12
513.105	0.12
513.456	0.11
513.807	0.11
514.157	0.12
514.508	0.12
514.859	0.11
515.209	0.11
515.56	0.11
515.91	0.11
516.261	0.12
516.611	0.11
516.962	0.11
517.312	0.12
517.662	0.12
518.013	0.11
518.363	0.12
518.713	0.11
519.063	0.12
519.413	0.11
519.763	0.11
520.113	0.12
520.463	0.12
520.813	0.11
521.163	0.11
521.512	0.11
521.862	0.11
522.212	0.11
522.562	0.11
522.911	0.11
523.261	0.11
523.61	0.11
523.96	0.11
524.309	0.12
524.658	0.11
525.008	0.11
525.357	0.11
525.706	0.11
526.056	0.11
526.405	0.11
526.754	0.11
527.103	0.1
527.452	0.1
527.801	0.1
528.15	0.11
528.499	0.11
528.847	0.11
529.196	0.11
529.545	0.11
529.893	0.12
530.242	0.11
530.591	0.12
530.939	0.12
531.288	0.12
531.636	0.12
531.985	0.11
532.333	0.11
532.681	0.11
533.029	0.11
533.378	0.11
533.726	0.11
534.074	0.12
534.422	0.11
534.77	0.11
535.118	0.11
535.466	0.11
535.814	0.11
536.162	0.12
536.509	0.11
536.857	0.11
537.205	0.11
537.552	0.11
537.9	0.11
538.248	0.1
538.595	0.11
538.943	0.11
539.29	0.11
539.637	0.11
539.985	0.11
540.332	0.11
540.679	0.1
541.026	0.1
541.373	0.11
541.721	0.11
542.068	0.11
542.415	0.11
542.762	0.1
543.108	0.1
543.455	0.1
543.802	0.1
544.149	0.1
544.496	0.1
544.842	0.1
545.189	0.09
545.535	0.1
545.882	0.1
546.228	0.1
546.575	0.1
546.921	0.09
547.267	0.1
547.614	0.1
547.96	0.1
548.306	0.1
548.652	0.1
548.998	0.11
549.344	0.09
549.69	0.11
550.036	0.1
550.382	0.09
550.728	0.09
551.074	0.1
551.42	0.11
551.765	0.1
552.111	0.11
552.457	0.11
552.802	0.11
553.148	0.1
553.493	0.1
553.839	0.1
554.184	0.11
554.529	0.1
554.875	0.11
555.22	0.11
555.565	0.1
555.91	0.11
556.255	0.11
556.6	0.1
556.945	0.1
557.29	0.1
557.635	0.11
557.98	0.1
558.325	0.1
558.67	0.1
559.014	0.1
559.359	0.1
559.704	0.11
560.048	0.1
560.393	0.1
560.737	0.1
561.082	0.1
561.426	0.1
561.77	0.1
562.115	0.09
562.459	0.1
562.803	0.11
563.147	0.1
563.491	0.1
563.835	0.11
564.179	0.11
564.523	0.1
564.867	0.1
565.211	0.1
565.555	0.11
565.899	0.1
566.242	0.1
566.586	0.1
566.93	0.09
567.273	0.11
567.617	0.1
567.96	0.11
568.304	0.11
568.647	0.1
568.99	0.11
569.334	0.12
569.677	0.11
570.02	0.11
570.363	0.11
570.706	0.1
571.049	0.1
571.392	0.11
571.735	0.1
572.078	0.11
572.421	0.11
572.764	0.11
573.106	0.1
573.449	0.1
573.792	0.1
574.134	0.1
574.477	0.11
574.819	0.1
575.162	0.11
575.504	0.1
575.847	0.1
576.189	0.11
576.531	0.1
576.873	0.1
577.215	0.1
577.558	0.1
577.9	0.1
578.242	0.1
578.584	0.1
578.926	0.11
579.267	0.1
579.609	0.1
579.951	0.1
580.293	0.1
580.634	0.11
580.976	0.1
581.318	0.1
581.659	0.09
582.001	0.1
582.342	0.1
582.683	0.11
583.025	0.09
583.366	0.1
583.707	0.1
584.049	0.09
584.39	0.09
584.731	0.09
585.072	0.09
585.413	0.11
585.754	0.1
586.095	0.1
586.435	0.1
586.776	0.1
587.117	0.1
587.458	0.1
587.798	0.1
588.139	0.1
588.48	0.09
588.82	0.1
589.161	0.09
589.501	0.09
589.841	0.1
590.182	0.1
590.522	0.09
590.862	0.09
591.202	0.1
591.542	0.1
591.882	0.09
592.222	0.09
592.562	0.1
592.902	0.1
593.242	0.1
593.582	0.1
593.922	0.1
594.261	0.09
594.601	0.1
594.941	0.1
595.28	0.1
595.62	0.1
595.959	0.1
596.299	0.09
596.638	0.1
596.977	0.1
597.317	0.11
597.656	0.1
597.995	0.1
598.334	0.1
598.673	0.1
599.012	0.1
599.351	0.11
599.69	0.1
600.029	0.1
600.368	0.11
600.707	0.1
601.046	0.11
601.384	0.11
601.723	0.11
602.061	0.09
602.4	0.1
602.738	0.1
603.077	0.1
603.415	0.1
603.754	0.1
604.092	0.1
604.43	0.1
604.768	0.1
605.107	0.1
605.445	0.1
605.783	0.1
606.121	0.1
606.459	0.1
606.796	0.1
607.134	0.09
607.472	0.1
607.81	0.1
608.148	0.1
608.485	0.1
608.823	0.1
609.16	0.09
609.498	0.1
609.835	0.09
610.173	0.09
610.51	0.1
610.847	0.1
611.185	0.1
611.522	0.1
611.859	0.11
612.196	0.1
612.533	0.1
612.87	0.11
613.207	0.1
613.544	0.1
613.881	0.11
614.217	0.11
614.554	0.1
614.891	0.11
615.228	0.11
615.564	0.11
615.901	0.11
616.237	0.1
616.574	0.1
616.91	0.11
617.246	0.11
617.583	0.11
617.919	0.11
618.255	0.11
618.591	0.11
618.927	0.1
619.263	0.11
619.599	0.11
619.935	0.11
620.271	0.11
620.607	0.11
620.943	0.11
621.279	0.11
621.614	0.11
621.95	0.1
622.286	0.11
622.621	0.1
622.957	0.11
623.292	0.1
623.627	0.1
623.963	0.1
624.298	0.1
624.633	0.09
624.968	0.1
625.304	0.1
625.639	0.1
625.974	0.1
626.309	0.09
626.644	0.1
626.979	0.1
627.313	0.1
627.648	0.1
627.983	0.1
628.318	0.09
628.652	0.09
628.987	0.1
629.321	0.1
629.656	0.09
629.99	0.09
630.325	0.09
630.659	0.09
630.993	0.09
631.327	0.09
631.662	0.08
631.996	0.09
632.33	0.09
632.664	0.09
632.998	0.09
633.332	0.08
633.666	0.09
633.999	0.09
634.333	0.08
634.667	0.09
635.001	0.09
635.334	0.09
635.668	0.08
636.001	0.09
636.335	0.09
636.668	0.09
637.001	0.09
637.335	0.08
637.668	0.09
638.001	0.08
638.334	0.09
638.668	0.09
639.001	0.08
639.334	0.08
639.667	0.09
639.999	0.08
640.332	0.08
640.665	0.08
640.998	0.08
641.331	0.08
641.663	0.08
641.996	0.08
642.328	0.08
642.661	0.08
642.993	0.08
643.326	0.09
643.658	0.08
643.99	0.08
644.323	0.08
644.655	0.08
644.987	0.08
645.319	0.09
645.651	0.09
645.983	0.08
646.315	0.08
646.647	0.08
646.979	0.09
647.31	0.08
647.642	0.08
647.974	0.08
648.305	0.09
648.637	0.08
648.968	0.09
649.3	0.09
649.631	0.09
649.963	0.08
650.294	0.08
650.625	0.09
650.957	0.09
651.288	0.09
651.619	0.09
651.95	0.09
652.281	0.09
652.612	0.09
652.943	0.09
653.274	0.1
653.604	0.09
653.935	0.09
654.266	0.09
654.596	0.08
654.927	0.08
655.258	0.09
655.588	0.09
655.918	0.09
656.249	0.07
656.579	0.08
656.909	0.08
657.24	0.08
657.57	0.08
657.9	0.08
658.23	0.08
658.56	0.09
658.89	0.09
659.22	0.08
659.55	0.09
659.88	0.09
660.209	0.08
660.539	0.09
660.869	0.09
661.198	0.09
661.528	0.08
661.857	0.08
662.187	0.09
662.516	0.08
662.846	0.08
663.175	0.08
663.504	0.08
663.833	0.08
664.163	0.09
664.492	0.08
664.821	0.08
665.15	0.08
665.479	0.09
665.807	0.08
666.136	0.09
666.465	0.08
666.794	0.09
667.122	0.08
667.451	0.08
667.78	0.09
668.108	0.09
668.437	0.08
668.765	0.09
669.093	0.09
669.422	0.09
669.75	0.09
670.078	0.08
670.406	0.09
670.734	0.09
671.062	0.08
671.39	0.09
671.718	0.09
672.046	0.08
672.374	0.07
672.702	0.08
673.029	0.08
673.357	0.08
673.685	0.09
674.012	0.08
674.34	0.08
674.667	0.09
674.995	0.09
675.322	0.08
675.649	0.08
675.977	0.08
676.304	0.09
676.631	0.08
676.958	0.08
677.285	0.08
677.612	0.08
677.939	0.08
678.266	0.08
678.593	0.07
678.92	0.08
679.246	0.08
679.573	0.07
679.9	0.07
680.226	0.08
680.553	0.08
680.879	0.08
681.206	0.08
681.532	0.08
681.858	0.09
682.184	0.08
682.511	0.08
682.837	0.07
683.163	0.08
683.489	0.09
683.815	0.08
684.141	0.07
684.467	0.08
684.793	0.07
685.118	0.08
685.444	0.08
685.77	0.08
686.095	0.08
686.421	0.08
686.746	0.08
687.072	0.07
687.397	0.07
687.723	0.08
688.048	0.08
688.373	0.07
688.698	0.08
689.023	0.08
689.349	0.08
689.674	0.08
689.999	0.08
690.323	0.06
690.648	0.08
690.973	0.07
691.298	0.07
691.623	0.08
691.947	0.08
692.272	0.07
692.596	0.08
692.921	0.09
693.245	0.08
693.57	0.08
693.894	0.08
694.218	0.08
694.543	0.08
694.867	0.08
695.191	0.08
695.515	0.08
695.839	0.07
696.163	0.07
696.487	0.08
696.811	0.08
697.135	0.08
697.458	0.08
697.782	0.08
698.106	0.08
698.429	0.08
698.753	0.07
699.076	0.07
699.4	0.08
699.723	0.07
700.046	0.07
700.37	0.07
700.693	0.07
701.016	0.07
701.339	0.08
701.662	0.08
701.985	0.08
702.308	0.07
702.631	0.08
702.954	0.08
703.277	0.07
703.599	0.08
703.922	0.07
704.245	0.07
704.567	0.06
704.89	0.07
705.212	0.07
705.535	0.07
705.857	0.07
706.179	0.06
706.502	0.07
706.824	0.06
707.146	0.07
707.468	0.07
707.79	0.06
708.112	0.07
708.434	0.08
708.756	0.07
709.078	0.07
709.399	0.07
709.721	0.07
710.043	0.07
710.364	0.07
710.686	0.07
711.007	0.07
711.329	0.07
711.65	0.07
711.972	0.07
712.293	0.07
712.614	0.07
712.935	0.07
713.256	0.07
713.577	0.08
713.898	0.07
714.219	0.07
714.54	0.07
714.861	0.07
715.182	0.07
715.503	0.07
715.823	0.07
716.144	0.06
716.464	0.06
716.785	0.05
717.105	0.06
717.426	0.07
717.746	0.06
718.066	0.06
718.387	0.06
718.707	0.05
719.027	0.07
719.347	0.05
719.667	0.06
719.987	0.06
720.307	0.06
720.627	0.06
720.947	0.07
721.266	0.06
721.586	0.05
721.906	0.06
722.225	0.05
722.545	0.05
722.864	0.06
723.184	0.06
723.503	0.06
723.823	0.06
724.142	0.06
724.461	0.06
724.78	0.05
725.099	0.06
725.418	0.06
725.737	0.06
726.056	0.06
726.375	0.06
726.694	0.06
727.013	0.06
727.331	0.05
727.65	0.05
727.969	0.06
728.287	0.06
728.606	0.06
728.924	0.05
729.242	0.06
729.561	0.06
729.879	0.06
730.197	0.07
730.515	0.05
730.834	0.05
731.152	0.05
731.47	0.06
731.788	0.06
732.105	0.05
732.423	0.06
732.741	0.06
733.059	0.06
733.376	0.07
733.694	0.05
734.012	0.06
734.329	0.07
734.647	0.07
734.964	0.07
735.281	0.07
735.599	0.06
735.916	0.07
736.233	0.06
736.55	0.07
736.867	0.07
737.184	0.06
737.501	0.06
737.818	0.06
738.135	0.07
738.452	0.06
738.768	0.06
739.085	0.06
739.402	0.05
739.718	0.06
740.035	0.05
740.351	0.05
740.668	0.07
740.984	0.05
741.3	0.05
741.617	0.06
741.933	0.06
742.249	0.06
742.565	0.06
742.881	0.07
743.197	0.07
743.513	0.06
743.829	0.05
744.144	0.05
744.46	0.05
744.776	0.06
745.091	0.05
745.407	0.05
745.722	0.05
746.038	0.05
746.353	0.04
746.669	0.06
746.984	0.04
747.299	0.04
747.614	0.05
747.93	0.05
748.245	0.04
748.56	0.04
748.875	0.05
749.189	0.05
749.504	0.05
749.819	0.05
750.134	0.04
750.448	0.05
750.763	0.05
751.078	0.04
751.392	0.04
751.707	0.06
752.021	0.07
752.335	0.06
752.65	0.06
752.964	0.05
753.278	0.05
753.592	0.05
753.906	0.06
754.22	0.05
754.534	0.06
754.848	0.06
755.162	0.06
755.476	0.06
755.789	0.06
756.103	0.05
756.417	0.06
756.73	0.06
757.044	0.07
757.357	0.06
757.671	0.06
757.984	0.06
758.297	0.06
758.61	0.06
758.924	0.06
759.237	0.05
759.55	0.05
759.863	0.06
760.176	0.06
760.488	0.05
760.801	0.06
761.114	0.05
761.427	0.05
761.739	0.06
762.052	0.05
762.365	0.05
762.677	0.05
762.99	0.04
763.302	0.05
763.614	0.05
763.926	0.05
764.239	0.05
764.551	0.05
764.863	0.06
765.175	0.06
765.487	0.06
765.799	0.04
766.111	0.04
766.423	0.06
766.734	0.05
767.046	0.04
767.358	0.05
767.669	0.06
767.981	0.06
768.292	0.05
768.604	0.05
768.915	0.05
769.226	0.05
769.537	0.04
769.849	0.06
770.16	0.04
770.471	0.04
770.782	0.05
771.093	0.05
771.404	0.04
771.715	0.04
772.025	0.04
772.336	0.05
772.647	0.04
772.957	0.05
773.268	0.05
773.578	0.05
773.889	0.05
774.199	0.06
774.51	0.05
774.82	0.05
775.13	0.06
775.44	0.06
775.75	0.05
776.06	0.05
776.37	0.05
776.68	0.05
776.99	0.05
777.3	0.05
777.61	0.06
777.92	0.05
778.229	0.04
778.539	0.04
778.848	0.05
779.158	0.05
779.467	0.04
779.777	0.05
780.086	0.05
780.395	0.05
780.704	0.04
781.013	0.04
781.323	0.04
781.632	0.05
781.941	0.04
782.249	0.04
782.558	0.04
782.867	0.04
783.176	0.03
783.485	0.04
783.793	0.04
784.102	0.05
784.41	0.04
784.719	0.04
785.027	0.04
785.335	0.04
785.644	0.05
785.952	0.04
786.26	0.05
786.568	0.04
786.876	0.04
787.184	0.04
787.492	0.05
787.8	0.04
788.108	0.04
788.416	0.04
788.723	0.04
789.031	0.04
789.338	0.04
789.646	0.05
789.953	0.04
790.261	0.05
790.568	0.05
790.876	0.05
791.183	0.05
791.49	0.04
791.797	0.05
792.104	0.04
792.411	0.06
792.718	0.05
793.025	0.05
793.332	0.05
793.639	0.05
793.945	0.06
794.252	0.06
794.559	0.05
794.865	0.06
795.172	0.05
795.478	0.05
795.784	0.06
796.091	0.06
796.397	0.06
796.703	0.05
797.009	0.06
797.315	0.06
797.622	0.06
797.927	0.06
798.233	0.05
798.539	0.07
798.845	0.06
799.151	0.06
799.456	0.06
799.762	0.06
800.068	0.05
800.373	0.06
800.679	0.05
800.984	0.06
801.289	0.06
801.595	0.06
801.9	0.06
802.205	0.06
802.51	0.05
802.815	0.06
803.12	0.05
803.425	0.05
803.73	0.05
804.035	0.06
804.339	0.05
804.644	0.05
804.949	0.05
805.253	0.05
805.558	0.05
805.862	0.05
806.167	0.05
806.471	0.04
806.775	0.05
807.08	0.04
807.384	0.04
807.688	0.05
807.992	0.05
808.296	0.05
808.6	0.04
808.904	0.05
809.207	0.05
809.511	0.05
809.815	0.06
810.119	0.05
810.422	0.06
810.726	0.06
811.029	0.07
811.332	0.06
811.636	0.07
811.939	0.06
812.242	0.05
812.546	0.06
812.849	0.06
813.152	0.07
813.455	0.06
813.758	0.06
814.06	0.06
814.363	0.06
814.666	0.07
814.969	0.07
815.271	0.07
815.574	0.06
815.877	0.06
816.179	0.06
816.481	0.06
816.784	0.06
817.086	0.05
817.388	0.05
817.69	0.04
817.993	0.05
818.295	0.05
818.597	0.05
818.899	0.05
819.2	0.04
819.502	0.04
819.804	0.05
820.106	0.04
820.407	0.04
820.709	0.04
821.01	0.05
821.312	0.05
821.613	0.04
821.915	0.03
822.216	0.04
822.517	0.04
822.818	0.04
823.119	0.04
823.42	0.04
823.721	0.03
824.022	0.03
824.323	0.04
824.624	0.03
824.925	0.05
825.226	0.04
825.526	0.03
825.827	0.03
826.127	0.03
826.428	0.04
826.728	0.03
827.028	0.04
827.329	0.03
827.629	0.03
827.929	0.03
828.229	0.04
828.529	0.04
828.829	0.03
829.129	0.03
829.429	0.04
829.729	0.04
830.029	0.03
830.328	0.04
830.628	0.03
830.927	0.03
831.227	0.03
831.526	0.04
831.826	0.04
832.125	0.03
832.424	0.03
832.724	0.03
833.023	0.03
833.322	0.03
833.621	0.02
833.92	0.02
834.219	0.02
834.518	0.03
834.816	0.02
835.115	0.03
835.414	0.02
835.712	0.02
836.011	0.02
836.309	0.02
836.608	0.01
836.906	0.01
837.205	0.01
837.503	0
837.801	0.01
838.099	0
838.397	-0
838.695	0
838.993	0
839.291	-0.01
839.589	-0
839.887	-0
840.184	-0.01
840.482	-0.02
840.78	-0
841.077	-0.01
841.375	-0.01
841.672	-0
841.969	-0.01
842.267	-0.01
842.564	-0.01
842.861	-0.01
843.158	-0.01
843.455	-0.03
843.752	-0.02
844.049	-0.02
844.346	-0.02
844.643	-0.03
844.94	-0.03
845.236	-0.02
845.533	-0.02
845.83	-0.03
846.126	-0.03
846.423	-0.02
846.719	-0.03
847.015	-0.03
847.312	-0.03
847.608	-0.04
847.904	-0.04
848.2	-0.04
848.496	-0.04
848.792	-0.04
849.088	-0.03
849.384	-0.04
849.68	-0.04
849.975	-0.03
850.271	-0.04
850.567	-0.05
850.862	-0.04
851.158	-0.05
851.453	-0.04
851.748	-0.05
852.044	-0.06
852.339	-0.05
852.634	-0.07
852.929	-0.05
853.224	-0.04
853.519	-0.06
853.814	-0.05
854.109	-0.05
854.404	-0.06
854.699	-0.06
854.994	-0.05
855.288	-0.06
855.583	-0.06
855.877	-0.06
856.172	-0.06
856.466	-0.06
856.76	-0.07
857.055	-0.08
857.349	-0.09
857.643	-0.08
857.937	-0.09
858.231	-0.1
858.525	-0.09
858.819	-0.1
859.113	-0.11
859.407	-0.1
859.701	-0.11
859.994	-0.11
860.288	-0.1
860.581	-0.11
860.875	-0.11
861.168	-0.1
861.462	-0.1
861.755	-0.11
862.048	-0.12
862.341	-0.11
862.634	-0.11
862.928	-0.11
863.221	-0.1
863.513	-0.11
863.806	-0.11
864.099	-0.11
864.392	-0.11
864.685	-0.11
864.977	-0.11
865.27	-0.11
865.562	-0.12
865.855	-0.11
866.147	-0.12
866.44	-0.11
866.732	-0.12
867.024	-0.13
867.316	-0.12
867.608	-0.12
867.9	-0.12
868.192	-0.13
868.484	-0.12
868.776	-0.12
869.068	-0.12
869.359	-0.13
869.651	-0.13
869.943	-0.14
870.234	-0.14
870.526	-0.13
870.817	-0.15
871.108	-0.13
871.4	-0.13
871.691	-0.15
871.982	-0.16
872.273	-0.16
872.564	-0.15
872.855	-0.15
873.146	-0.16
873.437	-0.16
873.728	-0.16
874.019	-0.16
874.309	-0.17
874.6	-0.17
874.89	-0.17
875.181	-0.17
875.471	-0.16
875.762	-0.17
876.052	-0.16
876.342	-0.15
876.632	-0.17
876.922	-0.17
877.213	-0.16
877.503	-0.18
877.792	-0.17
878.082	-0.17
878.372	-0.15
878.662	-0.18
878.952	-0.16
879.241	-0.17
879.531	-0.16
879.82	-0.16
880.11	-0.17
880.399	-0.16
880.688	-0.14
880.978	-0.14
881.267	-0.14
