Data from 12-12-AQDScycling_Absorbance__189__00189.txt Node

Date: Tue Dec 12 11:43:59 EST 2023
User: kyuminlee
Spectrometer: FLMS00943
Trigger mode: 0
Integration Time (sec): 1.000000E-1
Scans to average: 1
Electric dark correction enabled: true
Nonlinearity correction enabled: false
Boxcar width: 0
XAxis mode: Wavelengths
Number of Pixels in Spectrum: 2048
>>>>>Begin Spectral Data<<<<<
179.651	-0
180.037	-0
180.424	-0
180.81	-0.14
181.197	0.08
181.583	-0
181.97	-0.35
182.356	-0
182.743	-0
183.129	1.17
183.515	0.93
183.901	-0
184.288	0.41
184.674	-0
185.06	0.07
185.446	0.12
185.832	-0
186.218	0.03
186.604	-0.43
186.99	-0
187.376	-0.02
187.762	-0.55
188.148	-0
188.534	-0.51
188.92	-0
189.305	0.09
189.691	0.29
190.077	0.24
190.463	0.08
190.848	0.11
191.234	0.11
191.619	0.14
192.005	0.09
192.391	0.14
192.776	0.34
193.161	0.15
193.547	0.09
193.932	0.12
194.318	0.04
194.703	0.08
195.088	0.22
195.473	0.18
195.859	0.12
196.244	0.16
196.629	0.08
197.014	0.09
197.399	0.13
197.784	0.14
198.169	0.18
198.554	0.17
198.939	0.01
199.324	-0.01
199.709	-0.01
200.094	0.07
200.478	0.21
200.863	0.13
201.248	0.26
201.633	0.07
202.017	0.08
202.402	0.15
202.787	0.05
203.171	0.03
203.556	0.18
203.94	0.17
204.325	0.25
204.709	0.2
205.093	0.22
205.478	0.21
205.862	0.01
206.246	0.1
206.631	0.25
207.015	0.02
207.399	0.19
207.783	0.17
208.167	0.17
208.551	0.13
208.935	0.23
209.319	0.32
209.703	0.1
210.087	0.21
210.471	0.19
210.855	0.07
211.239	0.15
211.623	0.25
212.007	0.28
212.39	0.43
212.774	0.2
213.158	0.12
213.541	0.17
213.925	0.22
214.309	0.42
214.692	0.34
215.076	0.38
215.459	0.27
215.842	0.04
216.226	0.21
216.609	0.36
216.993	0.23
217.376	0.42
217.759	0.24
218.142	0.34
218.525	0.45
218.909	0.41
219.292	0.46
219.675	0.47
220.058	0.4
220.441	0.54
220.824	0.57
221.207	0.63
221.59	0.44
221.973	0.52
222.355	0.56
222.738	0.65
223.121	0.6
223.504	0.52
223.886	0.71
224.269	0.66
224.652	0.76
225.034	0.86
225.417	0.68
225.799	0.85
226.182	0.88
226.564	0.87
226.947	0.72
227.329	0.7
227.711	1.02
228.094	1.14
228.476	0.84
228.858	0.85
229.24	0.86
229.623	0.86
230.005	0.87
230.387	0.94
230.769	0.76
231.151	1.21
231.533	0.93
231.915	1
232.297	1.11
232.679	0.91
233.061	0.97
233.442	1.06
233.824	0.99
234.206	1.26
234.588	1.05
234.969	1.05
235.351	0.96
235.733	1.14
236.114	1.09
236.496	1.07
236.877	1.13
237.259	0.99
237.64	1.04
238.022	1.01
238.403	0.96
238.784	1.14
239.165	1.03
239.547	1.01
239.928	1.11
240.309	1.09
240.69	1.02
241.071	1
241.452	1.09
241.834	1.08
242.215	1.22
242.595	1.08
242.976	0.97
243.357	1.13
243.738	1.04
244.119	1.35
244.5	1.18
244.881	1.31
245.261	1.19
245.642	1.24
246.023	1.22
246.403	1.16
246.784	1.32
247.164	1.36
247.545	1.23
247.925	1.36
248.306	1.25
248.686	1.36
249.067	1.2
249.447	1.33
249.827	1.45
250.207	1.32
250.588	1.18
250.968	1.38
251.348	1.25
251.728	1.31
252.108	1.35
252.488	1.38
252.868	1.44
253.248	1.33
253.628	1.43
254.008	1.63
254.388	1.28
254.768	1.42
255.147	1.44
255.527	1.43
255.907	1.3
256.287	1.36
256.666	1.41
257.046	1.61
257.425	1.51
257.805	1.28
258.184	1.26
258.564	1.42
258.943	1.33
259.323	1.51
259.702	1.49
260.081	1.38
260.461	1.55
260.84	1.41
261.219	1.61
261.598	1.63
261.977	1.52
262.356	1.54
262.736	1.52
263.115	1.57
263.494	1.39
263.873	1.34
264.251	1.41
264.63	1.65
265.009	1.31
265.388	1.53
265.767	1.34
266.145	1.39
266.524	1.53
266.903	1.44
267.281	1.31
267.66	1.5
268.039	1.51
268.417	1.39
268.796	1.38
269.174	1.48
269.552	1.26
269.931	1.5
270.309	1.38
270.687	1.54
271.066	1.66
271.444	1.4
271.822	1.57
272.2	1.36
272.578	1.36
272.956	1.49
273.334	1.39
273.712	1.47
274.09	1.47
274.468	1.4
274.846	1.34
275.224	1.33
275.602	1.38
275.98	1.76
276.357	1.34
276.735	1.42
277.113	1.39
277.49	1.36
277.868	1.27
278.246	1.31
278.623	1.38
279.001	1.38
279.378	1.5
279.756	1.46
280.133	1.48
280.51	1.31
280.888	1.56
281.265	1.33
281.642	1.47
282.019	1.45
282.396	1.52
282.773	1.47
283.151	1.64
283.528	1.68
283.905	1.46
284.282	1.5
284.659	1.55
285.035	1.29
285.412	1.31
285.789	1.49
286.166	1.53
286.543	1.57
286.919	1.53
287.296	1.36
287.673	1.57
288.049	1.55
288.426	1.63
288.802	1.44
289.179	1.48
289.555	1.47
289.932	1.5
290.308	1.35
290.684	1.33
291.061	1.25
291.437	1.58
291.813	1.41
292.189	1.3
292.565	1.39
292.942	1.44
293.318	1.39
293.694	1.34
294.07	1.35
294.446	1.45
294.822	1.52
295.197	1.46
295.573	1.44
295.949	1.48
296.325	1.55
296.701	1.63
297.076	1.48
297.452	1.62
297.828	1.37
298.203	1.52
298.579	1.54
298.954	1.4
299.33	1.36
299.705	1.46
300.081	1.57
300.456	1.43
300.831	1.4
301.206	1.44
301.582	1.57
301.957	1.47
302.332	1.63
302.707	1.39
303.082	1.48
303.457	1.45
303.832	1.48
304.207	1.38
304.582	1.42
304.957	1.42
305.332	1.54
305.707	1.45
306.082	1.48
306.456	1.54
306.831	1.46
307.206	1.34
307.58	1.43
307.955	1.45
308.33	1.41
308.704	1.43
309.079	1.33
309.453	1.45
309.828	1.41
310.202	1.37
310.576	1.4
310.951	1.38
311.325	1.42
311.699	1.39
312.073	1.38
312.447	1.36
312.821	1.41
313.196	1.4
313.57	1.36
313.944	1.45
314.317	1.38
314.691	1.41
315.065	1.43
315.439	1.52
315.813	1.41
316.187	1.41
316.56	1.55
316.934	1.45
317.308	1.36
317.681	1.41
318.055	1.47
318.428	1.45
318.802	1.58
319.175	1.36
319.549	1.43
319.922	1.31
320.295	1.52
320.669	1.52
321.042	1.45
321.415	1.54
321.788	1.5
322.162	1.44
322.535	1.48
322.908	1.52
323.281	1.44
323.654	1.59
324.027	1.41
324.4	1.45
324.773	1.51
325.145	1.36
325.518	1.37
325.891	1.35
326.264	1.53
326.636	1.37
327.009	1.34
327.382	1.56
327.754	1.51
328.127	1.39
328.499	1.46
328.872	1.37
329.244	1.4
329.616	1.49
329.989	1.42
330.361	1.45
330.733	1.46
331.106	1.43
331.478	1.6
331.85	1.54
332.222	1.39
332.594	1.55
332.966	1.49
333.338	1.53
333.71	1.55
334.082	1.46
334.454	1.46
334.826	1.51
335.197	1.55
335.569	1.54
335.941	1.32
336.312	1.56
336.684	1.48
337.056	1.42
337.427	1.45
337.799	1.56
338.17	1.6
338.542	1.53
338.913	1.56
339.284	1.63
339.656	1.48
340.027	1.46
340.398	1.55
340.769	1.49
341.141	1.55
341.512	1.55
341.883	1.44
342.254	1.53
342.625	1.43
342.996	1.45
343.367	1.42
343.738	1.48
344.108	1.44
344.479	1.66
344.85	1.43
345.221	1.8
345.591	1.29
345.962	1.45
346.333	1.52
346.703	1.41
347.074	1.42
347.444	1.29
347.815	1.43
348.185	1.38
348.556	1.34
348.926	1.33
349.296	1.34
349.666	1.4
350.037	1.23
350.407	1.23
350.777	1.3
351.147	1.39
351.517	1.37
351.887	1.36
352.257	1.38
352.627	1.27
352.997	1.27
353.367	1.32
353.737	1.51
354.106	1.35
354.476	1.34
354.846	1.29
355.216	1.29
355.585	1.38
355.955	1.31
356.324	1.38
356.694	1.33
357.063	1.28
357.433	1.23
357.802	1.43
358.171	1.36
358.541	1.34
358.91	1.31
359.279	1.36
359.648	1.27
360.017	1.37
360.387	1.3
360.756	1.33
361.125	1.37
361.494	1.3
361.863	1.28
362.231	1.3
362.6	1.3
362.969	1.33
363.338	1.25
363.707	1.34
364.075	1.28
364.444	1.22
364.813	1.24
365.181	1.25
365.55	1.27
365.918	1.35
366.287	1.35
366.655	1.31
367.024	1.34
367.392	1.35
367.76	1.29
368.128	1.2
368.497	1.3
368.865	1.28
369.233	1.29
369.601	1.25
369.969	1.27
370.337	1.35
370.705	1.34
371.073	1.18
371.441	1.35
371.809	1.3
372.177	1.28
372.544	1.36
372.912	1.39
373.28	1.26
373.647	1.4
374.015	1.39
374.383	1.47
374.75	1.42
375.118	1.32
375.485	1.33
375.853	1.41
376.22	1.32
376.587	1.31
376.955	1.37
377.322	1.31
377.689	1.28
378.056	1.34
378.423	1.27
378.79	1.35
379.157	1.47
379.524	1.33
379.891	1.37
380.258	1.44
380.625	1.27
380.992	1.38
381.359	1.41
381.726	1.46
382.092	1.41
382.459	1.43
382.826	1.36
383.192	1.44
383.559	1.45
383.925	1.44
384.292	1.38
384.658	1.52
385.025	1.41
385.391	1.69
385.757	1.45
386.123	1.56
386.49	1.45
386.856	1.39
387.222	1.48
387.588	1.44
387.954	1.65
388.32	1.47
388.686	1.6
389.052	1.46
389.418	1.54
389.784	1.45
390.15	1.41
390.515	1.34
390.881	1.46
391.247	1.41
391.613	1.49
391.978	1.38
392.344	1.47
392.709	1.49
393.075	1.47
393.44	1.56
393.806	1.53
394.171	1.41
394.536	1.35
394.902	1.54
395.267	1.39
395.632	1.42
395.997	1.45
396.362	1.35
396.727	1.39
397.092	1.41
397.457	1.41
397.822	1.41
398.187	1.41
398.552	1.44
398.917	1.47
399.282	1.41
399.646	1.45
400.011	1.42
400.376	1.37
400.74	1.36
401.105	1.36
401.47	1.34
401.834	1.3
402.199	1.34
402.563	1.44
402.927	1.3
403.292	1.42
403.656	1.43
404.02	1.33
404.384	1.42
404.749	1.37
405.113	1.34
405.477	1.31
405.841	1.26
406.205	1.29
406.569	1.28
406.933	1.29
407.296	1.24
407.66	1.23
408.024	1.3
408.388	1.43
408.752	1.24
409.115	1.31
409.479	1.26
409.842	1.3
410.206	1.24
410.569	1.2
410.933	1.2
411.296	1.17
411.66	1.31
412.023	1.13
412.386	1.23
412.749	1.21
413.113	1.22
413.476	1.18
413.839	1.24
414.202	1.28
414.565	1.16
414.928	1.21
415.291	1.1
415.654	1.13
416.017	1.26
416.38	1.16
416.742	1.07
417.105	1.07
417.468	1.08
417.83	1.15
418.193	1.17
418.556	1.13
418.918	1.14
419.281	1.12
419.643	1.1
420.005	1.1
420.368	1.14
420.73	1.09
421.092	1.15
421.455	1.15
421.817	1.07
422.179	1.11
422.541	1.12
422.903	1.1
423.265	1.13
423.627	1.1
423.989	1.1
424.351	1.05
424.713	1.09
425.075	1.04
425.436	1.06
425.798	1.05
426.16	1.08
426.521	1.07
426.883	1.09
427.245	1.07
427.606	1
427.967	1.03
428.329	1.03
428.69	1.09
429.052	1.05
429.413	1.04
429.774	1.1
430.135	1.04
430.497	1.04
430.858	1.02
431.219	1
431.58	0.95
431.941	0.97
432.302	1.05
432.663	1
433.024	1.01
433.384	1.04
433.745	0.95
434.106	1.04
434.467	1
434.827	1.01
435.188	1
435.548	1.02
435.909	0.97
436.269	1
436.63	0.99
436.99	0.93
437.351	0.92
437.711	0.96
438.071	0.96
438.431	0.94
438.792	0.94
439.152	0.96
439.512	0.94
439.872	0.95
440.232	0.94
440.592	0.92
440.952	0.94
441.312	0.93
441.671	0.91
442.031	0.91
442.391	0.89
442.751	0.92
443.11	0.9
443.47	0.89
443.83	0.87
444.189	0.85
444.549	0.86
444.908	0.86
445.267	0.87
445.627	0.87
445.986	0.86
446.345	0.82
446.705	0.84
447.064	0.83
447.423	0.83
447.782	0.83
448.141	0.8
448.5	0.79
448.859	0.81
449.218	0.81
449.577	0.83
449.936	0.79
450.295	0.8
450.653	0.81
451.012	0.79
451.371	0.78
451.729	0.78
452.088	0.8
452.447	0.78
452.805	0.76
453.163	0.76
453.522	0.76
453.88	0.75
454.239	0.76
454.597	0.73
454.955	0.72
455.313	0.72
455.671	0.74
456.029	0.7
456.388	0.71
456.746	0.7
457.104	0.69
457.461	0.67
457.819	0.67
458.177	0.66
458.535	0.66
458.893	0.64
459.25	0.65
459.608	0.64
459.966	0.62
460.323	0.62
460.681	0.61
461.038	0.62
461.396	0.59
461.753	0.59
462.111	0.59
462.468	0.58
462.825	0.57
463.182	0.56
463.54	0.56
463.897	0.57
464.254	0.55
464.611	0.56
464.968	0.54
465.325	0.54
465.682	0.53
466.039	0.52
466.395	0.51
466.752	0.5
467.109	0.49
467.466	0.5
467.822	0.49
468.179	0.48
468.535	0.48
468.892	0.46
469.248	0.47
469.605	0.47
469.961	0.46
470.318	0.46
470.674	0.46
471.03	0.45
471.386	0.44
471.743	0.43
472.099	0.42
472.455	0.42
472.811	0.42
473.167	0.41
473.523	0.4
473.879	0.4
474.235	0.4
474.59	0.38
474.946	0.37
475.302	0.37
475.657	0.37
476.013	0.36
476.369	0.36
476.724	0.36
477.08	0.36
477.435	0.35
477.791	0.35
478.146	0.34
478.501	0.34
478.857	0.33
479.212	0.33
479.567	0.33
479.922	0.31
480.277	0.32
480.632	0.31
480.987	0.31
481.342	0.31
481.697	0.3
482.052	0.3
482.407	0.3
482.762	0.29
483.116	0.28
483.471	0.28
483.826	0.27
484.18	0.27
484.535	0.26
484.89	0.26
485.244	0.26
485.598	0.26
485.953	0.25
486.307	0.26
486.661	0.26
487.016	0.25
487.37	0.25
487.724	0.24
488.078	0.24
488.432	0.24
488.786	0.24
489.14	0.24
489.494	0.23
489.848	0.23
490.202	0.23
490.556	0.22
490.91	0.23
491.263	0.22
491.617	0.22
491.971	0.22
492.324	0.21
492.678	0.22
493.031	0.22
493.385	0.21
493.738	0.2
494.091	0.21
494.445	0.21
494.798	0.2
495.151	0.2
495.504	0.2
495.857	0.2
496.21	0.2
496.564	0.2
496.916	0.2
497.269	0.2
497.622	0.2
497.975	0.2
498.328	0.2
498.681	0.19
499.033	0.2
499.386	0.19
499.739	0.18
500.091	0.19
500.444	0.19
500.796	0.19
501.149	0.18
501.501	0.18
501.854	0.18
502.206	0.18
502.558	0.18
502.91	0.18
503.263	0.17
503.615	0.18
503.967	0.18
504.319	0.18
504.671	0.18
505.023	0.18
505.375	0.17
505.726	0.18
506.078	0.17
506.43	0.17
506.782	0.17
507.133	0.17
507.485	0.17
507.837	0.17
508.188	0.18
508.54	0.17
508.891	0.18
509.243	0.17
509.594	0.17
509.945	0.16
510.296	0.16
510.648	0.17
510.999	0.16
511.35	0.17
511.701	0.16
512.052	0.17
512.403	0.16
512.754	0.16
513.105	0.16
513.456	0.15
513.807	0.16
514.157	0.16
514.508	0.16
514.859	0.15
515.209	0.16
515.56	0.16
515.91	0.15
516.261	0.15
516.611	0.15
516.962	0.16
517.312	0.16
517.662	0.16
518.013	0.16
518.363	0.16
518.713	0.16
519.063	0.16
519.413	0.16
519.763	0.16
520.113	0.16
520.463	0.16
520.813	0.16
521.163	0.16
521.512	0.16
521.862	0.16
522.212	0.16
522.562	0.17
522.911	0.15
523.261	0.15
523.61	0.15
523.96	0.16
524.309	0.16
524.658	0.16
525.008	0.15
525.357	0.16
525.706	0.16
526.056	0.16
526.405	0.16
526.754	0.16
527.103	0.15
527.452	0.16
527.801	0.16
528.15	0.16
528.499	0.17
528.847	0.16
529.196	0.17
529.545	0.17
529.893	0.17
530.242	0.17
530.591	0.17
530.939	0.18
531.288	0.17
531.636	0.18
531.985	0.18
532.333	0.18
532.681	0.18
533.029	0.17
533.378	0.18
533.726	0.18
534.074	0.17
534.422	0.16
534.77	0.17
535.118	0.16
535.466	0.17
535.814	0.17
536.162	0.17
536.509	0.17
536.857	0.17
537.205	0.18
537.552	0.17
537.9	0.17
538.248	0.17
538.595	0.17
538.943	0.17
539.29	0.17
539.637	0.17
539.985	0.17
540.332	0.16
540.679	0.17
541.026	0.16
541.373	0.17
541.721	0.15
542.068	0.16
542.415	0.16
542.762	0.16
543.108	0.15
543.455	0.16
543.802	0.16
544.149	0.16
544.496	0.16
544.842	0.16
545.189	0.15
545.535	0.16
545.882	0.16
546.228	0.16
546.575	0.15
546.921	0.16
547.267	0.15
547.614	0.15
547.96	0.16
548.306	0.16
548.652	0.17
548.998	0.17
549.344	0.16
549.69	0.16
550.036	0.16
550.382	0.17
550.728	0.16
551.074	0.17
551.42	0.17
551.765	0.17
552.111	0.18
552.457	0.18
552.802	0.17
553.148	0.17
553.493	0.17
553.839	0.18
554.184	0.17
554.529	0.17
554.875	0.18
555.22	0.17
555.565	0.18
555.91	0.17
556.255	0.17
556.6	0.18
556.945	0.17
557.29	0.17
557.635	0.16
557.98	0.18
558.325	0.17
558.67	0.17
559.014	0.17
559.359	0.17
559.704	0.18
560.048	0.17
560.393	0.17
560.737	0.16
561.082	0.17
561.426	0.16
561.77	0.16
562.115	0.16
562.459	0.16
562.803	0.17
563.147	0.16
563.491	0.17
563.835	0.17
564.179	0.17
564.523	0.17
564.867	0.15
565.211	0.16
565.555	0.17
565.899	0.18
566.242	0.17
566.586	0.16
566.93	0.17
567.273	0.18
567.617	0.18
567.96	0.18
568.304	0.18
568.647	0.17
568.99	0.17
569.334	0.18
569.677	0.17
570.02	0.18
570.363	0.18
570.706	0.18
571.049	0.17
571.392	0.17
571.735	0.18
572.078	0.18
572.421	0.18
572.764	0.17
573.106	0.17
573.449	0.17
573.792	0.17
574.134	0.17
574.477	0.17
574.819	0.17
575.162	0.17
575.504	0.17
575.847	0.18
576.189	0.17
576.531	0.17
576.873	0.17
577.215	0.17
577.558	0.17
577.9	0.17
578.242	0.17
578.584	0.17
578.926	0.17
579.267	0.18
579.609	0.17
579.951	0.16
580.293	0.16
580.634	0.17
580.976	0.17
581.318	0.17
581.659	0.16
582.001	0.16
582.342	0.16
582.683	0.17
583.025	0.17
583.366	0.16
583.707	0.17
584.049	0.17
584.39	0.17
584.731	0.16
585.072	0.16
585.413	0.17
585.754	0.17
586.095	0.17
586.435	0.17
586.776	0.17
587.117	0.17
587.458	0.17
587.798	0.17
588.139	0.18
588.48	0.16
588.82	0.17
589.161	0.16
589.501	0.16
589.841	0.17
590.182	0.17
590.522	0.17
590.862	0.17
591.202	0.16
591.542	0.16
591.882	0.16
592.222	0.17
592.562	0.16
592.902	0.17
593.242	0.16
593.582	0.17
593.922	0.17
594.261	0.16
594.601	0.17
594.941	0.16
595.28	0.17
595.62	0.16
595.959	0.16
596.299	0.16
596.638	0.17
596.977	0.17
597.317	0.17
597.656	0.16
597.995	0.15
598.334	0.17
598.673	0.16
599.012	0.16
599.351	0.16
599.69	0.16
600.029	0.16
600.368	0.16
600.707	0.16
601.046	0.16
601.384	0.16
601.723	0.17
602.061	0.16
602.4	0.16
602.738	0.17
603.077	0.16
603.415	0.16
603.754	0.16
604.092	0.16
604.43	0.16
604.768	0.17
605.107	0.17
605.445	0.17
605.783	0.16
606.121	0.16
606.459	0.16
606.796	0.16
607.134	0.16
607.472	0.16
607.81	0.16
608.148	0.15
608.485	0.17
608.823	0.16
609.16	0.16
609.498	0.16
609.835	0.16
610.173	0.16
610.51	0.16
610.847	0.17
611.185	0.17
611.522	0.17
611.859	0.17
612.196	0.16
612.533	0.17
612.87	0.17
613.207	0.17
613.544	0.17
613.881	0.17
614.217	0.16
614.554	0.17
614.891	0.17
615.228	0.17
615.564	0.17
615.901	0.17
616.237	0.17
616.574	0.17
616.91	0.18
617.246	0.17
617.583	0.17
617.919	0.18
618.255	0.18
618.591	0.17
618.927	0.17
619.263	0.18
619.599	0.18
619.935	0.18
620.271	0.17
620.607	0.17
620.943	0.17
621.279	0.17
621.614	0.17
621.95	0.17
622.286	0.16
622.621	0.16
622.957	0.16
623.292	0.16
623.627	0.16
623.963	0.16
624.298	0.16
624.633	0.16
624.968	0.16
625.304	0.16
625.639	0.15
625.974	0.16
626.309	0.15
626.644	0.16
626.979	0.16
627.313	0.16
627.648	0.16
627.983	0.15
628.318	0.15
628.652	0.15
628.987	0.15
629.321	0.15
629.656	0.15
629.99	0.15
630.325	0.15
630.659	0.16
630.993	0.15
631.327	0.15
631.662	0.14
631.996	0.15
632.33	0.15
632.664	0.15
632.998	0.14
633.332	0.15
633.666	0.15
633.999	0.15
634.333	0.15
634.667	0.15
635.001	0.14
635.334	0.15
635.668	0.14
636.001	0.15
636.335	0.14
636.668	0.15
637.001	0.13
637.335	0.14
637.668	0.14
638.001	0.14
638.334	0.15
638.668	0.14
639.001	0.14
639.334	0.14
639.667	0.14
639.999	0.14
640.332	0.13
640.665	0.13
640.998	0.13
641.331	0.14
641.663	0.13
641.996	0.14
642.328	0.14
642.661	0.14
642.993	0.13
643.326	0.14
643.658	0.13
643.99	0.13
644.323	0.13
644.655	0.14
644.987	0.14
645.319	0.14
645.651	0.14
645.983	0.14
646.315	0.14
646.647	0.15
646.979	0.15
647.31	0.15
647.642	0.14
647.974	0.14
648.305	0.14
648.637	0.14
648.968	0.14
649.3	0.15
649.631	0.14
649.963	0.14
650.294	0.14
650.625	0.15
650.957	0.15
651.288	0.14
651.619	0.14
651.95	0.15
652.281	0.14
652.612	0.14
652.943	0.14
653.274	0.14
653.604	0.14
653.935	0.14
654.266	0.14
654.596	0.14
654.927	0.14
655.258	0.14
655.588	0.14
655.918	0.14
656.249	0.12
656.579	0.13
656.909	0.14
657.24	0.13
657.57	0.15
657.9	0.14
658.23	0.14
658.56	0.15
658.89	0.15
659.22	0.14
659.55	0.14
659.88	0.14
660.209	0.14
660.539	0.15
660.869	0.15
661.198	0.15
661.528	0.14
661.857	0.14
662.187	0.14
662.516	0.14
662.846	0.14
663.175	0.14
663.504	0.15
663.833	0.14
664.163	0.13
664.492	0.13
664.821	0.14
665.15	0.13
665.479	0.13
665.807	0.13
666.136	0.14
666.465	0.13
666.794	0.14
667.122	0.13
667.451	0.13
667.78	0.13
668.108	0.13
668.437	0.13
668.765	0.13
669.093	0.13
669.422	0.13
669.75	0.13
670.078	0.14
670.406	0.13
670.734	0.14
671.062	0.13
671.39	0.13
671.718	0.14
672.046	0.13
672.374	0.13
672.702	0.13
673.029	0.13
673.357	0.14
673.685	0.13
674.012	0.13
674.34	0.13
674.667	0.13
674.995	0.13
675.322	0.13
675.649	0.12
675.977	0.13
676.304	0.13
676.631	0.12
676.958	0.12
677.285	0.12
677.612	0.12
677.939	0.12
678.266	0.12
678.593	0.11
678.92	0.12
679.246	0.11
679.573	0.11
679.9	0.12
680.226	0.12
680.553	0.11
680.879	0.12
681.206	0.11
681.532	0.11
681.858	0.11
682.184	0.11
682.511	0.12
682.837	0.11
683.163	0.12
683.489	0.12
683.815	0.11
684.141	0.12
684.467	0.11
684.793	0.11
685.118	0.12
685.444	0.11
685.77	0.12
686.095	0.11
686.421	0.12
686.746	0.12
687.072	0.12
687.397	0.11
687.723	0.12
688.048	0.12
688.373	0.11
688.698	0.11
689.023	0.11
689.349	0.11
689.674	0.12
689.999	0.11
690.323	0.11
690.648	0.1
690.973	0.11
691.298	0.1
691.623	0.1
691.947	0.1
692.272	0.1
692.596	0.1
692.921	0.1
693.245	0.1
693.57	0.1
693.894	0.1
694.218	0.1
694.543	0.1
694.867	0.1
695.191	0.09
695.515	0.1
695.839	0.09
696.163	0.1
696.487	0.1
696.811	0.1
697.135	0.1
697.458	0.09
697.782	0.1
698.106	0.1
698.429	0.1
698.753	0.09
699.076	0.09
699.4	0.1
699.723	0.1
700.046	0.09
700.37	0.1
700.693	0.1
701.016	0.09
701.339	0.1
701.662	0.11
701.985	0.1
702.308	0.09
702.631	0.1
702.954	0.1
703.277	0.1
703.599	0.1
703.922	0.09
704.245	0.1
704.567	0.09
704.89	0.09
705.212	0.1
705.535	0.09
705.857	0.09
706.179	0.09
706.502	0.09
706.824	0.09
707.146	0.09
707.468	0.09
707.79	0.09
708.112	0.09
708.434	0.1
708.756	0.09
709.078	0.09
709.399	0.08
709.721	0.09
710.043	0.09
710.364	0.09
710.686	0.09
711.007	0.09
711.329	0.1
711.65	0.09
711.972	0.09
712.293	0.09
712.614	0.1
712.935	0.09
713.256	0.09
713.577	0.1
713.898	0.09
714.219	0.09
714.54	0.08
714.861	0.08
715.182	0.09
715.503	0.08
715.823	0.09
716.144	0.08
716.464	0.08
716.785	0.08
717.105	0.08
717.426	0.09
717.746	0.08
718.066	0.08
718.387	0.08
718.707	0.07
719.027	0.08
719.347	0.07
719.667	0.08
719.987	0.07
720.307	0.07
720.627	0.07
720.947	0.07
721.266	0.07
721.586	0.06
721.906	0.07
722.225	0.06
722.545	0.07
722.864	0.06
723.184	0.07
723.503	0.06
723.823	0.08
724.142	0.07
724.461	0.06
724.78	0.07
725.099	0.07
725.418	0.07
725.737	0.07
726.056	0.07
726.375	0.07
726.694	0.07
727.013	0.07
727.331	0.06
727.65	0.07
727.969	0.07
728.287	0.07
728.606	0.07
728.924	0.06
729.242	0.06
729.561	0.07
729.879	0.06
730.197	0.07
730.515	0.06
730.834	0.06
731.152	0.06
731.47	0.06
731.788	0.06
732.105	0.06
732.423	0.07
732.741	0.06
733.059	0.06
733.376	0.07
733.694	0.06
734.012	0.06
734.329	0.06
734.647	0.06
734.964	0.06
735.281	0.07
735.599	0.07
735.916	0.07
736.233	0.06
736.55	0.06
736.867	0.06
737.184	0.07
737.501	0.06
737.818	0.06
738.135	0.07
738.452	0.07
738.768	0.07
739.085	0.07
739.402	0.06
739.718	0.07
740.035	0.07
740.351	0.07
740.668	0.07
740.984	0.07
741.3	0.06
741.617	0.07
741.933	0.07
742.249	0.07
742.565	0.07
742.881	0.07
743.197	0.07
743.513	0.06
743.829	0.07
744.144	0.07
744.46	0.06
744.776	0.07
745.091	0.06
745.407	0.07
745.722	0.06
746.038	0.07
746.353	0.06
746.669	0.07
746.984	0.07
747.299	0.06
747.614	0.07
747.93	0.07
748.245	0.06
748.56	0.06
748.875	0.07
749.189	0.07
749.504	0.07
749.819	0.07
750.134	0.07
750.448	0.07
750.763	0.07
751.078	0.06
751.392	0.06
751.707	0.07
752.021	0.07
752.335	0.07
752.65	0.07
752.964	0.06
753.278	0.07
753.592	0.06
753.906	0.06
754.22	0.07
754.534	0.07
754.848	0.06
755.162	0.07
755.476	0.07
755.789	0.07
756.103	0.05
756.417	0.07
756.73	0.07
757.044	0.07
757.357	0.06
757.671	0.07
757.984	0.07
758.297	0.08
758.61	0.07
758.924	0.07
759.237	0.07
759.55	0.07
759.863	0.06
760.176	0.06
760.488	0.06
760.801	0.06
761.114	0.06
761.427	0.06
761.739	0.06
762.052	0.06
762.365	0.06
762.677	0.06
762.99	0.05
763.302	0.06
763.614	0.05
763.926	0.06
764.239	0.05
764.551	0.05
764.863	0.05
765.175	0.06
765.487	0.06
765.799	0.05
766.111	0.06
766.423	0.05
766.734	0.06
767.046	0.05
767.358	0.06
767.669	0.05
767.981	0.05
768.292	0.05
768.604	0.05
768.915	0.06
769.226	0.05
769.537	0.04
769.849	0.05
770.16	0.05
770.471	0.04
770.782	0.05
771.093	0.05
771.404	0.04
771.715	0.05
772.025	0.05
772.336	0.04
772.647	0.04
772.957	0.05
773.268	0.05
773.578	0.04
773.889	0.05
774.199	0.04
774.51	0.05
774.82	0.04
775.13	0.05
775.44	0.05
775.75	0.04
776.06	0.04
776.37	0.04
776.68	0.05
776.99	0.05
777.3	0.04
777.61	0.05
777.92	0.05
778.229	0.04
778.539	0.05
778.848	0.05
779.158	0.05
779.467	0.05
779.777	0.04
780.086	0.06
780.395	0.05
780.704	0.06
781.013	0.04
781.323	0.04
781.632	0.04
781.941	0.04
782.249	0.04
782.558	0.05
782.867	0.05
783.176	0.04
783.485	0.04
783.793	0.05
784.102	0.05
784.41	0.04
784.719	0.04
785.027	0.04
785.335	0.04
785.644	0.04
785.952	0.04
786.26	0.05
786.568	0.04
786.876	0.04
787.184	0.05
787.492	0.05
787.8	0.04
788.108	0.04
788.416	0.03
788.723	0.05
789.031	0.04
789.338	0.04
789.646	0.04
789.953	0.05
790.261	0.04
790.568	0.05
790.876	0.05
791.183	0.05
791.49	0.04
791.797	0.04
792.104	0.03
792.411	0.04
792.718	0.04
793.025	0.05
793.332	0.05
793.639	0.05
793.945	0.06
794.252	0.05
794.559	0.04
794.865	0.05
795.172	0.05
795.478	0.04
795.784	0.05
796.091	0.05
796.397	0.05
796.703	0.05
797.009	0.06
797.315	0.05
797.622	0.05
797.927	0.04
798.233	0.05
798.539	0.05
798.845	0.05
799.151	0.05
799.456	0.06
799.762	0.04
800.068	0.05
800.373	0.05
800.679	0.05
800.984	0.05
801.289	0.04
801.595	0.04
801.9	0.04
802.205	0.04
802.51	0.04
802.815	0.04
803.12	0.04
803.425	0.04
803.73	0.04
804.035	0.04
804.339	0.04
804.644	0.04
804.949	0.03
805.253	0.04
805.558	0.04
805.862	0.04
806.167	0.04
806.471	0.04
806.775	0.05
807.08	0.04
807.384	0.04
807.688	0.05
807.992	0.05
808.296	0.04
808.6	0.05
808.904	0.05
809.207	0.04
809.511	0.05
809.815	0.05
810.119	0.05
810.422	0.05
810.726	0.06
811.029	0.06
811.332	0.05
811.636	0.05
811.939	0.05
812.242	0.05
812.546	0.05
812.849	0.05
813.152	0.06
813.455	0.06
813.758	0.05
814.06	0.05
814.363	0.05
814.666	0.05
814.969	0.05
815.271	0.05
815.574	0.05
815.877	0.05
816.179	0.05
816.481	0.05
816.784	0.05
817.086	0.03
817.388	0.02
817.69	0.03
817.993	0.02
818.295	0.04
818.597	0.03
818.899	0.03
819.2	0.03
819.502	0.02
819.804	0.03
820.106	0.03
820.407	0.03
820.709	0.03
821.01	0.03
821.312	0.04
821.613	0.02
821.915	0.03
822.216	0.03
822.517	0.02
822.818	0.02
823.119	0.03
823.42	0.03
823.721	0.02
824.022	0.03
824.323	0.03
824.624	0.03
824.925	0.04
825.226	0.04
825.526	0.03
825.827	0.03
826.127	0.04
826.428	0.04
826.728	0.04
827.028	0.04
827.329	0.03
827.629	0.03
827.929	0.03
828.229	0.04
828.529	0.04
828.829	0.03
829.129	0.03
829.429	0.04
829.729	0.03
830.029	0.03
830.328	0.03
830.628	0.03
830.927	0.02
831.227	0.02
831.526	0.03
831.826	0.03
832.125	0.03
832.424	0.02
832.724	0.03
833.023	0.02
833.322	0.03
833.621	0.02
833.92	0.02
834.219	0.01
834.518	0.02
834.816	0.01
835.115	0.02
835.414	0.01
835.712	0.02
836.011	0.01
836.309	0.02
836.608	0.01
836.906	0.01
837.205	0.01
837.503	0
837.801	0.01
838.099	-0
838.397	-0.01
838.695	-0
838.993	-0
839.291	-0.01
839.589	-0.01
839.887	-0
840.184	-0.01
840.482	-0.02
840.78	-0.02
841.077	-0.02
841.375	-0.02
841.672	-0.02
841.969	-0.03
842.267	-0.02
842.564	-0.03
842.861	-0.02
843.158	-0.03
843.455	-0.04
843.752	-0.04
844.049	-0.04
844.346	-0.04
844.643	-0.04
844.94	-0.04
845.236	-0.03
845.533	-0.04
845.83	-0.04
846.126	-0.04
846.423	-0.04
846.719	-0.06
847.015	-0.04
847.312	-0.05
847.608	-0.06
847.904	-0.06
848.2	-0.06
848.496	-0.06
848.792	-0.05
849.088	-0.04
849.384	-0.06
849.68	-0.06
849.975	-0.06
850.271	-0.06
850.567	-0.06
850.862	-0.06
851.158	-0.06
851.453	-0.06
851.748	-0.07
852.044	-0.06
852.339	-0.06
852.634	-0.09
852.929	-0.06
853.224	-0.07
853.519	-0.08
853.814	-0.07
854.109	-0.08
854.404	-0.08
854.699	-0.08
854.994	-0.07
855.288	-0.07
855.583	-0.08
855.877	-0.09
856.172	-0.08
856.466	-0.08
856.76	-0.08
857.055	-0.08
857.349	-0.09
857.643	-0.09
857.937	-0.11
858.231	-0.1
858.525	-0.1
858.819	-0.1
859.113	-0.11
859.407	-0.11
859.701	-0.11
859.994	-0.12
860.288	-0.1
860.581	-0.11
860.875	-0.12
861.168	-0.12
861.462	-0.12
861.755	-0.12
862.048	-0.12
862.341	-0.12
862.634	-0.12
862.928	-0.12
863.221	-0.12
863.513	-0.13
863.806	-0.12
864.099	-0.12
864.392	-0.13
864.685	-0.13
864.977	-0.12
865.27	-0.13
865.562	-0.12
865.855	-0.13
866.147	-0.14
866.44	-0.12
866.732	-0.13
867.024	-0.14
867.316	-0.15
867.608	-0.14
867.9	-0.14
868.192	-0.15
868.484	-0.14
868.776	-0.15
869.068	-0.14
869.359	-0.15
869.651	-0.15
869.943	-0.16
870.234	-0.15
870.526	-0.16
870.817	-0.16
871.108	-0.14
871.4	-0.15
871.691	-0.16
871.982	-0.16
872.273	-0.17
872.564	-0.17
872.855	-0.17
873.146	-0.17
873.437	-0.17
873.728	-0.17
874.019	-0.17
874.309	-0.17
874.6	-0.17
874.89	-0.17
875.181	-0.18
875.471	-0.17
875.762	-0.16
876.052	-0.17
876.342	-0.16
876.632	-0.18
876.922	-0.19
877.213	-0.18
877.503	-0.18
877.792	-0.18
878.082	-0.17
878.372	-0.16
878.662	-0.19
878.952	-0.19
879.241	-0.18
879.531	-0.17
879.82	-0.19
880.11	-0.19
880.399	-0.19
880.688	-0.17
880.978	-0.17
881.267	-0.17
