Data from 12-12-AQDScycling_Absorbance__140__00140.txt Node

Date: Tue Dec 12 11:31:44 EST 2023
User: kyuminlee
Spectrometer: FLMS00943
Trigger mode: 0
Integration Time (sec): 1.000000E-1
Scans to average: 1
Electric dark correction enabled: true
Nonlinearity correction enabled: false
Boxcar width: 0
XAxis mode: Wavelengths
Number of Pixels in Spectrum: 2048
>>>>>Begin Spectral Data<<<<<
179.651	-0
180.037	-0
180.424	-0
180.81	-0
181.197	0.07
181.583	-0
181.97	-0.37
182.356	-0
182.743	-0.69
183.129	0.25
183.515	0.31
183.901	-2.22
184.288	-0
184.674	-0
185.06	-0.56
185.446	-0
185.832	-0
186.218	0.17
186.604	0.09
186.99	-0
187.376	-0
187.762	-0
188.148	-0
188.534	-0
188.92	0.17
189.305	0.02
189.691	0.15
190.077	0.11
190.463	0.13
190.848	0.27
191.234	0.02
191.619	0.03
192.005	0.04
192.391	0.12
192.776	0.28
193.161	0.16
193.547	0.22
193.932	0.04
194.318	0.02
194.703	0.12
195.088	0.17
195.473	0.14
195.859	0.07
196.244	0.15
196.629	0.14
197.014	0.04
197.399	0.15
197.784	0.29
198.169	0.07
198.554	0.19
198.939	0.21
199.324	0.25
199.709	0.12
200.094	0.14
200.478	0.01
200.863	0.23
201.248	0.15
201.633	0.12
202.017	0.21
202.402	0.23
202.787	0.1
203.171	0.19
203.556	0.2
203.94	0.18
204.325	0.27
204.709	0.16
205.093	0.16
205.478	0.15
205.862	0.26
206.246	0.19
206.631	0.2
207.015	0.11
207.399	0.15
207.783	0.1
208.167	0.17
208.551	0.15
208.935	0.22
209.319	0.23
209.703	0.2
210.087	0.23
210.471	0.09
210.855	0.13
211.239	0.23
211.623	0.25
212.007	0.24
212.39	0.35
212.774	0.1
213.158	0.11
213.541	0.21
213.925	0.18
214.309	0.42
214.692	0.21
215.076	0.18
215.459	0.15
215.842	0.12
216.226	0.33
216.609	0.3
216.993	0.15
217.376	0.53
217.759	0.19
218.142	0.31
218.525	0.58
218.909	0.44
219.292	0.38
219.675	0.45
220.058	0.3
220.441	0.58
220.824	0.5
221.207	0.47
221.59	0.46
221.973	0.5
222.355	0.61
222.738	0.78
223.121	0.6
223.504	0.51
223.886	0.64
224.269	0.8
224.652	0.75
225.034	0.8
225.417	0.72
225.799	0.71
226.182	0.89
226.564	0.91
226.947	0.73
227.329	0.8
227.711	0.93
228.094	1.03
228.476	0.86
228.858	0.9
229.24	0.77
229.623	0.79
230.005	0.87
230.387	0.84
230.769	0.83
231.151	0.97
231.533	0.95
231.915	1.02
232.297	1.18
232.679	1.01
233.061	1.15
233.442	0.94
233.824	0.99
234.206	1.09
234.588	1.27
234.969	1.08
235.351	1.02
235.733	1.01
236.114	1.12
236.496	1.17
236.877	1.04
237.259	0.96
237.64	1.01
238.022	1.03
238.403	0.94
238.784	0.96
239.165	0.95
239.547	1.15
239.928	1.15
240.309	1.07
240.69	1
241.071	1.11
241.452	0.97
241.834	1.13
242.215	1.14
242.595	1.07
242.976	1.04
243.357	1.1
243.738	1.05
244.119	1.24
244.5	1.25
244.881	1.31
245.261	1.26
245.642	1.24
246.023	1.2
246.403	1.13
246.784	1.32
247.164	1.45
247.545	1.24
247.925	1.44
248.306	1.2
248.686	1.37
249.067	1.3
249.447	1.43
249.827	1.63
250.207	1.49
250.588	1.34
250.968	1.52
251.348	1.31
251.728	1.5
252.108	1.56
252.488	1.35
252.868	1.32
253.248	1.25
253.628	1.36
254.008	1.55
254.388	1.32
254.768	1.33
255.147	1.32
255.527	1.43
255.907	1.42
256.287	1.37
256.666	1.44
257.046	1.5
257.425	1.64
257.805	1.28
258.184	1.35
258.564	1.32
258.943	1.28
259.323	1.48
259.702	1.39
260.081	1.4
260.461	1.45
260.84	1.66
261.219	1.65
261.598	1.54
261.977	1.4
262.356	1.61
262.736	1.54
263.115	1.63
263.494	1.41
263.873	1.52
264.251	1.47
264.63	1.62
265.009	1.44
265.388	1.43
265.767	1.48
266.145	1.39
266.524	1.43
266.903	1.29
267.281	1.33
267.66	1.54
268.039	1.44
268.417	1.35
268.796	1.39
269.174	1.44
269.552	1.31
269.931	1.47
270.309	1.45
270.687	1.69
271.066	1.55
271.444	1.5
271.822	1.36
272.2	1.44
272.578	1.63
272.956	1.4
273.334	1.44
273.712	1.49
274.09	1.44
274.468	1.33
274.846	1.28
275.224	1.47
275.602	1.33
275.98	1.58
276.357	1.47
276.735	1.44
277.113	1.41
277.49	1.35
277.868	1.34
278.246	1.34
278.623	1.4
279.001	1.49
279.378	1.36
279.756	1.54
280.133	1.77
280.51	1.44
280.888	1.45
281.265	1.33
281.642	1.49
282.019	1.51
282.396	1.79
282.773	1.43
283.151	1.42
283.528	1.42
283.905	1.5
284.282	1.45
284.659	1.6
285.035	1.54
285.412	1.3
285.789	1.55
286.166	1.59
286.543	1.48
286.919	1.6
287.296	1.44
287.673	1.68
288.049	1.52
288.426	1.52
288.802	1.53
289.179	1.47
289.555	1.55
289.932	1.45
290.308	1.28
290.684	1.37
291.061	1.31
291.437	1.39
291.813	1.37
292.189	1.39
292.565	1.3
292.942	1.33
293.318	1.35
293.694	1.41
294.07	1.38
294.446	1.49
294.822	1.49
295.197	1.48
295.573	1.46
295.949	1.37
296.325	1.36
296.701	1.46
297.076	1.46
297.452	1.4
297.828	1.38
298.203	1.57
298.579	1.36
298.954	1.31
299.33	1.36
299.705	1.28
300.081	1.35
300.456	1.35
300.831	1.26
301.206	1.22
301.582	1.32
301.957	1.12
302.332	1.28
302.707	1.18
303.082	1.15
303.457	1.15
303.832	1.16
304.207	1.09
304.582	1.14
304.957	1.13
305.332	1.08
305.707	1.06
306.082	1.05
306.456	1.14
306.831	1.02
307.206	0.98
307.58	1.02
307.955	0.96
308.33	0.97
308.704	0.93
309.079	0.89
309.453	0.96
309.828	0.88
310.202	0.87
310.576	0.84
310.951	0.88
311.325	0.87
311.699	0.87
312.073	0.8
312.447	0.82
312.821	0.81
313.196	0.8
313.57	0.78
313.944	0.74
314.317	0.75
314.691	0.79
315.065	0.78
315.439	0.72
315.813	0.75
316.187	0.72
316.56	0.76
316.934	0.72
317.308	0.72
317.681	0.7
318.055	0.68
318.428	0.69
318.802	0.67
319.175	0.69
319.549	0.68
319.922	0.7
320.295	0.68
320.669	0.67
321.042	0.7
321.415	0.71
321.788	0.66
322.162	0.64
322.535	0.71
322.908	0.66
323.281	0.64
323.654	0.66
324.027	0.65
324.4	0.67
324.773	0.67
325.145	0.65
325.518	0.64
325.891	0.64
326.264	0.67
326.636	0.66
327.009	0.66
327.382	0.67
327.754	0.69
328.127	0.64
328.499	0.67
328.872	0.67
329.244	0.69
329.616	0.69
329.989	0.7
330.361	0.7
330.733	0.7
331.106	0.68
331.478	0.71
331.85	0.73
332.222	0.7
332.594	0.73
332.966	0.73
333.338	0.79
333.71	0.74
334.082	0.78
334.454	0.74
334.826	0.77
335.197	0.76
335.569	0.8
335.941	0.77
336.312	0.8
336.684	0.82
337.056	0.84
337.427	0.85
337.799	0.83
338.17	0.84
338.542	0.85
338.913	0.86
339.284	0.87
339.656	0.86
340.027	0.89
340.398	0.89
340.769	0.92
341.141	0.95
341.512	0.92
341.883	0.93
342.254	0.95
342.625	0.97
342.996	0.97
343.367	0.97
343.738	1
344.108	0.97
344.479	1.06
344.85	1
345.221	1.06
345.591	1.02
345.962	1.1
346.333	1.09
346.703	1.04
347.074	1.05
347.444	1.06
347.815	1.09
348.185	1.09
348.556	1.07
348.926	1.08
349.296	1.1
349.666	1.2
350.037	1.1
350.407	1.16
350.777	1.13
351.147	1.21
351.517	1.23
351.887	1.25
352.257	1.29
352.627	1.16
352.997	1.21
353.367	1.3
353.737	1.32
354.106	1.29
354.476	1.26
354.846	1.33
355.216	1.4
355.585	1.5
355.955	1.45
356.324	1.41
356.694	1.34
357.063	1.48
357.433	1.44
357.802	1.43
358.171	1.46
358.541	1.43
358.91	1.48
359.279	1.54
359.648	1.45
360.017	1.56
360.387	1.63
360.756	1.34
361.125	1.56
361.494	1.67
361.863	1.54
362.231	1.54
362.6	1.63
362.969	1.56
363.338	1.53
363.707	1.98
364.075	1.71
364.444	1.49
364.813	1.45
365.181	1.38
365.55	1.5
365.918	1.62
366.287	1.74
366.655	1.74
367.024	1.57
367.392	1.65
367.76	1.53
368.128	1.67
368.497	1.52
368.865	1.69
369.233	1.53
369.601	1.49
369.969	1.52
370.337	1.61
370.705	1.5
371.073	1.71
371.441	1.58
371.809	1.39
372.177	1.57
372.544	1.54
372.912	1.72
373.28	1.45
373.647	1.6
374.015	1.75
374.383	2.09
374.75	1.73
375.118	1.56
375.485	1.56
375.853	1.7
376.22	1.56
376.587	1.56
376.955	1.66
377.322	1.58
377.689	1.54
378.056	1.5
378.423	1.51
378.79	1.64
379.157	1.7
379.524	1.64
379.891	1.5
380.258	1.74
380.625	1.55
380.992	1.52
381.359	1.57
381.726	1.69
382.092	1.5
382.459	1.65
382.826	1.59
383.192	1.56
383.559	1.5
383.925	1.74
384.292	1.57
384.658	1.67
385.025	1.46
385.391	1.72
385.757	1.61
386.123	1.6
386.49	1.67
386.856	1.61
387.222	1.57
387.588	1.46
387.954	1.77
388.32	1.58
388.686	1.66
389.052	1.47
389.418	1.65
389.784	1.52
390.15	1.58
390.515	1.43
390.881	1.64
391.247	1.57
391.613	1.8
391.978	1.46
392.344	1.7
392.709	1.59
393.075	1.6
393.44	1.67
393.806	1.7
394.171	1.49
394.536	1.51
394.902	1.51
395.267	1.49
395.632	1.54
395.997	1.49
396.362	1.46
396.727	1.54
397.092	1.52
397.457	1.61
397.822	1.52
398.187	1.71
398.552	1.52
398.917	1.52
399.282	1.44
399.646	1.7
400.011	1.56
400.376	1.54
400.74	1.59
401.105	1.49
401.47	1.76
401.834	1.66
402.199	1.47
402.563	1.61
402.927	1.5
403.292	1.58
403.656	1.68
404.02	1.61
404.384	1.51
404.749	1.57
405.113	1.7
405.477	1.69
405.841	1.54
406.205	1.67
406.569	1.57
406.933	1.52
407.296	1.53
407.66	1.53
408.024	1.57
408.388	1.62
408.752	1.69
409.115	1.75
409.479	1.63
409.842	1.58
410.206	1.64
410.569	1.51
410.933	1.62
411.296	1.46
411.66	1.74
412.023	1.53
412.386	1.51
412.749	1.58
413.113	1.6
413.476	1.42
413.839	1.54
414.202	1.53
414.565	1.44
414.928	1.52
415.291	1.43
415.654	1.52
416.017	1.43
416.38	1.52
416.742	1.54
417.105	1.51
417.468	1.47
417.83	1.53
418.193	1.52
418.556	1.62
418.918	1.47
419.281	1.52
419.643	1.7
420.005	1.46
420.368	1.56
420.73	1.46
421.092	1.57
421.455	1.52
421.817	1.39
422.179	1.51
422.541	1.61
422.903	1.8
423.265	1.6
423.627	1.54
423.989	1.54
424.351	1.55
424.713	1.67
425.075	1.48
425.436	1.53
425.798	1.49
426.16	1.56
426.521	1.51
426.883	1.63
427.245	1.71
427.606	1.47
427.967	1.45
428.329	1.57
428.69	1.57
429.052	1.49
429.413	1.61
429.774	1.59
430.135	1.49
430.497	1.63
430.858	1.61
431.219	1.59
431.58	1.54
431.941	1.59
432.302	1.46
432.663	1.57
433.024	1.62
433.384	1.64
433.745	1.55
434.106	1.66
434.467	1.56
434.827	1.72
435.188	1.59
435.548	1.55
435.909	1.55
436.269	1.52
436.63	1.47
436.99	1.59
437.351	1.41
437.711	1.57
438.071	1.48
438.431	1.48
438.792	1.55
439.152	1.51
439.512	1.44
439.872	1.4
440.232	1.56
440.592	1.44
440.952	1.52
441.312	1.36
441.671	1.42
442.031	1.47
442.391	1.44
442.751	1.53
443.11	1.57
443.47	1.4
443.83	1.38
444.189	1.37
444.549	1.42
444.908	1.39
445.267	1.52
445.627	1.45
445.986	1.39
446.345	1.39
446.705	1.4
447.064	1.43
447.423	1.32
447.782	1.36
448.141	1.33
448.5	1.32
448.859	1.33
449.218	1.36
449.577	1.34
449.936	1.31
450.295	1.34
450.653	1.33
451.012	1.31
451.371	1.32
451.729	1.32
452.088	1.26
452.447	1.29
452.805	1.29
453.163	1.27
453.522	1.28
453.88	1.24
454.239	1.25
454.597	1.21
454.955	1.17
455.313	1.2
455.671	1.18
456.029	1.2
456.388	1.16
456.746	1.15
457.104	1.16
457.461	1.1
457.819	1.12
458.177	1.09
458.535	1.08
458.893	1.06
459.25	1.07
459.608	1.07
459.966	1.04
460.323	1.02
460.681	0.99
461.038	0.97
461.396	0.96
461.753	0.95
462.111	0.95
462.468	0.93
462.825	0.92
463.182	0.92
463.54	0.88
463.897	0.9
464.254	0.87
464.611	0.86
464.968	0.83
465.325	0.84
465.682	0.82
466.039	0.82
466.395	0.8
466.752	0.79
467.109	0.76
467.466	0.77
467.822	0.77
468.179	0.73
468.535	0.73
468.892	0.71
469.248	0.7
469.605	0.69
469.961	0.68
470.318	0.68
470.674	0.67
471.03	0.65
471.386	0.65
471.743	0.62
472.099	0.62
472.455	0.61
472.811	0.6
473.167	0.58
473.523	0.57
473.879	0.56
474.235	0.55
474.59	0.53
474.946	0.52
475.302	0.52
475.657	0.52
476.013	0.5
476.369	0.48
476.724	0.49
477.08	0.47
477.435	0.46
477.791	0.47
478.146	0.45
478.501	0.44
478.857	0.43
479.212	0.43
479.567	0.42
479.922	0.4
480.277	0.4
480.632	0.39
480.987	0.39
481.342	0.37
481.697	0.37
482.052	0.35
482.407	0.35
482.762	0.34
483.116	0.33
483.471	0.32
483.826	0.32
484.18	0.31
484.535	0.31
484.89	0.3
485.244	0.29
485.598	0.29
485.953	0.29
486.307	0.28
486.661	0.28
487.016	0.26
487.37	0.27
487.724	0.26
488.078	0.25
488.432	0.24
488.786	0.24
489.14	0.23
489.494	0.23
489.848	0.22
490.202	0.22
490.556	0.22
490.91	0.22
491.263	0.21
491.617	0.21
491.971	0.2
492.324	0.19
492.678	0.2
493.031	0.19
493.385	0.18
493.738	0.18
494.091	0.18
494.445	0.18
494.798	0.17
495.151	0.16
495.504	0.17
495.857	0.16
496.21	0.16
496.564	0.15
496.916	0.16
497.269	0.15
497.622	0.15
497.975	0.14
498.328	0.14
498.681	0.14
499.033	0.14
499.386	0.13
499.739	0.13
500.091	0.13
500.444	0.13
500.796	0.12
501.149	0.11
501.501	0.12
501.854	0.12
502.206	0.12
502.558	0.12
502.91	0.12
503.263	0.12
503.615	0.11
503.967	0.11
504.319	0.11
504.671	0.11
505.023	0.1
505.375	0.1
505.726	0.1
506.078	0.1
506.43	0.09
506.782	0.09
507.133	0.09
507.485	0.09
507.837	0.09
508.188	0.08
508.54	0.09
508.891	0.09
509.243	0.09
509.594	0.09
509.945	0.09
510.296	0.08
510.648	0.09
510.999	0.07
511.35	0.07
511.701	0.08
512.052	0.07
512.403	0.07
512.754	0.07
513.105	0.07
513.456	0.07
513.807	0.06
514.157	0.07
514.508	0.07
514.859	0.06
515.209	0.06
515.56	0.06
515.91	0.06
516.261	0.07
516.611	0.06
516.962	0.06
517.312	0.06
517.662	0.06
518.013	0.06
518.363	0.06
518.713	0.07
519.063	0.05
519.413	0.06
519.763	0.05
520.113	0.06
520.463	0.06
520.813	0.06
521.163	0.07
521.512	0.06
521.862	0.06
522.212	0.06
522.562	0.06
522.911	0.06
523.261	0.05
523.61	0.05
523.96	0.06
524.309	0.06
524.658	0.06
525.008	0.05
525.357	0.06
525.706	0.06
526.056	0.06
526.405	0.05
526.754	0.06
527.103	0.05
527.452	0.05
527.801	0.05
528.15	0.05
528.499	0.05
528.847	0.05
529.196	0.06
529.545	0.06
529.893	0.06
530.242	0.06
530.591	0.06
530.939	0.07
531.288	0.07
531.636	0.06
531.985	0.06
532.333	0.06
532.681	0.06
533.029	0.06
533.378	0.06
533.726	0.06
534.074	0.06
534.422	0.05
534.77	0.06
535.118	0.05
535.466	0.05
535.814	0.05
536.162	0.06
536.509	0.05
536.857	0.06
537.205	0.06
537.552	0.06
537.9	0.06
538.248	0.05
538.595	0.06
538.943	0.05
539.29	0.05
539.637	0.05
539.985	0.05
540.332	0.04
540.679	0.04
541.026	0.05
541.373	0.05
541.721	0.04
542.068	0.04
542.415	0.04
542.762	0.04
543.108	0.04
543.455	0.04
543.802	0.04
544.149	0.05
544.496	0.04
544.842	0.04
545.189	0.03
545.535	0.04
545.882	0.05
546.228	0.04
546.575	0.04
546.921	0.04
547.267	0.04
547.614	0.04
547.96	0.04
548.306	0.04
548.652	0.04
548.998	0.05
549.344	0.04
549.69	0.04
550.036	0.04
550.382	0.04
550.728	0.04
551.074	0.05
551.42	0.05
551.765	0.05
552.111	0.05
552.457	0.05
552.802	0.05
553.148	0.04
553.493	0.05
553.839	0.04
554.184	0.05
554.529	0.04
554.875	0.05
555.22	0.05
555.565	0.04
555.91	0.04
556.255	0.05
556.6	0.05
556.945	0.04
557.29	0.05
557.635	0.04
557.98	0.05
558.325	0.05
558.67	0.05
559.014	0.05
559.359	0.05
559.704	0.05
560.048	0.04
560.393	0.04
560.737	0.03
561.082	0.04
561.426	0.03
561.77	0.04
562.115	0.03
562.459	0.04
562.803	0.04
563.147	0.04
563.491	0.04
563.835	0.04
564.179	0.04
564.523	0.04
564.867	0.04
565.211	0.04
565.555	0.04
565.899	0.04
566.242	0.03
566.586	0.03
566.93	0.04
567.273	0.05
567.617	0.04
567.96	0.05
568.304	0.05
568.647	0.03
568.99	0.04
569.334	0.05
569.677	0.04
570.02	0.05
570.363	0.05
570.706	0.05
571.049	0.04
571.392	0.05
571.735	0.03
572.078	0.05
572.421	0.05
572.764	0.04
573.106	0.04
573.449	0.04
573.792	0.04
574.134	0.04
574.477	0.05
574.819	0.04
575.162	0.04
575.504	0.04
575.847	0.04
576.189	0.04
576.531	0.04
576.873	0.04
577.215	0.05
577.558	0.04
577.9	0.04
578.242	0.03
578.584	0.04
578.926	0.04
579.267	0.04
579.609	0.04
579.951	0.03
580.293	0.03
580.634	0.03
580.976	0.03
581.318	0.03
581.659	0.02
582.001	0.03
582.342	0.03
582.683	0.04
583.025	0.03
583.366	0.03
583.707	0.03
584.049	0.03
584.39	0.04
584.731	0.04
585.072	0.03
585.413	0.04
585.754	0.04
586.095	0.05
586.435	0.05
586.776	0.04
587.117	0.04
587.458	0.04
587.798	0.03
588.139	0.03
588.48	0.03
588.82	0.04
589.161	0.04
589.501	0.04
589.841	0.04
590.182	0.04
590.522	0.03
590.862	0.03
591.202	0.04
591.542	0.03
591.882	0.04
592.222	0.04
592.562	0.04
592.902	0.03
593.242	0.03
593.582	0.04
593.922	0.04
594.261	0.04
594.601	0.04
594.941	0.04
595.28	0.04
595.62	0.04
595.959	0.04
596.299	0.04
596.638	0.03
596.977	0.04
597.317	0.04
597.656	0.04
597.995	0.04
598.334	0.04
598.673	0.03
599.012	0.03
599.351	0.03
599.69	0.03
600.029	0.03
600.368	0.04
600.707	0.04
601.046	0.04
601.384	0.04
601.723	0.04
602.061	0.03
602.4	0.04
602.738	0.04
603.077	0.03
603.415	0.04
603.754	0.04
604.092	0.03
604.43	0.04
604.768	0.04
605.107	0.04
605.445	0.03
605.783	0.04
606.121	0.04
606.459	0.03
606.796	0.04
607.134	0.03
607.472	0.04
607.81	0.04
608.148	0.03
608.485	0.04
608.823	0.03
609.16	0.04
609.498	0.03
609.835	0.03
610.173	0.04
610.51	0.04
610.847	0.04
611.185	0.04
611.522	0.04
611.859	0.05
612.196	0.04
612.533	0.05
612.87	0.04
613.207	0.05
613.544	0.04
613.881	0.05
614.217	0.05
614.554	0.05
614.891	0.05
615.228	0.05
615.564	0.05
615.901	0.05
616.237	0.05
616.574	0.05
616.91	0.06
617.246	0.06
617.583	0.05
617.919	0.06
618.255	0.06
618.591	0.06
618.927	0.05
619.263	0.06
619.599	0.06
619.935	0.05
620.271	0.06
620.607	0.05
620.943	0.05
621.279	0.05
621.614	0.05
621.95	0.06
622.286	0.05
622.621	0.05
622.957	0.04
623.292	0.04
623.627	0.05
623.963	0.03
624.298	0.04
624.633	0.04
624.968	0.04
625.304	0.04
625.639	0.04
625.974	0.03
626.309	0.04
626.644	0.04
626.979	0.04
627.313	0.04
627.648	0.04
627.983	0.05
628.318	0.03
628.652	0.04
628.987	0.04
629.321	0.04
629.656	0.03
629.99	0.04
630.325	0.04
630.659	0.04
630.993	0.04
631.327	0.04
631.662	0.04
631.996	0.04
632.33	0.04
632.664	0.04
632.998	0.04
633.332	0.04
633.666	0.04
633.999	0.04
634.333	0.03
634.667	0.04
635.001	0.03
635.334	0.03
635.668	0.03
636.001	0.03
636.335	0.04
636.668	0.04
637.001	0.02
637.335	0.03
637.668	0.03
638.001	0.02
638.334	0.04
638.668	0.03
639.001	0.03
639.334	0.02
639.667	0.03
639.999	0.03
640.332	0.03
640.665	0.03
640.998	0.04
641.331	0.03
641.663	0.03
641.996	0.03
642.328	0.04
642.661	0.04
642.993	0.03
643.326	0.03
643.658	0.04
643.99	0.03
644.323	0.03
644.655	0.04
644.987	0.04
645.319	0.04
645.651	0.04
645.983	0.04
646.315	0.03
646.647	0.04
646.979	0.05
647.31	0.04
647.642	0.04
647.974	0.04
648.305	0.05
648.637	0.04
648.968	0.04
649.3	0.04
649.631	0.05
649.963	0.04
650.294	0.05
650.625	0.04
650.957	0.05
651.288	0.04
651.619	0.05
651.95	0.05
652.281	0.05
652.612	0.04
652.943	0.04
653.274	0.05
653.604	0.05
653.935	0.04
654.266	0.05
654.596	0.04
654.927	0.04
655.258	0.04
655.588	0.04
655.918	0.04
656.249	0.03
656.579	0.04
656.909	0.04
657.24	0.04
657.57	0.04
657.9	0.05
658.23	0.04
658.56	0.05
658.89	0.05
659.22	0.04
659.55	0.04
659.88	0.05
660.209	0.05
660.539	0.06
660.869	0.05
661.198	0.04
661.528	0.05
661.857	0.05
662.187	0.05
662.516	0.04
662.846	0.04
663.175	0.04
663.504	0.04
663.833	0.04
664.163	0.05
664.492	0.04
664.821	0.04
665.15	0.04
665.479	0.04
665.807	0.04
666.136	0.04
666.465	0.04
666.794	0.04
667.122	0.04
667.451	0.04
667.78	0.04
668.108	0.05
668.437	0.04
668.765	0.04
669.093	0.04
669.422	0.05
669.75	0.05
670.078	0.04
670.406	0.05
670.734	0.04
671.062	0.04
671.39	0.04
671.718	0.04
672.046	0.04
672.374	0.04
672.702	0.04
673.029	0.04
673.357	0.04
673.685	0.05
674.012	0.04
674.34	0.04
674.667	0.05
674.995	0.05
675.322	0.04
675.649	0.03
675.977	0.04
676.304	0.05
676.631	0.03
676.958	0.04
677.285	0.04
677.612	0.04
677.939	0.03
678.266	0.04
678.593	0.04
678.92	0.04
679.246	0.03
679.573	0.03
679.9	0.03
680.226	0.03
680.553	0.03
680.879	0.03
681.206	0.04
681.532	0.03
681.858	0.04
682.184	0.03
682.511	0.04
682.837	0.04
683.163	0.04
683.489	0.03
683.815	0.03
684.141	0.03
684.467	0.03
684.793	0.03
685.118	0.04
685.444	0.04
685.77	0.03
686.095	0.04
686.421	0.03
686.746	0.04
687.072	0.04
687.397	0.04
687.723	0.04
688.048	0.05
688.373	0.04
688.698	0.04
689.023	0.04
689.349	0.04
689.674	0.04
689.999	0.04
690.323	0.02
690.648	0.02
690.973	0.02
691.298	0.02
691.623	0.02
691.947	0.03
692.272	0.03
692.596	0.03
692.921	0.03
693.245	0.02
693.57	0.03
693.894	0.03
694.218	0.03
694.543	0.03
694.867	0.02
695.191	0.02
695.515	0.04
695.839	0.02
696.163	0.03
696.487	0.02
696.811	0.02
697.135	0.03
697.458	0.03
697.782	0.03
698.106	0.03
698.429	0.03
698.753	0.03
699.076	0.03
699.4	0.03
699.723	0.03
700.046	0.03
700.37	0.04
700.693	0.04
701.016	0.03
701.339	0.04
701.662	0.04
701.985	0.04
702.308	0.03
702.631	0.03
702.954	0.04
703.277	0.04
703.599	0.04
703.922	0.03
704.245	0.03
704.567	0.03
704.89	0.03
705.212	0.04
705.535	0.03
705.857	0.04
706.179	0.02
706.502	0.03
706.824	0.02
707.146	0.02
707.468	0.03
707.79	0.03
708.112	0.03
708.434	0.03
708.756	0.03
709.078	0.03
709.399	0.03
709.721	0.03
710.043	0.03
710.364	0.03
710.686	0.04
711.007	0.03
711.329	0.03
711.65	0.03
711.972	0.03
712.293	0.04
712.614	0.04
712.935	0.03
713.256	0.04
713.577	0.04
713.898	0.03
714.219	0.02
714.54	0.03
714.861	0.02
715.182	0.04
715.503	0.03
715.823	0.02
716.144	0.03
716.464	0.03
716.785	0.03
717.105	0.03
717.426	0.03
717.746	0.02
718.066	0.02
718.387	0.02
718.707	0.02
719.027	0.03
719.347	0.02
719.667	0.02
719.987	0.02
720.307	0.02
720.627	0.01
720.947	0.02
721.266	0.02
721.586	0.02
721.906	0.02
722.225	0.01
722.545	0.01
722.864	0.01
723.184	0.02
723.503	0.02
723.823	0.03
724.142	0.01
724.461	0.02
724.78	0.02
725.099	0.02
725.418	0.02
725.737	0.02
726.056	0.03
726.375	0.02
726.694	0.02
727.013	0.02
727.331	0.01
727.65	0.01
727.969	0.02
728.287	0.02
728.606	0.02
728.924	0.02
729.242	0.01
729.561	0.02
729.879	0.02
730.197	0.02
730.515	0.02
730.834	0.02
731.152	0.02
731.47	0.02
731.788	0.01
732.105	0.02
732.423	0.01
732.741	0.02
733.059	0.01
733.376	0.02
733.694	0.01
734.012	0.02
734.329	0.02
734.647	0.01
734.964	0.02
735.281	0.02
735.599	0.02
735.916	0.02
736.233	0.02
736.55	0.02
736.867	0.03
737.184	0.03
737.501	0.02
737.818	0.02
738.135	0.03
738.452	0.02
738.768	0.03
739.085	0.03
739.402	0.01
739.718	0.03
740.035	0.03
740.351	0.02
740.668	0.03
740.984	0.03
741.3	0.03
741.617	0.03
741.933	0.03
742.249	0.03
742.565	0.04
742.881	0.04
743.197	0.03
743.513	0.03
743.829	0.03
744.144	0.03
744.46	0.03
744.776	0.03
745.091	0.03
745.407	0.03
745.722	0.03
746.038	0.03
746.353	0.02
746.669	0.03
746.984	0.02
747.299	0.02
747.614	0.03
747.93	0.03
748.245	0.03
748.56	0.03
748.875	0.03
749.189	0.03
749.504	0.02
749.819	0.03
750.134	0.03
750.448	0.03
750.763	0.03
751.078	0.02
751.392	0.02
751.707	0.04
752.021	0.04
752.335	0.03
752.65	0.03
752.964	0.03
753.278	0.04
753.592	0.03
753.906	0.04
754.22	0.04
754.534	0.03
754.848	0.03
755.162	0.02
755.476	0.04
755.789	0.04
756.103	0.03
756.417	0.04
756.73	0.03
757.044	0.04
757.357	0.03
757.671	0.04
757.984	0.04
758.297	0.03
758.61	0.04
758.924	0.04
759.237	0.03
759.55	0.04
759.863	0.03
760.176	0.03
760.488	0.03
760.801	0.03
761.114	0.03
761.427	0.03
761.739	0.03
762.052	0.02
762.365	0.03
762.677	0.03
762.99	0.03
763.302	0.03
763.614	0.02
763.926	0.04
764.239	0.03
764.551	0.02
764.863	0.02
765.175	0.03
765.487	0.03
765.799	0.03
766.111	0.02
766.423	0.02
766.734	0.02
767.046	0.02
767.358	0.02
767.669	0.02
767.981	0.02
768.292	0.02
768.604	0.03
768.915	0.02
769.226	0.02
769.537	0.01
769.849	0.02
770.16	0.02
770.471	0.02
770.782	0.02
771.093	0.02
771.404	0.01
771.715	0.02
772.025	0.03
772.336	0.02
772.647	0.02
772.957	0.02
773.268	0.02
773.578	0.02
773.889	0.03
774.199	0.02
774.51	0.02
774.82	0.02
775.13	0.02
775.44	0.02
775.75	0.03
776.06	0.03
776.37	0.02
776.68	0.03
776.99	0.02
777.3	0.01
777.61	0.03
777.92	0.03
778.229	0.01
778.539	0.02
778.848	0.03
779.158	0.03
779.467	0.03
779.777	0.02
780.086	0.03
780.395	0.02
780.704	0.02
781.013	0.02
781.323	0.02
781.632	0.03
781.941	0.02
782.249	0.03
782.558	0.02
782.867	0.03
783.176	0.02
783.485	0.02
783.793	0.03
784.102	0.02
784.41	0.02
784.719	0.02
785.027	0.02
785.335	0.02
785.644	0.02
785.952	0.02
786.26	0.01
786.568	0.02
786.876	0.01
787.184	0.02
787.492	0.02
787.8	0.02
788.108	0.02
788.416	0.02
788.723	0.02
789.031	0.02
789.338	0.02
789.646	0.01
789.953	0.02
790.261	0.02
790.568	0.03
790.876	0.03
791.183	0.03
791.49	0.02
791.797	0.02
792.104	0.01
792.411	0.02
792.718	0.02
793.025	0.02
793.332	0.03
793.639	0.03
793.945	0.03
794.252	0.03
794.559	0.03
794.865	0.03
795.172	0.03
795.478	0.03
795.784	0.04
796.091	0.04
796.397	0.04
796.703	0.03
797.009	0.04
797.315	0.04
797.622	0.04
797.927	0.03
798.233	0.03
798.539	0.04
798.845	0.03
799.151	0.04
799.456	0.03
799.762	0.02
800.068	0.02
800.373	0.04
800.679	0.03
800.984	0.02
801.289	0.02
801.595	0.02
801.9	0.02
802.205	0.02
802.51	0.03
802.815	0.03
803.12	0.03
803.425	0.02
803.73	0.02
804.035	0.02
804.339	0.02
804.644	0.02
804.949	0.03
805.253	0.02
805.558	0.03
805.862	0.03
806.167	0.03
806.471	0.03
806.775	0.03
807.08	0.03
807.384	0.03
807.688	0.03
807.992	0.03
808.296	0.03
808.6	0.03
808.904	0.03
809.207	0.03
809.511	0.04
809.815	0.04
810.119	0.03
810.422	0.04
810.726	0.04
811.029	0.04
811.332	0.04
811.636	0.04
811.939	0.03
812.242	0.04
812.546	0.04
812.849	0.04
813.152	0.05
813.455	0.04
813.758	0.04
814.06	0.04
814.363	0.04
814.666	0.04
814.969	0.04
815.271	0.04
815.574	0.03
815.877	0.03
816.179	0.03
816.481	0.03
816.784	0.03
817.086	0.02
817.388	0.02
817.69	0.02
817.993	0.01
818.295	0.02
818.597	0.02
818.899	0.02
819.2	0.01
819.502	0.01
819.804	0.02
820.106	0.01
820.407	0.02
820.709	0.03
821.01	0.03
821.312	0.02
821.613	0.02
821.915	0.02
822.216	0.02
822.517	0.02
822.818	0.02
823.119	0.02
823.42	0.03
823.721	0.02
824.022	0.02
824.323	0.02
824.624	0.02
824.925	0.02
825.226	0.03
825.526	0.03
825.827	0.03
826.127	0.03
826.428	0.02
826.728	0.01
827.028	0.02
827.329	0.03
827.629	0.02
827.929	0.02
828.229	0.02
828.529	0.01
828.829	0.02
829.129	0.02
829.429	0.02
829.729	0.02
830.029	0.02
830.328	0.02
830.628	0.01
830.927	0.01
831.227	0.01
831.526	0.01
831.826	0.01
832.125	0.02
832.424	0.01
832.724	0.02
833.023	0.02
833.322	0.01
833.621	0.01
833.92	-0
834.219	0.01
834.518	0.01
834.816	0
835.115	0.01
835.414	0
835.712	0
836.011	0.01
836.309	0.01
836.608	-0
836.906	0.01
837.205	0
837.503	-0
837.801	-0
838.099	-0.01
838.397	-0.01
838.695	-0.02
838.993	-0.02
839.291	-0.01
839.589	-0.02
839.887	-0.02
840.184	-0.03
840.482	-0.02
840.78	-0.03
841.077	-0.04
841.375	-0.03
841.672	-0.03
841.969	-0.04
842.267	-0.04
842.564	-0.04
842.861	-0.03
843.158	-0.04
843.455	-0.05
843.752	-0.05
844.049	-0.05
844.346	-0.04
844.643	-0.05
844.94	-0.05
845.236	-0.05
845.533	-0.05
845.83	-0.05
846.126	-0.05
846.423	-0.05
846.719	-0.07
847.015	-0.05
847.312	-0.05
847.608	-0.06
847.904	-0.06
848.2	-0.07
848.496	-0.07
848.792	-0.06
849.088	-0.05
849.384	-0.06
849.68	-0.07
849.975	-0.06
850.271	-0.07
850.567	-0.06
850.862	-0.07
851.158	-0.07
851.453	-0.07
851.748	-0.08
852.044	-0.08
852.339	-0.08
852.634	-0.08
852.929	-0.08
853.224	-0.08
853.519	-0.09
853.814	-0.08
854.109	-0.09
854.404	-0.09
854.699	-0.09
854.994	-0.08
855.288	-0.09
855.583	-0.09
855.877	-0.1
856.172	-0.09
856.466	-0.09
856.76	-0.09
857.055	-0.09
857.349	-0.1
857.643	-0.11
857.937	-0.11
858.231	-0.11
858.525	-0.11
858.819	-0.11
859.113	-0.13
859.407	-0.12
859.701	-0.13
859.994	-0.13
860.288	-0.11
860.581	-0.12
860.875	-0.13
861.168	-0.12
861.462	-0.13
861.755	-0.12
862.048	-0.13
862.341	-0.12
862.634	-0.12
862.928	-0.13
863.221	-0.13
863.513	-0.14
863.806	-0.14
864.099	-0.13
864.392	-0.14
864.685	-0.12
864.977	-0.13
865.27	-0.13
865.562	-0.14
865.855	-0.13
866.147	-0.13
866.44	-0.13
866.732	-0.13
867.024	-0.14
867.316	-0.14
867.608	-0.15
867.9	-0.15
868.192	-0.15
868.484	-0.15
868.776	-0.16
869.068	-0.15
869.359	-0.14
869.651	-0.16
869.943	-0.16
870.234	-0.16
870.526	-0.16
870.817	-0.16
871.108	-0.14
871.4	-0.16
871.691	-0.16
871.982	-0.16
872.273	-0.18
872.564	-0.15
872.855	-0.17
873.146	-0.17
873.437	-0.17
873.728	-0.18
874.019	-0.16
874.309	-0.18
874.6	-0.17
874.89	-0.18
875.181	-0.18
875.471	-0.16
875.762	-0.17
876.052	-0.16
876.342	-0.15
876.632	-0.16
876.922	-0.18
877.213	-0.17
877.503	-0.18
877.792	-0.18
878.082	-0.19
878.372	-0.17
878.662	-0.18
878.952	-0.18
879.241	-0.18
879.531	-0.17
879.82	-0.18
880.11	-0.18
880.399	-0.18
880.688	-0.17
880.978	-0.17
881.267	-0.17
