Data from 12-12-AQDScycling_Absorbance__944__00944.txt Node

Date: Tue Dec 12 14:52:44 EST 2023
User: kyuminlee
Spectrometer: FLMS00943
Trigger mode: 0
Integration Time (sec): 1.000000E-1
Scans to average: 1
Electric dark correction enabled: true
Nonlinearity correction enabled: false
Boxcar width: 0
XAxis mode: Wavelengths
Number of Pixels in Spectrum: 2048
>>>>>Begin Spectral Data<<<<<
179.651	-0
180.037	-0
180.424	-0
180.81	-0
181.197	0.18
181.583	-0
181.97	0.3
182.356	-0
182.743	-0
183.129	-0
183.515	-0
183.901	-2.32
184.288	0.94
184.674	0.9
185.06	-0.29
185.446	-0
185.832	-0.51
186.218	0.62
186.604	-0
186.99	-0
187.376	-0
187.762	0.03
188.148	0.7
188.534	-0
188.92	0.06
189.305	0.13
189.691	0.07
190.077	0.13
190.463	0.14
190.848	0.13
191.234	0.11
191.619	0.15
192.005	0.17
192.391	0.05
192.776	0.01
193.161	0.02
193.547	0.09
193.932	-0
194.318	0.03
194.703	0.13
195.088	0.17
195.473	0.13
195.859	0.19
196.244	0.24
196.629	0.13
197.014	0.09
197.399	0.15
197.784	0.21
198.169	0.09
198.554	0.28
198.939	0.14
199.324	0.09
199.709	0.06
200.094	0.04
200.478	0.06
200.863	0.24
201.248	0.15
201.633	0.1
202.017	0.09
202.402	0.18
202.787	-0.04
203.171	0.11
203.556	0.18
203.94	0.08
204.325	0.2
204.709	0.12
205.093	0.1
205.478	0.01
205.862	0.11
206.246	0.23
206.631	0.01
207.015	0.11
207.399	0.18
207.783	0.16
208.167	0.05
208.551	0.26
208.935	0.18
209.319	0.06
209.703	0.22
210.087	0.14
210.471	0.02
210.855	0.09
211.239	0.19
211.623	0.37
212.007	0.28
212.39	0.29
212.774	0.29
213.158	0.11
213.541	0.31
213.925	0.1
214.309	0.27
214.692	0.25
215.076	0.22
215.459	0.14
215.842	0.09
216.226	0.2
216.609	0.3
216.993	0.27
217.376	0.38
217.759	0.16
218.142	0.3
218.525	0.73
218.909	0.29
219.292	0.39
219.675	0.49
220.058	0.44
220.441	0.44
220.824	0.33
221.207	0.58
221.59	0.41
221.973	0.53
222.355	0.52
222.738	0.74
223.121	0.73
223.504	0.55
223.886	0.65
224.269	0.68
224.652	0.61
225.034	0.72
225.417	0.58
225.799	0.66
226.182	0.86
226.564	1.02
226.947	0.77
227.329	0.77
227.711	0.96
228.094	0.83
228.476	0.88
228.858	0.73
229.24	0.87
229.623	0.97
230.005	0.76
230.387	0.88
230.769	0.86
231.151	0.77
231.533	0.95
231.915	0.95
232.297	0.97
232.679	0.87
233.061	0.96
233.442	0.94
233.824	1.11
234.206	1.16
234.588	1
234.969	1.06
235.351	1.02
235.733	0.97
236.114	1.1
236.496	0.95
236.877	1.01
237.259	1.13
237.64	1.03
238.022	1
238.403	1
238.784	0.97
239.165	0.96
239.547	1.05
239.928	1.1
240.309	0.97
240.69	1.07
241.071	1.05
241.452	1.14
241.834	1.05
242.215	1.09
242.595	1.08
242.976	1.09
243.357	1.15
243.738	0.98
244.119	1.19
244.5	1.02
244.881	1.21
245.261	1.18
245.642	1.1
246.023	1.14
246.403	1.14
246.784	1.22
247.164	1.15
247.545	1.27
247.925	1.21
248.306	1.21
248.686	1.33
249.067	1.17
249.447	1.37
249.827	1.59
250.207	1.43
250.588	1.23
250.968	1.35
251.348	1.29
251.728	1.34
252.108	1.25
252.488	1.46
252.868	1.39
253.248	1.25
253.628	1.35
254.008	1.52
254.388	1.25
254.768	1.27
255.147	1.45
255.527	1.41
255.907	1.3
256.287	1.46
256.666	1.37
257.046	1.33
257.425	1.59
257.805	1.36
258.184	1.28
258.564	1.26
258.943	1.27
259.323	1.43
259.702	1.33
260.081	1.47
260.461	1.56
260.84	1.35
261.219	1.63
261.598	1.55
261.977	1.46
262.356	1.51
262.736	1.47
263.115	1.56
263.494	1.39
263.873	1.43
264.251	1.43
264.63	1.49
265.009	1.4
265.388	1.46
265.767	1.27
266.145	1.36
266.524	1.33
266.903	1.46
267.281	1.31
267.66	1.53
268.039	1.4
268.417	1.39
268.796	1.21
269.174	1.33
269.552	1.28
269.931	1.46
270.309	1.43
270.687	1.67
271.066	1.71
271.444	1.35
271.822	1.57
272.2	1.43
272.578	1.34
272.956	1.3
273.334	1.34
273.712	1.57
274.09	1.45
274.468	1.32
274.846	1.34
275.224	1.37
275.602	1.44
275.98	1.52
276.357	1.38
276.735	1.44
277.113	1.47
277.49	1.36
277.868	1.31
278.246	1.48
278.623	1.33
279.001	1.31
279.378	1.29
279.756	1.52
280.133	1.47
280.51	1.38
280.888	1.49
281.265	1.34
281.642	1.5
282.019	1.58
282.396	1.59
282.773	1.42
283.151	1.52
283.528	1.54
283.905	1.42
284.282	1.43
284.659	1.41
285.035	1.38
285.412	1.32
285.789	1.52
286.166	1.48
286.543	1.41
286.919	1.47
287.296	1.34
287.673	1.55
288.049	1.41
288.426	1.49
288.802	1.42
289.179	1.4
289.555	1.85
289.932	1.5
290.308	1.3
290.684	1.3
291.061	1.31
291.437	1.49
291.813	1.39
292.189	1.33
292.565	1.33
292.942	1.29
293.318	1.34
293.694	1.33
294.07	1.33
294.446	1.38
294.822	1.6
295.197	1.41
295.573	1.57
295.949	1.35
296.325	1.47
296.701	1.39
297.076	1.59
297.452	1.53
297.828	1.42
298.203	1.6
298.579	1.43
298.954	1.43
299.33	1.48
299.705	1.44
300.081	1.54
300.456	1.48
300.831	1.45
301.206	1.48
301.582	1.62
301.957	1.54
302.332	1.47
302.707	1.41
303.082	1.35
303.457	1.5
303.832	1.58
304.207	1.54
304.582	1.48
304.957	1.6
305.332	1.51
305.707	1.7
306.082	1.65
306.456	1.57
306.831	1.42
307.206	1.45
307.58	1.5
307.955	1.48
308.33	1.5
308.704	1.45
309.079	1.36
309.453	1.56
309.828	1.44
310.202	1.46
310.576	1.52
310.951	1.55
311.325	1.48
311.699	1.45
312.073	1.54
312.447	1.44
312.821	1.39
313.196	1.49
313.57	1.43
313.944	1.42
314.317	1.42
314.691	1.57
315.065	1.61
315.439	1.56
315.813	1.51
316.187	1.42
316.56	1.57
316.934	1.49
317.308	1.45
317.681	1.43
318.055	1.56
318.428	1.62
318.802	1.7
319.175	1.51
319.549	1.45
319.922	1.33
320.295	1.49
320.669	1.63
321.042	1.46
321.415	1.82
321.788	1.49
322.162	1.45
322.535	1.44
322.908	1.54
323.281	1.52
323.654	1.75
324.027	1.49
324.4	1.55
324.773	1.51
325.145	1.45
325.518	1.49
325.891	1.46
326.264	1.58
326.636	1.3
327.009	1.45
327.382	1.5
327.754	1.48
328.127	1.4
328.499	1.51
328.872	1.5
329.244	1.62
329.616	1.39
329.989	1.47
330.361	1.48
330.733	1.58
331.106	1.4
331.478	1.6
331.85	1.48
332.222	1.43
332.594	1.42
332.966	1.58
333.338	1.67
333.71	1.51
334.082	1.44
334.454	1.41
334.826	1.48
335.197	1.61
335.569	1.33
335.941	1.35
336.312	1.38
336.684	1.55
337.056	1.44
337.427	1.5
337.799	1.58
338.17	1.54
338.542	1.35
338.913	1.62
339.284	1.61
339.656	1.44
340.027	1.48
340.398	1.51
340.769	1.48
341.141	1.73
341.512	1.54
341.883	1.51
342.254	1.57
342.625	1.68
342.996	1.57
343.367	1.53
343.738	1.64
344.108	1.4
344.479	1.6
344.85	1.36
345.221	1.67
345.591	1.31
345.962	1.46
346.333	1.4
346.703	1.26
347.074	1.41
347.444	1.34
347.815	1.43
348.185	1.43
348.556	1.3
348.926	1.38
349.296	1.41
349.666	1.4
350.037	1.28
350.407	1.31
350.777	1.33
351.147	1.33
351.517	1.41
351.887	1.45
352.257	1.34
352.627	1.35
352.997	1.29
353.367	1.4
353.737	1.36
354.106	1.39
354.476	1.26
354.846	1.38
355.216	1.42
355.585	1.34
355.955	1.28
356.324	1.28
356.694	1.29
357.063	1.26
357.433	1.19
357.802	1.24
358.171	1.27
358.541	1.23
358.91	1.23
359.279	1.21
359.648	1.18
360.017	1.14
360.387	1.12
360.756	1.08
361.125	1.1
361.494	1.1
361.863	0.99
362.231	1.01
362.6	0.97
362.969	0.99
363.338	0.94
363.707	0.93
364.075	0.96
364.444	0.85
364.813	0.88
365.181	0.84
365.55	0.87
365.918	0.87
366.287	0.83
366.655	0.84
367.024	0.82
367.392	0.8
367.76	0.75
368.128	0.77
368.497	0.76
368.865	0.72
369.233	0.7
369.601	0.7
369.969	0.7
370.337	0.7
370.705	0.69
371.073	0.67
371.441	0.64
371.809	0.64
372.177	0.66
372.544	0.63
372.912	0.6
373.28	0.63
373.647	0.62
374.015	0.59
374.383	0.61
374.75	0.58
375.118	0.56
375.485	0.55
375.853	0.58
376.22	0.56
376.587	0.53
376.955	0.56
377.322	0.54
377.689	0.53
378.056	0.54
378.423	0.53
378.79	0.53
379.157	0.53
379.524	0.52
379.891	0.51
380.258	0.52
380.625	0.5
380.992	0.49
381.359	0.48
381.726	0.51
382.092	0.51
382.459	0.47
382.826	0.49
383.192	0.48
383.559	0.49
383.925	0.49
384.292	0.47
384.658	0.5
385.025	0.48
385.391	0.49
385.757	0.49
386.123	0.51
386.49	0.49
386.856	0.49
387.222	0.49
387.588	0.48
387.954	0.48
388.32	0.47
388.686	0.47
389.052	0.47
389.418	0.46
389.784	0.48
390.15	0.45
390.515	0.45
390.881	0.46
391.247	0.47
391.613	0.49
391.978	0.47
392.344	0.46
392.709	0.47
393.075	0.47
393.44	0.45
393.806	0.45
394.171	0.44
394.536	0.45
394.902	0.45
395.267	0.43
395.632	0.44
395.997	0.43
396.362	0.46
396.727	0.46
397.092	0.43
397.457	0.43
397.822	0.45
398.187	0.45
398.552	0.43
398.917	0.41
399.282	0.42
399.646	0.4
400.011	0.44
400.376	0.43
400.74	0.43
401.105	0.43
401.47	0.42
401.834	0.41
402.199	0.41
402.563	0.39
402.927	0.39
403.292	0.41
403.656	0.39
404.02	0.42
404.384	0.4
404.749	0.39
405.113	0.4
405.477	0.38
405.841	0.38
406.205	0.4
406.569	0.37
406.933	0.35
407.296	0.36
407.66	0.38
408.024	0.37
408.388	0.39
408.752	0.35
409.115	0.36
409.479	0.36
409.842	0.36
410.206	0.36
410.569	0.35
410.933	0.33
411.296	0.34
411.66	0.36
412.023	0.34
412.386	0.34
412.749	0.34
413.113	0.32
413.476	0.29
413.839	0.32
414.202	0.31
414.565	0.3
414.928	0.33
415.291	0.31
415.654	0.31
416.017	0.32
416.38	0.3
416.742	0.31
417.105	0.29
417.468	0.31
417.83	0.3
418.193	0.32
418.556	0.3
418.918	0.29
419.281	0.31
419.643	0.3
420.005	0.3
420.368	0.32
420.73	0.3
421.092	0.3
421.455	0.3
421.817	0.29
422.179	0.28
422.541	0.29
422.903	0.28
423.265	0.28
423.627	0.27
423.989	0.29
424.351	0.27
424.713	0.27
425.075	0.26
425.436	0.26
425.798	0.27
426.16	0.27
426.521	0.27
426.883	0.28
427.245	0.26
427.606	0.25
427.967	0.26
428.329	0.26
428.69	0.28
429.052	0.26
429.413	0.27
429.774	0.26
430.135	0.26
430.497	0.25
430.858	0.26
431.219	0.25
431.58	0.25
431.941	0.25
432.302	0.26
432.663	0.24
433.024	0.26
433.384	0.27
433.745	0.24
434.106	0.24
434.467	0.24
434.827	0.26
435.188	0.24
435.548	0.26
435.909	0.25
436.269	0.26
436.63	0.24
436.99	0.24
437.351	0.26
437.711	0.26
438.071	0.24
438.431	0.23
438.792	0.24
439.152	0.24
439.512	0.24
439.872	0.24
440.232	0.25
440.592	0.23
440.952	0.23
441.312	0.24
441.671	0.23
442.031	0.23
442.391	0.23
442.751	0.23
443.11	0.23
443.47	0.22
443.83	0.22
444.189	0.21
444.549	0.23
444.908	0.23
445.267	0.22
445.627	0.22
445.986	0.21
446.345	0.19
446.705	0.2
447.064	0.21
447.423	0.2
447.782	0.2
448.141	0.22
448.5	0.2
448.859	0.21
449.218	0.2
449.577	0.2
449.936	0.21
450.295	0.2
450.653	0.21
451.012	0.21
451.371	0.21
451.729	0.21
452.088	0.21
452.447	0.2
452.805	0.21
453.163	0.21
453.522	0.21
453.88	0.2
454.239	0.2
454.597	0.19
454.955	0.2
455.313	0.19
455.671	0.2
456.029	0.19
456.388	0.18
456.746	0.19
457.104	0.18
457.461	0.17
457.819	0.18
458.177	0.17
458.535	0.16
458.893	0.17
459.25	0.17
459.608	0.17
459.966	0.16
460.323	0.17
460.681	0.15
461.038	0.17
461.396	0.15
461.753	0.16
462.111	0.16
462.468	0.16
462.825	0.15
463.182	0.14
463.54	0.15
463.897	0.15
464.254	0.15
464.611	0.15
464.968	0.15
465.325	0.15
465.682	0.15
466.039	0.14
466.395	0.14
466.752	0.14
467.109	0.14
467.466	0.14
467.822	0.15
468.179	0.14
468.535	0.13
468.892	0.14
469.248	0.13
469.605	0.13
469.961	0.13
470.318	0.14
470.674	0.14
471.03	0.13
471.386	0.14
471.743	0.13
472.099	0.13
472.455	0.13
472.811	0.13
473.167	0.12
473.523	0.12
473.879	0.12
474.235	0.12
474.59	0.12
474.946	0.12
475.302	0.12
475.657	0.12
476.013	0.12
476.369	0.11
476.724	0.12
477.08	0.12
477.435	0.11
477.791	0.11
478.146	0.12
478.501	0.11
478.857	0.11
479.212	0.11
479.567	0.1
479.922	0.1
480.277	0.1
480.632	0.1
480.987	0.1
481.342	0.1
481.697	0.09
482.052	0.1
482.407	0.1
482.762	0.1
483.116	0.1
483.471	0.09
483.826	0.08
484.18	0.09
484.535	0.09
484.89	0.09
485.244	0.08
485.598	0.09
485.953	0.09
486.307	0.08
486.661	0.09
487.016	0.08
487.37	0.09
487.724	0.08
488.078	0.08
488.432	0.08
488.786	0.08
489.14	0.08
489.494	0.08
489.848	0.08
490.202	0.08
490.556	0.08
490.91	0.08
491.263	0.08
491.617	0.08
491.971	0.08
492.324	0.08
492.678	0.08
493.031	0.08
493.385	0.08
493.738	0.07
494.091	0.08
494.445	0.08
494.798	0.08
495.151	0.07
495.504	0.08
495.857	0.07
496.21	0.08
496.564	0.07
496.916	0.08
497.269	0.07
497.622	0.08
497.975	0.07
498.328	0.08
498.681	0.07
499.033	0.07
499.386	0.07
499.739	0.06
500.091	0.07
500.444	0.07
500.796	0.07
501.149	0.06
501.501	0.06
501.854	0.07
502.206	0.06
502.558	0.07
502.91	0.06
503.263	0.07
503.615	0.06
503.967	0.07
504.319	0.07
504.671	0.06
505.023	0.06
505.375	0.06
505.726	0.06
506.078	0.06
506.43	0.06
506.782	0.06
507.133	0.07
507.485	0.07
507.837	0.07
508.188	0.07
508.54	0.07
508.891	0.07
509.243	0.07
509.594	0.07
509.945	0.07
510.296	0.07
510.648	0.07
510.999	0.06
511.35	0.07
511.701	0.07
512.052	0.07
512.403	0.07
512.754	0.07
513.105	0.06
513.456	0.06
513.807	0.06
514.157	0.07
514.508	0.07
514.859	0.06
515.209	0.06
515.56	0.07
515.91	0.06
516.261	0.07
516.611	0.06
516.962	0.06
517.312	0.06
517.662	0.07
518.013	0.06
518.363	0.07
518.713	0.06
519.063	0.07
519.413	0.07
519.763	0.06
520.113	0.07
520.463	0.07
520.813	0.07
521.163	0.07
521.512	0.07
521.862	0.07
522.212	0.07
522.562	0.07
522.911	0.06
523.261	0.06
523.61	0.07
523.96	0.06
524.309	0.07
524.658	0.07
525.008	0.06
525.357	0.07
525.706	0.07
526.056	0.07
526.405	0.07
526.754	0.06
527.103	0.06
527.452	0.07
527.801	0.07
528.15	0.07
528.499	0.07
528.847	0.08
529.196	0.08
529.545	0.08
529.893	0.08
530.242	0.08
530.591	0.07
530.939	0.08
531.288	0.07
531.636	0.08
531.985	0.08
532.333	0.07
532.681	0.08
533.029	0.08
533.378	0.08
533.726	0.07
534.074	0.07
534.422	0.07
534.77	0.07
535.118	0.07
535.466	0.07
535.814	0.07
536.162	0.07
536.509	0.08
536.857	0.07
537.205	0.08
537.552	0.07
537.9	0.07
538.248	0.07
538.595	0.08
538.943	0.07
539.29	0.07
539.637	0.07
539.985	0.07
540.332	0.07
540.679	0.07
541.026	0.07
541.373	0.08
541.721	0.06
542.068	0.07
542.415	0.07
542.762	0.07
543.108	0.06
543.455	0.07
543.802	0.06
544.149	0.07
544.496	0.07
544.842	0.07
545.189	0.06
545.535	0.07
545.882	0.07
546.228	0.07
546.575	0.06
546.921	0.06
547.267	0.06
547.614	0.06
547.96	0.06
548.306	0.06
548.652	0.06
548.998	0.07
549.344	0.06
549.69	0.06
550.036	0.06
550.382	0.06
550.728	0.06
551.074	0.06
551.42	0.06
551.765	0.07
552.111	0.07
552.457	0.07
552.802	0.06
553.148	0.07
553.493	0.07
553.839	0.07
554.184	0.06
554.529	0.06
554.875	0.07
555.22	0.07
555.565	0.07
555.91	0.06
556.255	0.08
556.6	0.07
556.945	0.07
557.29	0.07
557.635	0.06
557.98	0.07
558.325	0.06
558.67	0.07
559.014	0.07
559.359	0.06
559.704	0.07
560.048	0.06
560.393	0.07
560.737	0.06
561.082	0.07
561.426	0.06
561.77	0.06
562.115	0.06
562.459	0.07
562.803	0.06
563.147	0.06
563.491	0.06
563.835	0.07
564.179	0.06
564.523	0.06
564.867	0.05
565.211	0.06
565.555	0.06
565.899	0.07
566.242	0.06
566.586	0.06
566.93	0.06
567.273	0.07
567.617	0.06
567.96	0.07
568.304	0.07
568.647	0.07
568.99	0.07
569.334	0.07
569.677	0.07
570.02	0.07
570.363	0.07
570.706	0.07
571.049	0.07
571.392	0.08
571.735	0.07
572.078	0.07
572.421	0.08
572.764	0.07
573.106	0.07
573.449	0.06
573.792	0.06
574.134	0.07
574.477	0.07
574.819	0.07
575.162	0.07
575.504	0.06
575.847	0.07
576.189	0.07
576.531	0.07
576.873	0.06
577.215	0.06
577.558	0.07
577.9	0.06
578.242	0.06
578.584	0.06
578.926	0.06
579.267	0.06
579.609	0.06
579.951	0.06
580.293	0.06
580.634	0.07
580.976	0.07
581.318	0.07
581.659	0.06
582.001	0.06
582.342	0.06
582.683	0.07
583.025	0.06
583.366	0.06
583.707	0.06
584.049	0.07
584.39	0.07
584.731	0.06
585.072	0.06
585.413	0.07
585.754	0.06
586.095	0.07
586.435	0.07
586.776	0.07
587.117	0.07
587.458	0.07
587.798	0.06
588.139	0.06
588.48	0.06
588.82	0.05
589.161	0.06
589.501	0.05
589.841	0.06
590.182	0.06
590.522	0.05
590.862	0.06
591.202	0.06
591.542	0.06
591.882	0.06
592.222	0.06
592.562	0.06
592.902	0.07
593.242	0.06
593.582	0.07
593.922	0.06
594.261	0.06
594.601	0.06
594.941	0.05
595.28	0.06
595.62	0.06
595.959	0.06
596.299	0.06
596.638	0.07
596.977	0.06
597.317	0.07
597.656	0.07
597.995	0.06
598.334	0.07
598.673	0.07
599.012	0.07
599.351	0.08
599.69	0.07
600.029	0.07
600.368	0.07
600.707	0.07
601.046	0.07
601.384	0.08
601.723	0.07
602.061	0.07
602.4	0.06
602.738	0.07
603.077	0.07
603.415	0.06
603.754	0.07
604.092	0.06
604.43	0.06
604.768	0.06
605.107	0.07
605.445	0.06
605.783	0.06
606.121	0.06
606.459	0.07
606.796	0.07
607.134	0.06
607.472	0.06
607.81	0.06
608.148	0.06
608.485	0.07
608.823	0.06
609.16	0.06
609.498	0.07
609.835	0.06
610.173	0.06
610.51	0.07
610.847	0.06
611.185	0.07
611.522	0.07
611.859	0.07
612.196	0.07
612.533	0.07
612.87	0.07
613.207	0.07
613.544	0.07
613.881	0.08
614.217	0.07
614.554	0.07
614.891	0.07
615.228	0.08
615.564	0.08
615.901	0.08
616.237	0.07
616.574	0.07
616.91	0.08
617.246	0.07
617.583	0.07
617.919	0.08
618.255	0.08
618.591	0.07
618.927	0.08
619.263	0.08
619.599	0.08
619.935	0.08
620.271	0.08
620.607	0.08
620.943	0.08
621.279	0.08
621.614	0.07
621.95	0.08
622.286	0.07
622.621	0.07
622.957	0.07
623.292	0.07
623.627	0.06
623.963	0.07
624.298	0.06
624.633	0.07
624.968	0.07
625.304	0.07
625.639	0.07
625.974	0.06
626.309	0.07
626.644	0.07
626.979	0.08
627.313	0.07
627.648	0.07
627.983	0.07
628.318	0.06
628.652	0.07
628.987	0.07
629.321	0.08
629.656	0.07
629.99	0.06
630.325	0.06
630.659	0.07
630.993	0.06
631.327	0.06
631.662	0.05
631.996	0.05
632.33	0.06
632.664	0.06
632.998	0.05
633.332	0.05
633.666	0.06
633.999	0.06
634.333	0.06
634.667	0.06
635.001	0.06
635.334	0.05
635.668	0.06
636.001	0.05
636.335	0.05
636.668	0.06
637.001	0.05
637.335	0.05
637.668	0.06
638.001	0.05
638.334	0.06
638.668	0.05
639.001	0.05
639.334	0.05
639.667	0.05
639.999	0.05
640.332	0.05
640.665	0.06
640.998	0.05
641.331	0.06
641.663	0.05
641.996	0.06
642.328	0.06
642.661	0.06
642.993	0.07
643.326	0.06
643.658	0.05
643.99	0.06
644.323	0.06
644.655	0.06
644.987	0.06
645.319	0.07
645.651	0.07
645.983	0.06
646.315	0.07
646.647	0.07
646.979	0.08
647.31	0.07
647.642	0.07
647.974	0.06
648.305	0.07
648.637	0.07
648.968	0.07
649.3	0.06
649.631	0.07
649.963	0.06
650.294	0.07
650.625	0.06
650.957	0.07
651.288	0.07
651.619	0.07
651.95	0.07
652.281	0.06
652.612	0.07
652.943	0.07
653.274	0.07
653.604	0.06
653.935	0.06
654.266	0.07
654.596	0.06
654.927	0.07
655.258	0.07
655.588	0.08
655.918	0.07
656.249	0.05
656.579	0.06
656.909	0.06
657.24	0.06
657.57	0.07
657.9	0.06
658.23	0.07
658.56	0.06
658.89	0.06
659.22	0.06
659.55	0.06
659.88	0.07
660.209	0.06
660.539	0.07
660.869	0.07
661.198	0.07
661.528	0.06
661.857	0.07
662.187	0.06
662.516	0.07
662.846	0.06
663.175	0.07
663.504	0.07
663.833	0.06
664.163	0.06
664.492	0.06
664.821	0.06
665.15	0.06
665.479	0.06
665.807	0.05
666.136	0.06
666.465	0.06
666.794	0.06
667.122	0.06
667.451	0.07
667.78	0.06
668.108	0.06
668.437	0.07
668.765	0.06
669.093	0.07
669.422	0.07
669.75	0.06
670.078	0.07
670.406	0.07
670.734	0.07
671.062	0.08
671.39	0.07
671.718	0.07
672.046	0.07
672.374	0.07
672.702	0.07
673.029	0.06
673.357	0.07
673.685	0.07
674.012	0.07
674.34	0.07
674.667	0.07
674.995	0.07
675.322	0.07
675.649	0.06
675.977	0.07
676.304	0.07
676.631	0.06
676.958	0.07
677.285	0.06
677.612	0.06
677.939	0.07
678.266	0.07
678.593	0.06
678.92	0.06
679.246	0.06
679.573	0.07
679.9	0.06
680.226	0.06
680.553	0.06
680.879	0.07
681.206	0.06
681.532	0.07
681.858	0.06
682.184	0.07
682.511	0.06
682.837	0.07
683.163	0.07
683.489	0.07
683.815	0.07
684.141	0.07
684.467	0.07
684.793	0.06
685.118	0.06
685.444	0.07
685.77	0.07
686.095	0.07
686.421	0.06
686.746	0.07
687.072	0.06
687.397	0.06
687.723	0.07
688.048	0.07
688.373	0.06
688.698	0.06
689.023	0.06
689.349	0.06
689.674	0.06
689.999	0.05
690.323	0.06
690.648	0.05
690.973	0.05
691.298	0.05
691.623	0.05
691.947	0.05
692.272	0.05
692.596	0.05
692.921	0.06
693.245	0.05
693.57	0.06
693.894	0.07
694.218	0.06
694.543	0.07
694.867	0.06
695.191	0.06
695.515	0.07
695.839	0.06
696.163	0.06
696.487	0.06
696.811	0.06
697.135	0.06
697.458	0.06
697.782	0.06
698.106	0.06
698.429	0.06
698.753	0.06
699.076	0.06
699.4	0.06
699.723	0.06
700.046	0.05
700.37	0.06
700.693	0.06
701.016	0.06
701.339	0.06
701.662	0.07
701.985	0.06
702.308	0.06
702.631	0.06
702.954	0.06
703.277	0.06
703.599	0.06
703.922	0.05
704.245	0.05
704.567	0.05
704.89	0.06
705.212	0.06
705.535	0.05
705.857	0.05
706.179	0.05
706.502	0.05
706.824	0.04
707.146	0.05
707.468	0.05
707.79	0.05
708.112	0.05
708.434	0.05
708.756	0.06
709.078	0.05
709.399	0.05
709.721	0.05
710.043	0.05
710.364	0.05
710.686	0.06
711.007	0.06
711.329	0.06
711.65	0.06
711.972	0.06
712.293	0.06
712.614	0.06
712.935	0.06
713.256	0.05
713.577	0.07
713.898	0.06
714.219	0.06
714.54	0.06
714.861	0.06
715.182	0.06
715.503	0.06
715.823	0.05
716.144	0.06
716.464	0.05
716.785	0.06
717.105	0.05
717.426	0.06
717.746	0.05
718.066	0.05
718.387	0.06
718.707	0.05
719.027	0.06
719.347	0.05
719.667	0.05
719.987	0.05
720.307	0.05
720.627	0.05
720.947	0.04
721.266	0.05
721.586	0.04
721.906	0.05
722.225	0.04
722.545	0.04
722.864	0.04
723.184	0.05
723.503	0.05
723.823	0.05
724.142	0.04
724.461	0.05
724.78	0.04
725.099	0.05
725.418	0.05
725.737	0.05
726.056	0.05
726.375	0.05
726.694	0.05
727.013	0.06
727.331	0.05
727.65	0.05
727.969	0.04
728.287	0.05
728.606	0.05
728.924	0.05
729.242	0.05
729.561	0.05
729.879	0.05
730.197	0.05
730.515	0.05
730.834	0.04
731.152	0.05
731.47	0.04
731.788	0.05
732.105	0.04
732.423	0.05
732.741	0.05
733.059	0.05
733.376	0.06
733.694	0.04
734.012	0.05
734.329	0.05
734.647	0.06
734.964	0.06
735.281	0.06
735.599	0.06
735.916	0.07
736.233	0.05
736.55	0.05
736.867	0.06
737.184	0.06
737.501	0.06
737.818	0.06
738.135	0.06
738.452	0.06
738.768	0.06
739.085	0.06
739.402	0.05
739.718	0.05
740.035	0.06
740.351	0.07
740.668	0.06
740.984	0.06
741.3	0.05
741.617	0.06
741.933	0.05
742.249	0.06
742.565	0.06
742.881	0.06
743.197	0.05
743.513	0.05
743.829	0.05
744.144	0.05
744.46	0.05
744.776	0.05
745.091	0.05
745.407	0.05
745.722	0.05
746.038	0.05
746.353	0.04
746.669	0.06
746.984	0.04
747.299	0.05
747.614	0.05
747.93	0.06
748.245	0.05
748.56	0.05
748.875	0.04
749.189	0.04
749.504	0.05
749.819	0.04
750.134	0.04
750.448	0.05
750.763	0.04
751.078	0.03
751.392	0.04
751.707	0.05
752.021	0.04
752.335	0.05
752.65	0.05
752.964	0.04
753.278	0.05
753.592	0.05
753.906	0.04
754.22	0.05
754.534	0.05
754.848	0.05
755.162	0.05
755.476	0.06
755.789	0.05
756.103	0.04
756.417	0.06
756.73	0.05
757.044	0.05
757.357	0.04
757.671	0.05
757.984	0.04
758.297	0.05
758.61	0.05
758.924	0.05
759.237	0.04
759.55	0.04
759.863	0.04
760.176	0.05
760.488	0.05
760.801	0.04
761.114	0.04
761.427	0.05
761.739	0.05
762.052	0.04
762.365	0.04
762.677	0.05
762.99	0.04
763.302	0.05
763.614	0.05
763.926	0.05
764.239	0.05
764.551	0.05
764.863	0.05
765.175	0.06
765.487	0.05
765.799	0.04
766.111	0.04
766.423	0.05
766.734	0.04
767.046	0.04
767.358	0.05
767.669	0.05
767.981	0.05
768.292	0.04
768.604	0.04
768.915	0.04
769.226	0.04
769.537	0.04
769.849	0.04
770.16	0.04
770.471	0.04
770.782	0.04
771.093	0.04
771.404	0.04
771.715	0.04
772.025	0.03
772.336	0.04
772.647	0.03
772.957	0.03
773.268	0.04
773.578	0.04
773.889	0.04
774.199	0.05
774.51	0.04
774.82	0.04
775.13	0.04
775.44	0.04
775.75	0.06
776.06	0.05
776.37	0.04
776.68	0.05
776.99	0.05
777.3	0.04
777.61	0.06
777.92	0.06
778.229	0.05
778.539	0.05
778.848	0.04
779.158	0.05
779.467	0.06
779.777	0.05
780.086	0.05
780.395	0.04
780.704	0.05
781.013	0.04
781.323	0.05
781.632	0.04
781.941	0.05
782.249	0.04
782.558	0.04
782.867	0.05
783.176	0.04
783.485	0.04
783.793	0.05
784.102	0.04
784.41	0.05
784.719	0.05
785.027	0.05
785.335	0.05
785.644	0.05
785.952	0.05
786.26	0.05
786.568	0.04
786.876	0.04
787.184	0.04
787.492	0.05
787.8	0.06
788.108	0.05
788.416	0.04
788.723	0.05
789.031	0.04
789.338	0.05
789.646	0.05
789.953	0.06
790.261	0.05
790.568	0.06
790.876	0.05
791.183	0.05
791.49	0.04
791.797	0.05
792.104	0.04
792.411	0.05
792.718	0.04
793.025	0.06
793.332	0.04
793.639	0.05
793.945	0.06
794.252	0.05
794.559	0.05
794.865	0.05
795.172	0.05
795.478	0.04
795.784	0.05
796.091	0.05
796.397	0.05
796.703	0.05
797.009	0.06
797.315	0.05
797.622	0.05
797.927	0.05
798.233	0.05
798.539	0.06
798.845	0.06
799.151	0.06
799.456	0.05
799.762	0.04
800.068	0.05
800.373	0.06
800.679	0.05
800.984	0.05
801.289	0.05
801.595	0.05
801.9	0.05
802.205	0.05
802.51	0.04
802.815	0.06
803.12	0.05
803.425	0.06
803.73	0.05
804.035	0.05
804.339	0.05
804.644	0.05
804.949	0.05
805.253	0.05
805.558	0.05
805.862	0.04
806.167	0.05
806.471	0.04
806.775	0.05
807.08	0.05
807.384	0.05
807.688	0.05
807.992	0.05
808.296	0.05
808.6	0.06
808.904	0.05
809.207	0.05
809.511	0.06
809.815	0.06
810.119	0.06
810.422	0.06
810.726	0.06
811.029	0.06
811.332	0.06
811.636	0.06
811.939	0.05
812.242	0.06
812.546	0.06
812.849	0.05
813.152	0.05
813.455	0.06
813.758	0.06
814.06	0.05
814.363	0.05
814.666	0.06
814.969	0.06
815.271	0.05
815.574	0.05
815.877	0.05
816.179	0.05
816.481	0.05
816.784	0.05
817.086	0.05
817.388	0.04
817.69	0.04
817.993	0.04
818.295	0.05
818.597	0.04
818.899	0.03
819.2	0.03
819.502	0.03
819.804	0.05
820.106	0.04
820.407	0.03
820.709	0.04
821.01	0.04
821.312	0.05
821.613	0.03
821.915	0.03
822.216	0.03
822.517	0.03
822.818	0.04
823.119	0.04
823.42	0.05
823.721	0.03
824.022	0.03
824.323	0.04
824.624	0.03
824.925	0.04
825.226	0.05
825.526	0.03
825.827	0.03
826.127	0.05
826.428	0.04
826.728	0.03
827.028	0.04
827.329	0.04
827.629	0.03
827.929	0.03
828.229	0.04
828.529	0.04
828.829	0.03
829.129	0.03
829.429	0.03
829.729	0.03
830.029	0.02
830.328	0.03
830.628	0.02
830.927	0.02
831.227	0.02
831.526	0.03
831.826	0.03
832.125	0.03
832.424	0.02
832.724	0.03
833.023	0.02
833.322	0.03
833.621	0.02
833.92	0.02
834.219	0.02
834.518	0.03
834.816	0.02
835.115	0.02
835.414	0.02
835.712	0.02
836.011	0.01
836.309	0.01
836.608	0.01
836.906	0.01
837.205	0.01
837.503	0
837.801	0.01
838.099	0
838.397	-0.01
838.695	-0.01
838.993	-0.01
839.291	-0.01
839.589	-0
839.887	-0.01
840.184	-0.02
840.482	-0.02
840.78	-0.01
841.077	-0.02
841.375	-0.01
841.672	-0.01
841.969	-0.02
842.267	-0.01
842.564	-0.01
842.861	-0.01
843.158	-0.02
843.455	-0.02
843.752	-0.03
844.049	-0.02
844.346	-0.02
844.643	-0.03
844.94	-0.03
845.236	-0.02
845.533	-0.02
845.83	-0.02
846.126	-0.03
846.423	-0.02
846.719	-0.03
847.015	-0.02
847.312	-0.03
847.608	-0.03
847.904	-0.04
848.2	-0.03
848.496	-0.04
848.792	-0.04
849.088	-0.04
849.384	-0.04
849.68	-0.06
849.975	-0.05
850.271	-0.05
850.567	-0.06
850.862	-0.06
851.158	-0.06
851.453	-0.05
851.748	-0.07
852.044	-0.06
852.339	-0.05
852.634	-0.08
852.929	-0.06
853.224	-0.07
853.519	-0.06
853.814	-0.06
854.109	-0.06
854.404	-0.07
854.699	-0.07
854.994	-0.06
855.288	-0.06
855.583	-0.06
855.877	-0.07
856.172	-0.07
856.466	-0.06
856.76	-0.06
857.055	-0.06
857.349	-0.08
857.643	-0.07
857.937	-0.08
858.231	-0.08
858.525	-0.08
858.819	-0.08
859.113	-0.09
859.407	-0.09
859.701	-0.1
859.994	-0.09
860.288	-0.09
860.581	-0.09
860.875	-0.11
861.168	-0.11
861.462	-0.11
861.755	-0.1
862.048	-0.1
862.341	-0.11
862.634	-0.11
862.928	-0.1
863.221	-0.11
863.513	-0.11
863.806	-0.11
864.099	-0.12
864.392	-0.12
864.685	-0.11
864.977	-0.1
865.27	-0.11
865.562	-0.12
865.855	-0.11
866.147	-0.12
866.44	-0.12
866.732	-0.12
867.024	-0.13
867.316	-0.12
867.608	-0.13
867.9	-0.12
868.192	-0.13
868.484	-0.13
868.776	-0.13
869.068	-0.13
869.359	-0.14
869.651	-0.14
869.943	-0.15
870.234	-0.15
870.526	-0.15
870.817	-0.15
871.108	-0.14
871.4	-0.14
871.691	-0.14
871.982	-0.15
872.273	-0.16
872.564	-0.15
872.855	-0.15
873.146	-0.15
873.437	-0.15
873.728	-0.17
874.019	-0.16
874.309	-0.17
874.6	-0.15
874.89	-0.16
875.181	-0.16
875.471	-0.15
875.762	-0.16
876.052	-0.16
876.342	-0.14
876.632	-0.16
876.922	-0.17
877.213	-0.17
877.503	-0.19
877.792	-0.16
878.082	-0.17
878.372	-0.16
878.662	-0.19
878.952	-0.17
879.241	-0.16
879.531	-0.15
879.82	-0.17
880.11	-0.16
880.399	-0.16
880.688	-0.16
880.978	-0.16
881.267	-0.16
