Data from 12-12-AQDScycling_Absorbance__869__00869.txt Node

Date: Tue Dec 12 14:33:59 EST 2023
User: kyuminlee
Spectrometer: FLMS00943
Trigger mode: 0
Integration Time (sec): 1.000000E-1
Scans to average: 1
Electric dark correction enabled: true
Nonlinearity correction enabled: false
Boxcar width: 0
XAxis mode: Wavelengths
Number of Pixels in Spectrum: 2048
>>>>>Begin Spectral Data<<<<<
179.651	0.04
180.037	0.04
180.424	0.04
180.81	-0.31
181.197	0.18
181.583	0.03
181.97	-0.34
182.356	-0
182.743	-0
183.129	0.46
183.515	0.83
183.901	-2.63
184.288	0.26
184.674	0.71
185.06	-0
185.446	-0.44
185.832	-1.6
186.218	0.02
186.604	0.08
186.99	-0
187.376	-0.06
187.762	1.03
188.148	0.19
188.534	-0.34
188.92	0.11
189.305	0.18
189.691	0.13
190.077	0.17
190.463	0.21
190.848	0.07
191.234	0.03
191.619	0.07
192.005	0.11
192.391	0.12
192.776	0.12
193.161	0.1
193.547	0.12
193.932	-0.02
194.318	-0.01
194.703	0.09
195.088	0.19
195.473	0.21
195.859	0.12
196.244	0.1
196.629	0.16
197.014	0.12
197.399	0.14
197.784	0.09
198.169	0.03
198.554	0.19
198.939	0.15
199.324	0.19
199.709	0.11
200.094	0.12
200.478	0.09
200.863	0.21
201.248	0.17
201.633	0.04
202.017	0.1
202.402	0.23
202.787	0.08
203.171	0.13
203.556	0.13
203.94	0.15
204.325	0.26
204.709	0.23
205.093	0.15
205.478	0.03
205.862	0.04
206.246	0.12
206.631	0.08
207.015	0.04
207.399	0.17
207.783	0.07
208.167	0.13
208.551	0.07
208.935	0.09
209.319	0.12
209.703	0.15
210.087	0.2
210.471	-0.02
210.855	-0.01
211.239	0.14
211.623	0.2
212.007	0.28
212.39	0.45
212.774	0.19
213.158	0.1
213.541	0.11
213.925	0.17
214.309	0.32
214.692	0.35
215.076	0.21
215.459	0.24
215.842	0.14
216.226	0.36
216.609	0.36
216.993	0.22
217.376	0.41
217.759	0.2
218.142	0.35
218.525	0.3
218.909	0.28
219.292	0.24
219.675	0.32
220.058	0.46
220.441	0.52
220.824	0.4
221.207	0.58
221.59	0.53
221.973	0.51
222.355	0.57
222.738	0.71
223.121	0.62
223.504	0.53
223.886	0.75
224.269	0.65
224.652	0.61
225.034	0.77
225.417	0.64
225.799	0.7
226.182	0.86
226.564	0.89
226.947	0.69
227.329	0.78
227.711	0.85
228.094	0.86
228.476	0.89
228.858	0.93
229.24	0.84
229.623	0.81
230.005	0.88
230.387	0.86
230.769	0.8
231.151	0.94
231.533	0.89
231.915	0.89
232.297	0.93
232.679	0.92
233.061	1.21
233.442	1.04
233.824	0.92
234.206	1.22
234.588	1.05
234.969	1.06
235.351	0.87
235.733	0.87
236.114	1.23
236.496	0.91
236.877	1.27
237.259	1.1
237.64	1.02
238.022	1.03
238.403	0.99
238.784	0.96
239.165	0.89
239.547	1.16
239.928	1.38
240.309	1.01
240.69	1.04
241.071	1.11
241.452	1.03
241.834	0.94
242.215	1.1
242.595	1.06
242.976	1.15
243.357	1.08
243.738	1.09
244.119	1.14
244.5	1.09
244.881	1.2
245.261	1.23
245.642	1.07
246.023	1.1
246.403	1.16
246.784	1.36
247.164	1.24
247.545	1.21
247.925	1.27
248.306	1.17
248.686	1.43
249.067	1.24
249.447	1.31
249.827	1.35
250.207	1.38
250.588	1.28
250.968	1.4
251.348	1.36
251.728	1.44
252.108	1.28
252.488	1.41
252.868	1.32
253.248	1.28
253.628	1.35
254.008	1.45
254.388	1.34
254.768	1.35
255.147	1.32
255.527	1.38
255.907	1.44
256.287	1.29
256.666	1.27
257.046	1.63
257.425	1.55
257.805	1.31
258.184	1.28
258.564	1.38
258.943	1.28
259.323	1.41
259.702	1.41
260.081	1.54
260.461	1.46
260.84	1.48
261.219	1.72
261.598	1.53
261.977	1.5
262.356	1.63
262.736	1.5
263.115	1.51
263.494	1.37
263.873	1.39
264.251	1.41
264.63	1.45
265.009	1.48
265.388	1.43
265.767	1.37
266.145	1.44
266.524	1.43
266.903	1.34
267.281	1.3
267.66	1.4
268.039	1.43
268.417	1.37
268.796	1.47
269.174	1.52
269.552	1.34
269.931	1.47
270.309	1.33
270.687	1.81
271.066	1.64
271.444	1.38
271.822	1.47
272.2	1.39
272.578	1.34
272.956	1.39
273.334	1.39
273.712	1.46
274.09	1.44
274.468	1.34
274.846	1.25
275.224	1.28
275.602	1.4
275.98	1.4
276.357	1.41
276.735	1.48
277.113	1.36
277.49	1.34
277.868	1.28
278.246	1.43
278.623	1.31
279.001	1.39
279.378	1.46
279.756	1.39
280.133	1.46
280.51	1.3
280.888	1.33
281.265	1.32
281.642	1.42
282.019	1.56
282.396	1.48
282.773	1.34
283.151	1.4
283.528	1.55
283.905	1.34
284.282	1.4
284.659	1.48
285.035	1.31
285.412	1.27
285.789	1.53
286.166	1.47
286.543	1.36
286.919	1.41
287.296	1.45
287.673	1.71
288.049	1.55
288.426	1.54
288.802	1.54
289.179	1.48
289.555	1.74
289.932	1.44
290.308	1.41
290.684	1.35
291.061	1.35
291.437	1.49
291.813	1.36
292.189	1.43
292.565	1.36
292.942	1.35
293.318	1.34
293.694	1.5
294.07	1.25
294.446	1.38
294.822	1.61
295.197	1.41
295.573	1.4
295.949	1.48
296.325	1.43
296.701	1.36
297.076	1.43
297.452	1.45
297.828	1.45
298.203	1.45
298.579	1.41
298.954	1.4
299.33	1.28
299.705	1.44
300.081	1.39
300.456	1.43
300.831	1.24
301.206	1.25
301.582	1.34
301.957	1.3
302.332	1.41
302.707	1.29
303.082	1.19
303.457	1.24
303.832	1.26
304.207	1.24
304.582	1.13
304.957	1.17
305.332	1.19
305.707	1.13
306.082	1.15
306.456	1.13
306.831	1.09
307.206	1.11
307.58	1.05
307.955	1.05
308.33	1.07
308.704	1.05
309.079	1.01
309.453	1.1
309.828	1.02
310.202	1.02
310.576	1
310.951	0.99
311.325	1.01
311.699	0.95
312.073	0.93
312.447	0.97
312.821	0.92
313.196	0.99
313.57	0.94
313.944	0.91
314.317	0.9
314.691	0.97
315.065	0.94
315.439	0.92
315.813	0.88
316.187	0.88
316.56	0.91
316.934	0.88
317.308	0.9
317.681	0.91
318.055	0.88
318.428	0.87
318.802	0.93
319.175	0.89
319.549	0.89
319.922	0.87
320.295	0.87
320.669	0.89
321.042	0.9
321.415	0.91
321.788	0.9
322.162	0.86
322.535	0.87
322.908	0.86
323.281	0.84
323.654	0.88
324.027	0.84
324.4	0.9
324.773	0.9
325.145	0.85
325.518	0.86
325.891	0.83
326.264	0.87
326.636	0.89
327.009	0.86
327.382	0.87
327.754	0.9
328.127	0.9
328.499	0.88
328.872	0.92
329.244	0.86
329.616	0.89
329.989	0.92
330.361	0.92
330.733	0.91
331.106	0.95
331.478	0.96
331.85	0.92
332.222	0.9
332.594	0.94
332.966	0.96
333.338	0.95
333.71	0.98
334.082	0.98
334.454	0.94
334.826	0.96
335.197	0.98
335.569	1.01
335.941	0.99
336.312	0.98
336.684	1.01
337.056	1.01
337.427	1.05
337.799	1.09
338.17	1
338.542	1.02
338.913	1.06
339.284	1.08
339.656	1.07
340.027	1.09
340.398	1.12
340.769	1.07
341.141	1.12
341.512	1.08
341.883	1.08
342.254	1.1
342.625	1.09
342.996	1.09
343.367	1.1
343.738	1.19
344.108	1.1
344.479	1.12
344.85	1.09
345.221	1.21
345.591	1.09
345.962	1.25
346.333	1.17
346.703	1.14
347.074	1.18
347.444	1.13
347.815	1.16
348.185	1.18
348.556	1.12
348.926	1.14
349.296	1.24
349.666	1.14
350.037	1.15
350.407	1.13
350.777	1.33
351.147	1.24
351.517	1.25
351.887	1.22
352.257	1.39
352.627	1.17
352.997	1.25
353.367	1.28
353.737	1.35
354.106	1.36
354.476	1.3
354.846	1.42
355.216	1.36
355.585	1.4
355.955	1.36
356.324	1.42
356.694	1.33
357.063	1.37
357.433	1.36
357.802	1.46
358.171	1.48
358.541	1.44
358.91	1.52
359.279	1.41
359.648	1.41
360.017	1.59
360.387	1.6
360.756	1.31
361.125	1.35
361.494	1.52
361.863	1.42
362.231	1.48
362.6	1.53
362.969	1.59
363.338	1.48
363.707	1.6
364.075	1.56
364.444	1.36
364.813	1.44
365.181	1.56
365.55	1.47
365.918	1.65
366.287	1.52
366.655	1.62
367.024	1.57
367.392	1.54
367.76	1.55
368.128	1.63
368.497	1.53
368.865	1.52
369.233	1.54
369.601	1.46
369.969	1.44
370.337	1.57
370.705	1.55
371.073	1.52
371.441	1.48
371.809	1.51
372.177	1.55
372.544	1.45
372.912	1.59
373.28	1.44
373.647	1.67
374.015	1.48
374.383	1.77
374.75	1.68
375.118	1.7
375.485	1.68
375.853	1.75
376.22	1.54
376.587	1.53
376.955	1.63
377.322	1.65
377.689	1.59
378.056	1.42
378.423	1.46
378.79	1.47
379.157	1.5
379.524	1.5
379.891	1.51
380.258	1.58
380.625	1.47
380.992	1.51
381.359	1.5
381.726	1.58
382.092	1.48
382.459	1.59
382.826	1.71
383.192	1.43
383.559	1.55
383.925	1.47
384.292	1.49
384.658	1.57
385.025	1.71
385.391	1.67
385.757	1.58
386.123	1.52
386.49	1.48
386.856	1.68
387.222	1.64
387.588	1.5
387.954	1.7
388.32	1.73
388.686	1.72
389.052	1.5
389.418	1.61
389.784	1.49
390.15	1.65
390.515	1.37
390.881	1.66
391.247	1.46
391.613	1.6
391.978	1.42
392.344	1.63
392.709	1.49
393.075	1.53
393.44	1.5
393.806	1.54
394.171	1.54
394.536	1.5
394.902	1.57
395.267	1.48
395.632	1.45
395.997	1.49
396.362	1.53
396.727	1.49
397.092	1.46
397.457	1.47
397.822	1.59
398.187	1.74
398.552	1.48
398.917	1.66
399.282	1.42
399.646	1.39
400.011	1.68
400.376	1.51
400.74	1.46
401.105	1.51
401.47	1.55
401.834	1.61
402.199	1.47
402.563	1.56
402.927	1.49
403.292	1.65
403.656	1.56
404.02	1.55
404.384	1.71
404.749	1.52
405.113	1.58
405.477	1.78
405.841	1.6
406.205	1.55
406.569	1.54
406.933	1.63
407.296	1.59
407.66	1.56
408.024	1.48
408.388	1.6
408.752	1.67
409.115	1.49
409.479	1.72
409.842	1.57
410.206	1.5
410.569	1.55
410.933	1.6
411.296	1.45
411.66	1.64
412.023	1.38
412.386	1.5
412.749	1.5
413.113	1.49
413.476	1.45
413.839	1.7
414.202	1.57
414.565	1.45
414.928	1.52
415.291	1.49
415.654	1.33
416.017	1.75
416.38	1.48
416.742	1.46
417.105	1.37
417.468	1.47
417.83	1.46
418.193	1.64
418.556	1.42
418.918	1.39
419.281	1.49
419.643	1.7
420.005	1.57
420.368	1.48
420.73	1.43
421.092	1.47
421.455	1.6
421.817	1.35
422.179	1.49
422.541	1.51
422.903	1.73
423.265	1.59
423.627	1.58
423.989	1.43
424.351	1.47
424.713	1.56
425.075	1.44
425.436	1.47
425.798	1.51
426.16	1.54
426.521	1.47
426.883	1.57
427.245	1.45
427.606	1.47
427.967	1.38
428.329	1.42
428.69	1.75
429.052	1.47
429.413	1.57
429.774	1.54
430.135	1.47
430.497	1.55
430.858	1.46
431.219	1.52
431.58	1.46
431.941	1.36
432.302	1.42
432.663	1.46
433.024	1.64
433.384	1.47
433.745	1.48
434.106	1.57
434.467	1.54
434.827	1.52
435.188	1.44
435.548	1.61
435.909	1.42
436.269	1.51
436.63	1.5
436.99	1.47
437.351	1.32
437.711	1.43
438.071	1.42
438.431	1.39
438.792	1.49
439.152	1.49
439.512	1.34
439.872	1.45
440.232	1.47
440.592	1.41
440.952	1.49
441.312	1.37
441.671	1.38
442.031	1.42
442.391	1.46
442.751	1.4
443.11	1.45
443.47	1.37
443.83	1.4
444.189	1.33
444.549	1.33
444.908	1.29
445.267	1.36
445.627	1.34
445.986	1.32
446.345	1.31
446.705	1.38
447.064	1.34
447.423	1.32
447.782	1.31
448.141	1.28
448.5	1.33
448.859	1.25
449.218	1.27
449.577	1.3
449.936	1.28
450.295	1.27
450.653	1.29
451.012	1.23
451.371	1.24
451.729	1.24
452.088	1.26
452.447	1.23
452.805	1.22
453.163	1.22
453.522	1.24
453.88	1.2
454.239	1.18
454.597	1.18
454.955	1.15
455.313	1.13
455.671	1.13
456.029	1.12
456.388	1.1
456.746	1.09
457.104	1.1
457.461	1.06
457.819	1.06
458.177	1.08
458.535	1.03
458.893	1.02
459.25	1
459.608	1.02
459.966	0.98
460.323	0.98
460.681	0.95
461.038	0.95
461.396	0.94
461.753	0.93
462.111	0.92
462.468	0.89
462.825	0.88
463.182	0.89
463.54	0.85
463.897	0.87
464.254	0.84
464.611	0.83
464.968	0.82
465.325	0.82
465.682	0.79
466.039	0.77
466.395	0.76
466.752	0.76
467.109	0.76
467.466	0.74
467.822	0.75
468.179	0.73
468.535	0.71
468.892	0.69
469.248	0.68
469.605	0.67
469.961	0.68
470.318	0.67
470.674	0.63
471.03	0.63
471.386	0.63
471.743	0.6
472.099	0.61
472.455	0.59
472.811	0.59
473.167	0.57
473.523	0.56
473.879	0.55
474.235	0.56
474.59	0.54
474.946	0.52
475.302	0.52
475.657	0.52
476.013	0.51
476.369	0.49
476.724	0.48
477.08	0.48
477.435	0.47
477.791	0.46
478.146	0.46
478.501	0.44
478.857	0.44
479.212	0.42
479.567	0.42
479.922	0.4
480.277	0.41
480.632	0.4
480.987	0.4
481.342	0.38
481.697	0.37
482.052	0.36
482.407	0.36
482.762	0.36
483.116	0.35
483.471	0.33
483.826	0.32
484.18	0.33
484.535	0.32
484.89	0.3
485.244	0.31
485.598	0.3
485.953	0.3
486.307	0.29
486.661	0.29
487.016	0.27
487.37	0.28
487.724	0.27
488.078	0.27
488.432	0.26
488.786	0.26
489.14	0.25
489.494	0.24
489.848	0.24
490.202	0.24
490.556	0.23
490.91	0.23
491.263	0.22
491.617	0.22
491.971	0.22
492.324	0.22
492.678	0.21
493.031	0.22
493.385	0.21
493.738	0.2
494.091	0.2
494.445	0.2
494.798	0.2
495.151	0.19
495.504	0.19
495.857	0.18
496.21	0.19
496.564	0.18
496.916	0.19
497.269	0.17
497.622	0.18
497.975	0.17
498.328	0.18
498.681	0.17
499.033	0.16
499.386	0.16
499.739	0.16
500.091	0.15
500.444	0.15
500.796	0.15
501.149	0.14
501.501	0.15
501.854	0.15
502.206	0.14
502.558	0.14
502.91	0.14
503.263	0.14
503.615	0.14
503.967	0.13
504.319	0.14
504.671	0.13
505.023	0.13
505.375	0.13
505.726	0.13
506.078	0.13
506.43	0.12
506.782	0.12
507.133	0.13
507.485	0.13
507.837	0.13
508.188	0.12
508.54	0.13
508.891	0.13
509.243	0.12
509.594	0.13
509.945	0.12
510.296	0.12
510.648	0.12
510.999	0.11
511.35	0.11
511.701	0.11
512.052	0.12
512.403	0.11
512.754	0.12
513.105	0.1
513.456	0.12
513.807	0.11
514.157	0.11
514.508	0.11
514.859	0.11
515.209	0.11
515.56	0.11
515.91	0.11
516.261	0.11
516.611	0.1
516.962	0.11
517.312	0.1
517.662	0.1
518.013	0.11
518.363	0.11
518.713	0.11
519.063	0.11
519.413	0.11
519.763	0.11
520.113	0.11
520.463	0.11
520.813	0.11
521.163	0.11
521.512	0.11
521.862	0.1
522.212	0.11
522.562	0.11
522.911	0.11
523.261	0.1
523.61	0.11
523.96	0.1
524.309	0.11
524.658	0.11
525.008	0.1
525.357	0.1
525.706	0.11
526.056	0.1
526.405	0.1
526.754	0.1
527.103	0.1
527.452	0.1
527.801	0.1
528.15	0.11
528.499	0.1
528.847	0.11
529.196	0.11
529.545	0.11
529.893	0.11
530.242	0.11
530.591	0.11
530.939	0.12
531.288	0.12
531.636	0.11
531.985	0.11
532.333	0.11
532.681	0.11
533.029	0.11
533.378	0.11
533.726	0.11
534.074	0.11
534.422	0.1
534.77	0.12
535.118	0.11
535.466	0.1
535.814	0.1
536.162	0.11
536.509	0.11
536.857	0.11
537.205	0.11
537.552	0.11
537.9	0.11
538.248	0.1
538.595	0.11
538.943	0.11
539.29	0.11
539.637	0.11
539.985	0.11
540.332	0.11
540.679	0.11
541.026	0.1
541.373	0.12
541.721	0.1
542.068	0.1
542.415	0.11
542.762	0.1
543.108	0.1
543.455	0.1
543.802	0.1
544.149	0.1
544.496	0.1
544.842	0.1
545.189	0.1
545.535	0.1
545.882	0.1
546.228	0.09
546.575	0.09
546.921	0.1
547.267	0.1
547.614	0.1
547.96	0.09
548.306	0.09
548.652	0.1
548.998	0.1
549.344	0.1
549.69	0.1
550.036	0.09
550.382	0.09
550.728	0.1
551.074	0.1
551.42	0.11
551.765	0.1
552.111	0.1
552.457	0.11
552.802	0.11
553.148	0.1
553.493	0.1
553.839	0.11
554.184	0.1
554.529	0.1
554.875	0.1
555.22	0.11
555.565	0.11
555.91	0.1
556.255	0.11
556.6	0.11
556.945	0.1
557.29	0.1
557.635	0.11
557.98	0.1
558.325	0.11
558.67	0.1
559.014	0.11
559.359	0.11
559.704	0.11
560.048	0.1
560.393	0.1
560.737	0.09
561.082	0.1
561.426	0.09
561.77	0.1
562.115	0.09
562.459	0.1
562.803	0.1
563.147	0.1
563.491	0.11
563.835	0.1
564.179	0.1
564.523	0.1
564.867	0.09
565.211	0.1
565.555	0.11
565.899	0.11
566.242	0.11
566.586	0.09
566.93	0.1
567.273	0.11
567.617	0.1
567.96	0.11
568.304	0.11
568.647	0.1
568.99	0.11
569.334	0.11
569.677	0.11
570.02	0.11
570.363	0.11
570.706	0.11
571.049	0.11
571.392	0.11
571.735	0.1
572.078	0.11
572.421	0.11
572.764	0.1
573.106	0.11
573.449	0.11
573.792	0.1
574.134	0.1
574.477	0.11
574.819	0.1
575.162	0.1
575.504	0.1
575.847	0.1
576.189	0.1
576.531	0.1
576.873	0.1
577.215	0.1
577.558	0.11
577.9	0.1
578.242	0.1
578.584	0.1
578.926	0.1
579.267	0.1
579.609	0.1
579.951	0.1
580.293	0.09
580.634	0.1
580.976	0.1
581.318	0.1
581.659	0.1
582.001	0.1
582.342	0.1
582.683	0.11
583.025	0.1
583.366	0.1
583.707	0.1
584.049	0.1
584.39	0.1
584.731	0.1
585.072	0.1
585.413	0.1
585.754	0.1
586.095	0.1
586.435	0.11
586.776	0.1
587.117	0.11
587.458	0.1
587.798	0.11
588.139	0.1
588.48	0.1
588.82	0.1
589.161	0.1
589.501	0.1
589.841	0.1
590.182	0.1
590.522	0.09
590.862	0.1
591.202	0.09
591.542	0.1
591.882	0.09
592.222	0.1
592.562	0.1
592.902	0.1
593.242	0.1
593.582	0.1
593.922	0.09
594.261	0.09
594.601	0.1
594.941	0.09
595.28	0.1
595.62	0.09
595.959	0.09
596.299	0.09
596.638	0.1
596.977	0.09
597.317	0.1
597.656	0.1
597.995	0.1
598.334	0.11
598.673	0.1
599.012	0.09
599.351	0.11
599.69	0.1
600.029	0.11
600.368	0.11
600.707	0.11
601.046	0.11
601.384	0.11
601.723	0.11
602.061	0.1
602.4	0.11
602.738	0.11
603.077	0.1
603.415	0.1
603.754	0.1
604.092	0.1
604.43	0.1
604.768	0.1
605.107	0.1
605.445	0.1
605.783	0.09
606.121	0.1
606.459	0.1
606.796	0.1
607.134	0.1
607.472	0.1
607.81	0.1
608.148	0.1
608.485	0.1
608.823	0.1
609.16	0.1
609.498	0.1
609.835	0.1
610.173	0.09
610.51	0.1
610.847	0.1
611.185	0.1
611.522	0.11
611.859	0.1
612.196	0.1
612.533	0.1
612.87	0.11
613.207	0.1
613.544	0.1
613.881	0.11
614.217	0.11
614.554	0.1
614.891	0.11
615.228	0.1
615.564	0.11
615.901	0.11
616.237	0.11
616.574	0.1
616.91	0.11
617.246	0.11
617.583	0.11
617.919	0.12
618.255	0.12
618.591	0.1
618.927	0.1
619.263	0.12
619.599	0.11
619.935	0.11
620.271	0.11
620.607	0.11
620.943	0.11
621.279	0.11
621.614	0.11
621.95	0.1
622.286	0.1
622.621	0.1
622.957	0.1
623.292	0.1
623.627	0.1
623.963	0.1
624.298	0.1
624.633	0.1
624.968	0.1
625.304	0.1
625.639	0.1
625.974	0.1
626.309	0.1
626.644	0.1
626.979	0.1
627.313	0.1
627.648	0.1
627.983	0.1
628.318	0.1
628.652	0.1
628.987	0.1
629.321	0.09
629.656	0.09
629.99	0.09
630.325	0.1
630.659	0.09
630.993	0.09
631.327	0.09
631.662	0.09
631.996	0.09
632.33	0.09
632.664	0.09
632.998	0.08
633.332	0.08
633.666	0.08
633.999	0.09
634.333	0.08
634.667	0.09
635.001	0.08
635.334	0.08
635.668	0.08
636.001	0.08
636.335	0.09
636.668	0.09
637.001	0.07
637.335	0.08
637.668	0.08
638.001	0.08
638.334	0.08
638.668	0.08
639.001	0.08
639.334	0.08
639.667	0.08
639.999	0.08
640.332	0.08
640.665	0.08
640.998	0.08
641.331	0.08
641.663	0.08
641.996	0.09
642.328	0.09
642.661	0.08
642.993	0.08
643.326	0.09
643.658	0.08
643.99	0.09
644.323	0.09
644.655	0.08
644.987	0.1
645.319	0.09
645.651	0.1
645.983	0.09
646.315	0.09
646.647	0.09
646.979	0.1
647.31	0.1
647.642	0.09
647.974	0.09
648.305	0.09
648.637	0.09
648.968	0.1
649.3	0.09
649.631	0.1
649.963	0.09
650.294	0.09
650.625	0.09
650.957	0.09
651.288	0.09
651.619	0.09
651.95	0.09
652.281	0.09
652.612	0.09
652.943	0.09
653.274	0.1
653.604	0.09
653.935	0.08
654.266	0.09
654.596	0.09
654.927	0.09
655.258	0.09
655.588	0.09
655.918	0.09
656.249	0.07
656.579	0.09
656.909	0.09
657.24	0.09
657.57	0.09
657.9	0.09
658.23	0.09
658.56	0.09
658.89	0.09
659.22	0.08
659.55	0.09
659.88	0.09
660.209	0.09
660.539	0.1
660.869	0.09
661.198	0.09
661.528	0.09
661.857	0.09
662.187	0.09
662.516	0.09
662.846	0.08
663.175	0.09
663.504	0.09
663.833	0.09
664.163	0.08
664.492	0.08
664.821	0.08
665.15	0.08
665.479	0.09
665.807	0.08
666.136	0.09
666.465	0.08
666.794	0.08
667.122	0.08
667.451	0.09
667.78	0.09
668.108	0.09
668.437	0.09
668.765	0.09
669.093	0.09
669.422	0.09
669.75	0.09
670.078	0.09
670.406	0.09
670.734	0.09
671.062	0.09
671.39	0.08
671.718	0.09
672.046	0.1
672.374	0.09
672.702	0.08
673.029	0.08
673.357	0.09
673.685	0.09
674.012	0.09
674.34	0.08
674.667	0.09
674.995	0.09
675.322	0.09
675.649	0.09
675.977	0.09
676.304	0.08
676.631	0.09
676.958	0.09
677.285	0.08
677.612	0.08
677.939	0.09
678.266	0.09
678.593	0.09
678.92	0.08
679.246	0.08
679.573	0.09
679.9	0.08
680.226	0.08
680.553	0.08
680.879	0.08
681.206	0.09
681.532	0.08
681.858	0.08
682.184	0.08
682.511	0.09
682.837	0.08
683.163	0.08
683.489	0.09
683.815	0.09
684.141	0.09
684.467	0.08
684.793	0.09
685.118	0.08
685.444	0.08
685.77	0.08
686.095	0.08
686.421	0.08
686.746	0.09
687.072	0.08
687.397	0.08
687.723	0.08
688.048	0.08
688.373	0.07
688.698	0.08
689.023	0.08
689.349	0.08
689.674	0.08
689.999	0.07
690.323	0.07
690.648	0.07
690.973	0.07
691.298	0.07
691.623	0.07
691.947	0.07
692.272	0.07
692.596	0.07
692.921	0.07
693.245	0.07
693.57	0.08
693.894	0.08
694.218	0.08
694.543	0.08
694.867	0.08
695.191	0.07
695.515	0.08
695.839	0.07
696.163	0.08
696.487	0.08
696.811	0.08
697.135	0.08
697.458	0.08
697.782	0.08
698.106	0.07
698.429	0.08
698.753	0.08
699.076	0.08
699.4	0.07
699.723	0.08
700.046	0.08
700.37	0.08
700.693	0.08
701.016	0.08
701.339	0.08
701.662	0.08
701.985	0.08
702.308	0.08
702.631	0.08
702.954	0.07
703.277	0.07
703.599	0.08
703.922	0.06
704.245	0.07
704.567	0.07
704.89	0.07
705.212	0.06
705.535	0.06
705.857	0.07
706.179	0.06
706.502	0.06
706.824	0.06
707.146	0.06
707.468	0.07
707.79	0.07
708.112	0.07
708.434	0.07
708.756	0.06
709.078	0.07
709.399	0.06
709.721	0.07
710.043	0.07
710.364	0.07
710.686	0.07
711.007	0.07
711.329	0.07
711.65	0.07
711.972	0.07
712.293	0.07
712.614	0.08
712.935	0.07
713.256	0.07
713.577	0.07
713.898	0.07
714.219	0.07
714.54	0.07
714.861	0.07
715.182	0.07
715.503	0.07
715.823	0.07
716.144	0.07
716.464	0.06
716.785	0.06
717.105	0.06
717.426	0.07
717.746	0.06
718.066	0.06
718.387	0.07
718.707	0.06
719.027	0.06
719.347	0.05
719.667	0.07
719.987	0.06
720.307	0.06
720.627	0.06
720.947	0.06
721.266	0.06
721.586	0.05
721.906	0.06
722.225	0.06
722.545	0.05
722.864	0.05
723.184	0.07
723.503	0.06
723.823	0.06
724.142	0.06
724.461	0.06
724.78	0.06
725.099	0.06
725.418	0.06
725.737	0.06
726.056	0.07
726.375	0.07
726.694	0.07
727.013	0.07
727.331	0.05
727.65	0.06
727.969	0.06
728.287	0.06
728.606	0.06
728.924	0.06
729.242	0.06
729.561	0.06
729.879	0.06
730.197	0.06
730.515	0.05
730.834	0.05
731.152	0.06
731.47	0.06
731.788	0.06
732.105	0.06
732.423	0.06
732.741	0.05
733.059	0.06
733.376	0.07
733.694	0.06
734.012	0.06
734.329	0.07
734.647	0.07
734.964	0.07
735.281	0.07
735.599	0.08
735.916	0.07
736.233	0.06
736.55	0.07
736.867	0.07
737.184	0.08
737.501	0.07
737.818	0.06
738.135	0.08
738.452	0.07
738.768	0.08
739.085	0.06
739.402	0.06
739.718	0.06
740.035	0.07
740.351	0.07
740.668	0.06
740.984	0.06
741.3	0.06
741.617	0.06
741.933	0.06
742.249	0.06
742.565	0.06
742.881	0.07
743.197	0.06
743.513	0.05
743.829	0.05
744.144	0.06
744.46	0.06
744.776	0.06
745.091	0.06
745.407	0.06
745.722	0.05
746.038	0.05
746.353	0.05
746.669	0.07
746.984	0.05
747.299	0.05
747.614	0.06
747.93	0.07
748.245	0.05
748.56	0.05
748.875	0.05
749.189	0.05
749.504	0.06
749.819	0.06
750.134	0.05
750.448	0.05
750.763	0.05
751.078	0.04
751.392	0.05
751.707	0.06
752.021	0.06
752.335	0.06
752.65	0.05
752.964	0.05
753.278	0.06
753.592	0.06
753.906	0.05
754.22	0.06
754.534	0.06
754.848	0.06
755.162	0.06
755.476	0.06
755.789	0.07
756.103	0.05
756.417	0.06
756.73	0.05
757.044	0.06
757.357	0.06
757.671	0.06
757.984	0.05
758.297	0.06
758.61	0.06
758.924	0.06
759.237	0.05
759.55	0.05
759.863	0.05
760.176	0.05
760.488	0.05
760.801	0.05
761.114	0.05
761.427	0.05
761.739	0.05
762.052	0.04
762.365	0.05
762.677	0.05
762.99	0.05
763.302	0.05
763.614	0.05
763.926	0.06
764.239	0.05
764.551	0.05
764.863	0.06
765.175	0.07
765.487	0.05
765.799	0.05
766.111	0.05
766.423	0.05
766.734	0.05
767.046	0.05
767.358	0.05
767.669	0.05
767.981	0.05
768.292	0.05
768.604	0.06
768.915	0.05
769.226	0.05
769.537	0.04
769.849	0.05
770.16	0.05
770.471	0.04
770.782	0.05
771.093	0.05
771.404	0.04
771.715	0.04
772.025	0.05
772.336	0.04
772.647	0.04
772.957	0.04
773.268	0.04
773.578	0.05
773.889	0.06
774.199	0.05
774.51	0.05
774.82	0.05
775.13	0.05
775.44	0.05
775.75	0.06
776.06	0.05
776.37	0.04
776.68	0.06
776.99	0.06
777.3	0.05
777.61	0.06
777.92	0.06
778.229	0.05
778.539	0.06
778.848	0.06
779.158	0.05
779.467	0.06
779.777	0.06
780.086	0.06
780.395	0.05
780.704	0.05
781.013	0.05
781.323	0.05
781.632	0.05
781.941	0.05
782.249	0.05
782.558	0.05
782.867	0.05
783.176	0.04
783.485	0.04
783.793	0.05
784.102	0.04
784.41	0.05
784.719	0.05
785.027	0.05
785.335	0.05
785.644	0.05
785.952	0.05
786.26	0.05
786.568	0.04
786.876	0.05
787.184	0.05
787.492	0.06
787.8	0.05
788.108	0.05
788.416	0.04
788.723	0.06
789.031	0.04
789.338	0.05
789.646	0.04
789.953	0.06
790.261	0.05
790.568	0.05
790.876	0.05
791.183	0.06
791.49	0.05
791.797	0.05
792.104	0.05
792.411	0.06
792.718	0.05
793.025	0.05
793.332	0.05
793.639	0.06
793.945	0.06
794.252	0.06
794.559	0.06
794.865	0.06
795.172	0.06
795.478	0.05
795.784	0.06
796.091	0.05
796.397	0.06
796.703	0.06
797.009	0.06
797.315	0.06
797.622	0.06
797.927	0.05
798.233	0.05
798.539	0.06
798.845	0.05
799.151	0.06
799.456	0.06
799.762	0.05
800.068	0.05
800.373	0.06
800.679	0.06
800.984	0.05
801.289	0.05
801.595	0.06
801.9	0.06
802.205	0.05
802.51	0.05
802.815	0.06
803.12	0.06
803.425	0.06
803.73	0.05
804.035	0.05
804.339	0.05
804.644	0.05
804.949	0.05
805.253	0.05
805.558	0.06
805.862	0.05
806.167	0.06
806.471	0.05
806.775	0.06
807.08	0.05
807.384	0.05
807.688	0.05
807.992	0.06
808.296	0.05
808.6	0.06
808.904	0.06
809.207	0.05
809.511	0.06
809.815	0.06
810.119	0.06
810.422	0.06
810.726	0.07
811.029	0.07
811.332	0.06
811.636	0.06
811.939	0.06
812.242	0.06
812.546	0.07
812.849	0.06
813.152	0.07
813.455	0.06
813.758	0.07
814.06	0.06
814.363	0.06
814.666	0.07
814.969	0.06
815.271	0.06
815.574	0.05
815.877	0.05
816.179	0.05
816.481	0.05
816.784	0.05
817.086	0.05
817.388	0.05
817.69	0.04
817.993	0.04
818.295	0.04
818.597	0.04
818.899	0.04
819.2	0.04
819.502	0.04
819.804	0.05
820.106	0.04
820.407	0.03
820.709	0.05
821.01	0.04
821.312	0.05
821.613	0.04
821.915	0.04
822.216	0.04
822.517	0.04
822.818	0.03
823.119	0.04
823.42	0.04
823.721	0.03
824.022	0.04
824.323	0.04
824.624	0.04
824.925	0.04
825.226	0.05
825.526	0.03
825.827	0.04
826.127	0.04
826.428	0.04
826.728	0.04
827.028	0.03
827.329	0.03
827.629	0.03
827.929	0.04
828.229	0.03
828.529	0.04
828.829	0.03
829.129	0.03
829.429	0.04
829.729	0.03
830.029	0.03
830.328	0.03
830.628	0.03
830.927	0.02
831.227	0.03
831.526	0.03
831.826	0.03
832.125	0.02
832.424	0.02
832.724	0.02
833.023	0.03
833.322	0.03
833.621	0.03
833.92	0.02
834.219	0.02
834.518	0.02
834.816	0.01
835.115	0.03
835.414	0.01
835.712	0.02
836.011	0.01
836.309	0.02
836.608	0.01
836.906	0.01
837.205	0
837.503	0
837.801	0
838.099	0
838.397	-0
838.695	-0.01
838.993	-0
839.291	-0.01
839.589	-0.01
839.887	-0.01
840.184	-0.01
840.482	-0.01
840.78	-0.01
841.077	-0.02
841.375	-0.02
841.672	-0.01
841.969	-0.01
842.267	-0.02
842.564	-0.01
842.861	-0.01
843.158	-0.01
843.455	-0.02
843.752	-0.03
844.049	-0.02
844.346	-0.02
844.643	-0.03
844.94	-0.03
845.236	-0.01
845.533	-0.01
845.83	-0.02
846.126	-0.03
846.423	-0.02
846.719	-0.04
847.015	-0.03
847.312	-0.02
847.608	-0.03
847.904	-0.04
848.2	-0.04
848.496	-0.04
848.792	-0.03
849.088	-0.03
849.384	-0.04
849.68	-0.05
849.975	-0.03
850.271	-0.04
850.567	-0.05
850.862	-0.05
851.158	-0.05
851.453	-0.05
851.748	-0.07
852.044	-0.05
852.339	-0.05
852.634	-0.07
852.929	-0.05
853.224	-0.06
853.519	-0.05
853.814	-0.05
854.109	-0.06
854.404	-0.06
854.699	-0.06
854.994	-0.06
855.288	-0.05
855.583	-0.06
855.877	-0.07
856.172	-0.06
856.466	-0.06
856.76	-0.06
857.055	-0.07
857.349	-0.07
857.643	-0.08
857.937	-0.08
858.231	-0.07
858.525	-0.09
858.819	-0.09
859.113	-0.1
859.407	-0.1
859.701	-0.09
859.994	-0.1
860.288	-0.09
860.581	-0.1
860.875	-0.1
861.168	-0.11
861.462	-0.1
861.755	-0.09
862.048	-0.11
862.341	-0.1
862.634	-0.11
862.928	-0.1
863.221	-0.1
863.513	-0.11
863.806	-0.11
864.099	-0.11
864.392	-0.12
864.685	-0.11
864.977	-0.1
865.27	-0.12
865.562	-0.12
865.855	-0.11
866.147	-0.13
866.44	-0.11
866.732	-0.12
867.024	-0.12
867.316	-0.12
867.608	-0.12
867.9	-0.13
868.192	-0.13
868.484	-0.13
868.776	-0.13
869.068	-0.13
869.359	-0.13
869.651	-0.13
869.943	-0.15
870.234	-0.14
870.526	-0.14
870.817	-0.14
871.108	-0.13
871.4	-0.13
871.691	-0.14
871.982	-0.15
872.273	-0.15
872.564	-0.15
872.855	-0.15
873.146	-0.16
873.437	-0.15
873.728	-0.16
874.019	-0.15
874.309	-0.16
874.6	-0.16
874.89	-0.15
875.181	-0.15
875.471	-0.15
875.762	-0.16
876.052	-0.15
876.342	-0.14
876.632	-0.16
876.922	-0.17
877.213	-0.16
877.503	-0.17
877.792	-0.17
878.082	-0.17
878.372	-0.16
878.662	-0.19
878.952	-0.17
879.241	-0.17
879.531	-0.17
879.82	-0.17
880.11	-0.16
880.399	-0.16
880.688	-0.16
880.978	-0.16
881.267	-0.16
