Data from 12-12-AQDScycling_Absorbance__163__00163.txt Node

Date: Tue Dec 12 11:39:02 EST 2023
User: kyuminlee
Spectrometer: FLMS00943
Trigger mode: 0
Integration Time (sec): 1.000000E-1
Scans to average: 1
Electric dark correction enabled: true
Nonlinearity correction enabled: false
Boxcar width: 0
XAxis mode: Wavelengths
Number of Pixels in Spectrum: 2048
>>>>>Begin Spectral Data<<<<<
179.651	-0
180.037	-0
180.424	-0
180.81	0.27
181.197	0.4
181.583	-0
181.97	-0.21
182.356	-0
182.743	-0
183.129	0.36
183.515	0.22
183.901	-0
184.288	0.15
184.674	0.11
185.06	-1.02
185.446	-0
185.832	-1.5
186.218	0.52
186.604	-0
186.99	-0
187.376	-0
187.762	-0.38
188.148	0.77
188.534	0.24
188.92	0.01
189.305	0.03
189.691	0.05
190.077	0.18
190.463	-0.01
190.848	0.15
191.234	0.07
191.619	0.09
192.005	0.06
192.391	0.18
192.776	0.12
193.161	0.3
193.547	0
193.932	-0.02
194.318	0.04
194.703	0.12
195.088	0.22
195.473	0.13
195.859	0.13
196.244	0.14
196.629	0.03
197.014	0.07
197.399	0.14
197.784	0.07
198.169	0.1
198.554	0.36
198.939	0.08
199.324	0.12
199.709	0.09
200.094	0.15
200.478	-0.01
200.863	0.24
201.248	0.23
201.633	0.1
202.017	0.13
202.402	0.27
202.787	0.2
203.171	0.08
203.556	0.19
203.94	0.28
204.325	0.19
204.709	0.21
205.093	-0.04
205.478	0.19
205.862	0.07
206.246	0.28
206.631	0.06
207.015	0.21
207.399	0.25
207.783	0.1
208.167	0.16
208.551	0.31
208.935	0.25
209.319	0.18
209.703	0.16
210.087	0.17
210.471	0.05
210.855	0.17
211.239	0.27
211.623	0.31
212.007	0.25
212.39	0.3
212.774	0.26
213.158	0.05
213.541	0.27
213.925	0.16
214.309	0.22
214.692	0.38
215.076	0.11
215.459	0.2
215.842	0.24
216.226	0.16
216.609	0.3
216.993	0.18
217.376	0.58
217.759	0.23
218.142	0.28
218.525	0.36
218.909	0.24
219.292	0.29
219.675	0.33
220.058	0.39
220.441	0.44
220.824	0.45
221.207	0.69
221.59	0.47
221.973	0.5
222.355	0.54
222.738	0.64
223.121	0.56
223.504	0.58
223.886	0.74
224.269	0.62
224.652	0.64
225.034	0.73
225.417	0.66
225.799	0.77
226.182	0.85
226.564	0.9
226.947	0.88
227.329	0.77
227.711	0.97
228.094	0.99
228.476	1.02
228.858	0.87
229.24	0.73
229.623	1
230.005	0.84
230.387	0.82
230.769	0.84
231.151	0.94
231.533	0.95
231.915	0.87
232.297	0.9
232.679	0.96
233.061	1.04
233.442	0.9
233.824	1.02
234.206	0.93
234.588	1.01
234.969	1
235.351	1.07
235.733	1.04
236.114	1.09
236.496	0.98
236.877	1.1
237.259	1.02
237.64	0.97
238.022	1.02
238.403	0.98
238.784	1.05
239.165	0.97
239.547	1.25
239.928	1.1
240.309	1
240.69	1.01
241.071	1.09
241.452	1.03
241.834	1.08
242.215	1.07
242.595	1.09
242.976	1.1
243.357	1.16
243.738	1.05
244.119	1.4
244.5	1.11
244.881	1.25
245.261	1.15
245.642	1.08
246.023	1.2
246.403	1.19
246.784	1.3
247.164	1.33
247.545	1.26
247.925	1.29
248.306	1.19
248.686	1.31
249.067	1.23
249.447	1.45
249.827	1.46
250.207	1.55
250.588	1.31
250.968	1.43
251.348	1.29
251.728	1.51
252.108	1.33
252.488	1.55
252.868	1.32
253.248	1.33
253.628	1.35
254.008	1.5
254.388	1.33
254.768	1.49
255.147	1.38
255.527	1.37
255.907	1.4
256.287	1.34
256.666	1.34
257.046	1.49
257.425	1.45
257.805	1.36
258.184	1.31
258.564	1.35
258.943	1.31
259.323	1.55
259.702	1.52
260.081	1.42
260.461	1.51
260.84	1.37
261.219	1.91
261.598	1.54
261.977	1.44
262.356	1.66
262.736	1.53
263.115	1.55
263.494	1.34
263.873	1.4
264.251	1.47
264.63	1.48
265.009	1.47
265.388	1.39
265.767	1.44
266.145	1.28
266.524	1.42
266.903	1.41
267.281	1.38
267.66	1.48
268.039	1.59
268.417	1.51
268.796	1.37
269.174	1.37
269.552	1.35
269.931	1.56
270.309	1.32
270.687	1.47
271.066	1.53
271.444	1.36
271.822	1.4
272.2	1.41
272.578	1.51
272.956	1.53
273.334	1.28
273.712	1.36
274.09	1.42
274.468	1.48
274.846	1.3
275.224	1.35
275.602	1.39
275.98	1.45
276.357	1.46
276.735	1.57
277.113	1.38
277.49	1.32
277.868	1.25
278.246	1.35
278.623	1.27
279.001	1.38
279.378	1.39
279.756	1.53
280.133	1.48
280.51	1.28
280.888	1.44
281.265	1.45
281.642	1.47
282.019	1.52
282.396	1.57
282.773	1.4
283.151	1.55
283.528	1.43
283.905	1.46
284.282	1.45
284.659	1.53
285.035	1.25
285.412	1.32
285.789	1.43
286.166	1.53
286.543	1.47
286.919	1.42
287.296	1.45
287.673	1.59
288.049	1.51
288.426	1.61
288.802	1.65
289.179	1.5
289.555	1.97
289.932	1.45
290.308	1.39
290.684	1.41
291.061	1.44
291.437	1.71
291.813	1.35
292.189	1.31
292.565	1.4
292.942	1.29
293.318	1.34
293.694	1.34
294.07	1.38
294.446	1.49
294.822	1.69
295.197	1.33
295.573	1.5
295.949	1.37
296.325	1.4
296.701	1.51
297.076	1.57
297.452	1.53
297.828	1.49
298.203	1.56
298.579	1.56
298.954	1.42
299.33	1.54
299.705	1.42
300.081	1.43
300.456	1.43
300.831	1.45
301.206	1.33
301.582	1.47
301.957	1.51
302.332	1.39
302.707	1.32
303.082	1.3
303.457	1.4
303.832	1.36
304.207	1.34
304.582	1.29
304.957	1.36
305.332	1.38
305.707	1.35
306.082	1.36
306.456	1.41
306.831	1.29
307.206	1.26
307.58	1.36
307.955	1.27
308.33	1.32
308.704	1.26
309.079	1.24
309.453	1.33
309.828	1.27
310.202	1.23
310.576	1.19
310.951	1.25
311.325	1.25
311.699	1.32
312.073	1.24
312.447	1.24
312.821	1.22
313.196	1.24
313.57	1.19
313.944	1.21
314.317	1.23
314.691	1.25
315.065	1.18
315.439	1.25
315.813	1.24
316.187	1.22
316.56	1.33
316.934	1.24
317.308	1.22
317.681	1.25
318.055	1.24
318.428	1.23
318.802	1.24
319.175	1.22
319.549	1.26
319.922	1.2
320.295	1.17
320.669	1.29
321.042	1.28
321.415	1.37
321.788	1.23
322.162	1.26
322.535	1.28
322.908	1.27
323.281	1.2
323.654	1.36
324.027	1.18
324.4	1.37
324.773	1.33
325.145	1.32
325.518	1.24
325.891	1.21
326.264	1.36
326.636	1.25
327.009	1.24
327.382	1.3
327.754	1.25
328.127	1.25
328.499	1.26
328.872	1.31
329.244	1.3
329.616	1.27
329.989	1.24
330.361	1.36
330.733	1.31
331.106	1.32
331.478	1.3
331.85	1.27
332.222	1.2
332.594	1.3
332.966	1.31
333.338	1.38
333.71	1.33
334.082	1.35
334.454	1.21
334.826	1.37
335.197	1.39
335.569	1.26
335.941	1.21
336.312	1.25
336.684	1.34
337.056	1.32
337.427	1.35
337.799	1.33
338.17	1.34
338.542	1.3
338.913	1.32
339.284	1.45
339.656	1.38
340.027	1.3
340.398	1.34
340.769	1.3
341.141	1.45
341.512	1.36
341.883	1.28
342.254	1.33
342.625	1.41
342.996	1.26
343.367	1.29
343.738	1.35
344.108	1.3
344.479	1.52
344.85	1.33
345.221	1.36
345.591	1.32
345.962	1.28
346.333	1.35
346.703	1.17
347.074	1.27
347.444	1.21
347.815	1.23
348.185	1.31
348.556	1.25
348.926	1.28
349.296	1.3
349.666	1.26
350.037	1.17
350.407	1.16
350.777	1.26
351.147	1.29
351.517	1.3
351.887	1.32
352.257	1.52
352.627	1.37
352.997	1.19
353.367	1.42
353.737	1.33
354.106	1.33
354.476	1.23
354.846	1.31
355.216	1.45
355.585	1.34
355.955	1.35
356.324	1.44
356.694	1.3
357.063	1.36
357.433	1.35
357.802	1.41
358.171	1.35
358.541	1.36
358.91	1.38
359.279	1.47
359.648	1.34
360.017	1.45
360.387	1.37
360.756	1.41
361.125	1.47
361.494	1.51
361.863	1.39
362.231	1.41
362.6	1.52
362.969	1.43
363.338	1.35
363.707	1.49
364.075	1.56
364.444	1.36
364.813	1.53
365.181	1.39
365.55	1.42
365.918	1.61
366.287	1.53
366.655	1.54
367.024	1.52
367.392	1.47
367.76	1.44
368.128	1.44
368.497	1.41
368.865	1.45
369.233	1.43
369.601	1.53
369.969	1.45
370.337	1.45
370.705	1.37
371.073	1.57
371.441	1.44
371.809	1.44
372.177	1.39
372.544	1.43
372.912	1.53
373.28	1.51
373.647	1.62
374.015	1.65
374.383	1.61
374.75	1.59
375.118	1.54
375.485	1.61
375.853	1.6
376.22	1.42
376.587	1.58
376.955	1.64
377.322	1.64
377.689	1.41
378.056	1.49
378.423	1.4
378.79	1.63
379.157	1.49
379.524	1.48
379.891	1.47
380.258	1.54
380.625	1.54
380.992	1.65
381.359	1.57
381.726	1.78
382.092	1.52
382.459	1.48
382.826	1.68
383.192	1.58
383.559	1.54
383.925	1.49
384.292	1.52
384.658	1.74
385.025	1.53
385.391	1.73
385.757	1.66
386.123	1.62
386.49	1.52
386.856	1.63
387.222	1.6
387.588	1.52
387.954	1.65
388.32	1.9
388.686	1.55
389.052	1.47
389.418	1.53
389.784	1.45
390.15	1.59
390.515	1.38
390.881	1.88
391.247	1.54
391.613	1.57
391.978	1.47
392.344	1.63
392.709	1.71
393.075	1.67
393.44	1.55
393.806	1.63
394.171	1.37
394.536	1.57
394.902	1.61
395.267	1.61
395.632	1.46
395.997	1.4
396.362	1.58
396.727	1.53
397.092	1.4
397.457	1.51
397.822	1.47
398.187	1.63
398.552	1.52
398.917	1.64
399.282	1.58
399.646	1.58
400.011	1.69
400.376	1.56
400.74	1.44
401.105	1.43
401.47	1.56
401.834	1.49
402.199	1.44
402.563	1.59
402.927	1.47
403.292	1.45
403.656	1.48
404.02	1.56
404.384	1.63
404.749	1.56
405.113	1.71
405.477	1.57
405.841	1.58
406.205	1.53
406.569	1.43
406.933	1.42
407.296	1.48
407.66	1.52
408.024	1.51
408.388	1.69
408.752	1.55
409.115	1.54
409.479	1.54
409.842	1.47
410.206	1.39
410.569	1.36
410.933	1.46
411.296	1.41
411.66	1.53
412.023	1.43
412.386	1.41
412.749	1.37
413.113	1.54
413.476	1.34
413.839	1.54
414.202	1.48
414.565	1.37
414.928	1.36
415.291	1.26
415.654	1.39
416.017	1.46
416.38	1.38
416.742	1.31
417.105	1.34
417.468	1.43
417.83	1.35
418.193	1.45
418.556	1.34
418.918	1.35
419.281	1.43
419.643	1.53
420.005	1.41
420.368	1.53
420.73	1.31
421.092	1.46
421.455	1.37
421.817	1.34
422.179	1.44
422.541	1.34
422.903	1.44
423.265	1.51
423.627	1.36
423.989	1.37
424.351	1.34
424.713	1.36
425.075	1.38
425.436	1.41
425.798	1.34
426.16	1.42
426.521	1.36
426.883	1.38
427.245	1.34
427.606	1.32
427.967	1.23
428.329	1.33
428.69	1.4
429.052	1.29
429.413	1.45
429.774	1.38
430.135	1.3
430.497	1.32
430.858	1.31
431.219	1.39
431.58	1.26
431.941	1.31
432.302	1.33
432.663	1.26
433.024	1.33
433.384	1.38
433.745	1.33
434.106	1.35
434.467	1.3
434.827	1.31
435.188	1.28
435.548	1.37
435.909	1.3
436.269	1.35
436.63	1.24
436.99	1.23
437.351	1.21
437.711	1.26
438.071	1.18
438.431	1.24
438.792	1.19
439.152	1.24
439.512	1.24
439.872	1.19
440.232	1.26
440.592	1.25
440.952	1.21
441.312	1.2
441.671	1.22
442.031	1.18
442.391	1.15
442.751	1.2
443.11	1.19
443.47	1.19
443.83	1.14
444.189	1.1
444.549	1.17
444.908	1.15
445.267	1.12
445.627	1.11
445.986	1.14
446.345	1.09
446.705	1.14
447.064	1.12
447.423	1.06
447.782	1.11
448.141	1.11
448.5	1.02
448.859	1.08
449.218	1.05
449.577	1.07
449.936	1.07
450.295	1.06
450.653	1.04
451.012	1.05
451.371	1.05
451.729	1.02
452.088	1.03
452.447	1.02
452.805	1.02
453.163	0.99
453.522	1
453.88	0.98
454.239	0.98
454.597	0.96
454.955	0.94
455.313	0.95
455.671	0.94
456.029	0.93
456.388	0.9
456.746	0.9
457.104	0.89
457.461	0.88
457.819	0.88
458.177	0.86
458.535	0.85
458.893	0.83
459.25	0.83
459.608	0.82
459.966	0.81
460.323	0.8
460.681	0.78
461.038	0.77
461.396	0.77
461.753	0.76
462.111	0.77
462.468	0.74
462.825	0.74
463.182	0.72
463.54	0.72
463.897	0.72
464.254	0.7
464.611	0.69
464.968	0.68
465.325	0.68
465.682	0.67
466.039	0.66
466.395	0.63
466.752	0.64
467.109	0.63
467.466	0.62
467.822	0.63
468.179	0.59
468.535	0.6
468.892	0.59
469.248	0.57
469.605	0.58
469.961	0.56
470.318	0.56
470.674	0.55
471.03	0.55
471.386	0.54
471.743	0.52
472.099	0.53
472.455	0.5
472.811	0.5
473.167	0.48
473.523	0.48
473.879	0.48
474.235	0.48
474.59	0.46
474.946	0.45
475.302	0.45
475.657	0.45
476.013	0.44
476.369	0.43
476.724	0.43
477.08	0.43
477.435	0.41
477.791	0.4
478.146	0.4
478.501	0.4
478.857	0.4
479.212	0.39
479.567	0.38
479.922	0.37
480.277	0.37
480.632	0.37
480.987	0.36
481.342	0.36
481.697	0.34
482.052	0.34
482.407	0.34
482.762	0.33
483.116	0.32
483.471	0.32
483.826	0.31
484.18	0.31
484.535	0.3
484.89	0.3
485.244	0.3
485.598	0.3
485.953	0.29
486.307	0.29
486.661	0.28
487.016	0.27
487.37	0.28
487.724	0.28
488.078	0.27
488.432	0.27
488.786	0.26
489.14	0.27
489.494	0.25
489.848	0.25
490.202	0.25
490.556	0.24
490.91	0.24
491.263	0.24
491.617	0.23
491.971	0.24
492.324	0.23
492.678	0.23
493.031	0.23
493.385	0.23
493.738	0.22
494.091	0.22
494.445	0.22
494.798	0.22
495.151	0.21
495.504	0.21
495.857	0.22
496.21	0.22
496.564	0.2
496.916	0.21
497.269	0.2
497.622	0.21
497.975	0.2
498.328	0.2
498.681	0.2
499.033	0.2
499.386	0.2
499.739	0.19
500.091	0.19
500.444	0.19
500.796	0.2
501.149	0.19
501.501	0.18
501.854	0.18
502.206	0.18
502.558	0.19
502.91	0.18
503.263	0.18
503.615	0.19
503.967	0.18
504.319	0.18
504.671	0.17
505.023	0.17
505.375	0.17
505.726	0.17
506.078	0.17
506.43	0.17
506.782	0.16
507.133	0.17
507.485	0.17
507.837	0.17
508.188	0.17
508.54	0.16
508.891	0.17
509.243	0.17
509.594	0.17
509.945	0.17
510.296	0.16
510.648	0.17
510.999	0.16
511.35	0.16
511.701	0.16
512.052	0.16
512.403	0.16
512.754	0.16
513.105	0.16
513.456	0.15
513.807	0.15
514.157	0.15
514.508	0.15
514.859	0.15
515.209	0.15
515.56	0.15
515.91	0.15
516.261	0.15
516.611	0.15
516.962	0.16
517.312	0.15
517.662	0.15
518.013	0.15
518.363	0.15
518.713	0.16
519.063	0.15
519.413	0.15
519.763	0.15
520.113	0.15
520.463	0.16
520.813	0.15
521.163	0.16
521.512	0.16
521.862	0.16
522.212	0.15
522.562	0.16
522.911	0.16
523.261	0.15
523.61	0.16
523.96	0.15
524.309	0.16
524.658	0.16
525.008	0.15
525.357	0.15
525.706	0.16
526.056	0.15
526.405	0.15
526.754	0.15
527.103	0.15
527.452	0.15
527.801	0.16
528.15	0.15
528.499	0.15
528.847	0.16
529.196	0.15
529.545	0.16
529.893	0.16
530.242	0.16
530.591	0.16
530.939	0.17
531.288	0.16
531.636	0.16
531.985	0.16
532.333	0.16
532.681	0.16
533.029	0.17
533.378	0.16
533.726	0.16
534.074	0.17
534.422	0.15
534.77	0.16
535.118	0.16
535.466	0.15
535.814	0.16
536.162	0.15
536.509	0.16
536.857	0.16
537.205	0.16
537.552	0.16
537.9	0.16
538.248	0.16
538.595	0.16
538.943	0.17
539.29	0.16
539.637	0.16
539.985	0.15
540.332	0.15
540.679	0.15
541.026	0.15
541.373	0.15
541.721	0.14
542.068	0.15
542.415	0.15
542.762	0.16
543.108	0.15
543.455	0.15
543.802	0.15
544.149	0.14
544.496	0.16
544.842	0.15
545.189	0.14
545.535	0.15
545.882	0.15
546.228	0.14
546.575	0.15
546.921	0.15
547.267	0.15
547.614	0.15
547.96	0.15
548.306	0.15
548.652	0.16
548.998	0.16
549.344	0.15
549.69	0.15
550.036	0.15
550.382	0.15
550.728	0.15
551.074	0.16
551.42	0.16
551.765	0.15
552.111	0.16
552.457	0.17
552.802	0.16
553.148	0.17
553.493	0.15
553.839	0.16
554.184	0.16
554.529	0.16
554.875	0.15
555.22	0.16
555.565	0.15
555.91	0.16
556.255	0.17
556.6	0.17
556.945	0.15
557.29	0.16
557.635	0.17
557.98	0.16
558.325	0.16
558.67	0.16
559.014	0.16
559.359	0.16
559.704	0.17
560.048	0.15
560.393	0.16
560.737	0.15
561.082	0.16
561.426	0.15
561.77	0.16
562.115	0.14
562.459	0.15
562.803	0.15
563.147	0.15
563.491	0.15
563.835	0.16
564.179	0.16
564.523	0.15
564.867	0.15
565.211	0.15
565.555	0.16
565.899	0.16
566.242	0.15
566.586	0.15
566.93	0.15
567.273	0.16
567.617	0.16
567.96	0.16
568.304	0.16
568.647	0.16
568.99	0.16
569.334	0.17
569.677	0.16
570.02	0.15
570.363	0.16
570.706	0.16
571.049	0.16
571.392	0.17
571.735	0.16
572.078	0.16
572.421	0.17
572.764	0.16
573.106	0.15
573.449	0.15
573.792	0.16
574.134	0.16
574.477	0.16
574.819	0.16
575.162	0.16
575.504	0.16
575.847	0.16
576.189	0.16
576.531	0.16
576.873	0.16
577.215	0.16
577.558	0.16
577.9	0.15
578.242	0.16
578.584	0.15
578.926	0.16
579.267	0.16
579.609	0.16
579.951	0.15
580.293	0.16
580.634	0.16
580.976	0.15
581.318	0.14
581.659	0.15
582.001	0.15
582.342	0.15
582.683	0.15
583.025	0.15
583.366	0.15
583.707	0.15
584.049	0.15
584.39	0.15
584.731	0.15
585.072	0.15
585.413	0.15
585.754	0.15
586.095	0.16
586.435	0.16
586.776	0.15
587.117	0.15
587.458	0.15
587.798	0.16
588.139	0.16
588.48	0.15
588.82	0.15
589.161	0.15
589.501	0.15
589.841	0.15
590.182	0.15
590.522	0.15
590.862	0.15
591.202	0.15
591.542	0.15
591.882	0.15
592.222	0.15
592.562	0.16
592.902	0.15
593.242	0.15
593.582	0.17
593.922	0.15
594.261	0.15
594.601	0.16
594.941	0.15
595.28	0.15
595.62	0.16
595.959	0.15
596.299	0.15
596.638	0.15
596.977	0.15
597.317	0.16
597.656	0.15
597.995	0.15
598.334	0.16
598.673	0.14
599.012	0.15
599.351	0.15
599.69	0.14
600.029	0.15
600.368	0.15
600.707	0.15
601.046	0.15
601.384	0.15
601.723	0.15
602.061	0.14
602.4	0.15
602.738	0.15
603.077	0.15
603.415	0.15
603.754	0.15
604.092	0.15
604.43	0.15
604.768	0.15
605.107	0.15
605.445	0.15
605.783	0.15
606.121	0.14
606.459	0.16
606.796	0.15
607.134	0.14
607.472	0.14
607.81	0.15
608.148	0.14
608.485	0.15
608.823	0.14
609.16	0.14
609.498	0.15
609.835	0.15
610.173	0.15
610.51	0.15
610.847	0.15
611.185	0.16
611.522	0.15
611.859	0.15
612.196	0.15
612.533	0.16
612.87	0.15
613.207	0.16
613.544	0.16
613.881	0.16
614.217	0.15
614.554	0.15
614.891	0.15
615.228	0.16
615.564	0.16
615.901	0.15
616.237	0.16
616.574	0.16
616.91	0.15
617.246	0.16
617.583	0.16
617.919	0.17
618.255	0.17
618.591	0.15
618.927	0.16
619.263	0.17
619.599	0.16
619.935	0.16
620.271	0.16
620.607	0.15
620.943	0.16
621.279	0.16
621.614	0.15
621.95	0.15
622.286	0.15
622.621	0.14
622.957	0.15
623.292	0.14
623.627	0.15
623.963	0.14
624.298	0.14
624.633	0.14
624.968	0.15
625.304	0.15
625.639	0.14
625.974	0.14
626.309	0.14
626.644	0.14
626.979	0.15
627.313	0.14
627.648	0.14
627.983	0.14
628.318	0.14
628.652	0.14
628.987	0.14
629.321	0.14
629.656	0.14
629.99	0.14
630.325	0.14
630.659	0.14
630.993	0.14
631.327	0.14
631.662	0.13
631.996	0.14
632.33	0.14
632.664	0.14
632.998	0.13
633.332	0.14
633.666	0.13
633.999	0.13
634.333	0.13
634.667	0.13
635.001	0.13
635.334	0.13
635.668	0.13
636.001	0.13
636.335	0.13
636.668	0.13
637.001	0.12
637.335	0.13
637.668	0.13
638.001	0.13
638.334	0.13
638.668	0.13
639.001	0.13
639.334	0.12
639.667	0.12
639.999	0.13
640.332	0.13
640.665	0.12
640.998	0.13
641.331	0.12
641.663	0.12
641.996	0.12
642.328	0.13
642.661	0.13
642.993	0.13
643.326	0.13
643.658	0.12
643.99	0.12
644.323	0.12
644.655	0.13
644.987	0.12
645.319	0.13
645.651	0.12
645.983	0.13
646.315	0.13
646.647	0.13
646.979	0.14
647.31	0.14
647.642	0.13
647.974	0.13
648.305	0.13
648.637	0.13
648.968	0.14
649.3	0.13
649.631	0.14
649.963	0.13
650.294	0.14
650.625	0.13
650.957	0.14
651.288	0.13
651.619	0.13
651.95	0.14
652.281	0.13
652.612	0.13
652.943	0.13
653.274	0.13
653.604	0.13
653.935	0.13
654.266	0.13
654.596	0.13
654.927	0.13
655.258	0.13
655.588	0.13
655.918	0.13
656.249	0.11
656.579	0.12
656.909	0.12
657.24	0.12
657.57	0.13
657.9	0.13
658.23	0.13
658.56	0.14
658.89	0.13
659.22	0.12
659.55	0.13
659.88	0.13
660.209	0.13
660.539	0.14
660.869	0.13
661.198	0.13
661.528	0.13
661.857	0.14
662.187	0.13
662.516	0.13
662.846	0.13
663.175	0.12
663.504	0.12
663.833	0.12
664.163	0.13
664.492	0.12
664.821	0.12
665.15	0.12
665.479	0.13
665.807	0.12
666.136	0.13
666.465	0.12
666.794	0.12
667.122	0.12
667.451	0.12
667.78	0.12
668.108	0.12
668.437	0.12
668.765	0.12
669.093	0.12
669.422	0.12
669.75	0.12
670.078	0.12
670.406	0.13
670.734	0.12
671.062	0.13
671.39	0.12
671.718	0.12
672.046	0.12
672.374	0.12
672.702	0.12
673.029	0.11
673.357	0.12
673.685	0.12
674.012	0.11
674.34	0.11
674.667	0.12
674.995	0.12
675.322	0.12
675.649	0.11
675.977	0.11
676.304	0.11
676.631	0.11
676.958	0.11
677.285	0.11
677.612	0.11
677.939	0.11
678.266	0.11
678.593	0.1
678.92	0.11
679.246	0.11
679.573	0.11
679.9	0.1
680.226	0.1
680.553	0.1
680.879	0.11
681.206	0.1
681.532	0.1
681.858	0.1
682.184	0.1
682.511	0.11
682.837	0.09
683.163	0.1
683.489	0.1
683.815	0.1
684.141	0.11
684.467	0.1
684.793	0.1
685.118	0.1
685.444	0.11
685.77	0.1
686.095	0.1
686.421	0.1
686.746	0.11
687.072	0.1
687.397	0.1
687.723	0.11
688.048	0.11
688.373	0.1
688.698	0.11
689.023	0.1
689.349	0.11
689.674	0.1
689.999	0.1
690.323	0.09
690.648	0.09
690.973	0.09
691.298	0.09
691.623	0.09
691.947	0.09
692.272	0.08
692.596	0.09
692.921	0.1
693.245	0.09
693.57	0.09
693.894	0.09
694.218	0.09
694.543	0.09
694.867	0.09
695.191	0.08
695.515	0.09
695.839	0.08
696.163	0.09
696.487	0.09
696.811	0.08
697.135	0.09
697.458	0.09
697.782	0.09
698.106	0.09
698.429	0.09
698.753	0.09
699.076	0.09
699.4	0.09
699.723	0.09
700.046	0.08
700.37	0.09
700.693	0.09
701.016	0.09
701.339	0.09
701.662	0.09
701.985	0.09
702.308	0.09
702.631	0.09
702.954	0.09
703.277	0.08
703.599	0.09
703.922	0.08
704.245	0.08
704.567	0.09
704.89	0.09
705.212	0.09
705.535	0.08
705.857	0.09
706.179	0.08
706.502	0.09
706.824	0.08
707.146	0.08
707.468	0.09
707.79	0.08
708.112	0.08
708.434	0.08
708.756	0.08
709.078	0.09
709.399	0.08
709.721	0.08
710.043	0.08
710.364	0.08
710.686	0.08
711.007	0.08
711.329	0.09
711.65	0.08
711.972	0.08
712.293	0.09
712.614	0.09
712.935	0.09
713.256	0.08
713.577	0.08
713.898	0.08
714.219	0.07
714.54	0.07
714.861	0.07
715.182	0.08
715.503	0.08
715.823	0.08
716.144	0.07
716.464	0.06
716.785	0.07
717.105	0.07
717.426	0.08
717.746	0.07
718.066	0.06
718.387	0.06
718.707	0.07
719.027	0.08
719.347	0.06
719.667	0.07
719.987	0.06
720.307	0.06
720.627	0.06
720.947	0.06
721.266	0.06
721.586	0.06
721.906	0.06
722.225	0.06
722.545	0.06
722.864	0.05
723.184	0.07
723.503	0.06
723.823	0.07
724.142	0.06
724.461	0.06
724.78	0.06
725.099	0.06
725.418	0.06
725.737	0.06
726.056	0.07
726.375	0.06
726.694	0.06
727.013	0.06
727.331	0.05
727.65	0.06
727.969	0.06
728.287	0.07
728.606	0.06
728.924	0.05
729.242	0.06
729.561	0.06
729.879	0.05
730.197	0.07
730.515	0.05
730.834	0.06
731.152	0.06
731.47	0.06
731.788	0.06
732.105	0.05
732.423	0.06
732.741	0.05
733.059	0.05
733.376	0.06
733.694	0.05
734.012	0.05
734.329	0.05
734.647	0.05
734.964	0.06
735.281	0.06
735.599	0.06
735.916	0.06
736.233	0.05
736.55	0.06
736.867	0.06
737.184	0.07
737.501	0.05
737.818	0.07
738.135	0.07
738.452	0.06
738.768	0.06
739.085	0.06
739.402	0.05
739.718	0.06
740.035	0.07
740.351	0.06
740.668	0.06
740.984	0.06
741.3	0.06
741.617	0.06
741.933	0.06
742.249	0.07
742.565	0.06
742.881	0.07
743.197	0.06
743.513	0.06
743.829	0.05
744.144	0.06
744.46	0.06
744.776	0.07
745.091	0.06
745.407	0.06
745.722	0.05
746.038	0.06
746.353	0.05
746.669	0.07
746.984	0.05
747.299	0.06
747.614	0.07
747.93	0.06
748.245	0.05
748.56	0.06
748.875	0.05
749.189	0.05
749.504	0.06
749.819	0.06
750.134	0.05
750.448	0.06
750.763	0.06
751.078	0.05
751.392	0.05
751.707	0.07
752.021	0.06
752.335	0.07
752.65	0.07
752.964	0.06
753.278	0.06
753.592	0.06
753.906	0.05
754.22	0.06
754.534	0.06
754.848	0.06
755.162	0.05
755.476	0.06
755.789	0.06
756.103	0.05
756.417	0.06
756.73	0.06
757.044	0.07
757.357	0.06
757.671	0.06
757.984	0.06
758.297	0.06
758.61	0.06
758.924	0.06
759.237	0.06
759.55	0.05
759.863	0.05
760.176	0.07
760.488	0.05
760.801	0.06
761.114	0.06
761.427	0.05
761.739	0.06
762.052	0.05
762.365	0.06
762.677	0.06
762.99	0.05
763.302	0.05
763.614	0.06
763.926	0.06
764.239	0.06
764.551	0.05
764.863	0.05
765.175	0.07
765.487	0.05
765.799	0.04
766.111	0.04
766.423	0.05
766.734	0.05
767.046	0.04
767.358	0.05
767.669	0.05
767.981	0.05
768.292	0.05
768.604	0.05
768.915	0.04
769.226	0.04
769.537	0.04
769.849	0.05
770.16	0.04
770.471	0.04
770.782	0.04
771.093	0.05
771.404	0.03
771.715	0.04
772.025	0.04
772.336	0.04
772.647	0.03
772.957	0.04
773.268	0.05
773.578	0.04
773.889	0.05
774.199	0.05
774.51	0.04
774.82	0.04
775.13	0.05
775.44	0.04
775.75	0.05
776.06	0.04
776.37	0.04
776.68	0.04
776.99	0.04
777.3	0.04
777.61	0.05
777.92	0.04
778.229	0.04
778.539	0.04
778.848	0.05
779.158	0.05
779.467	0.05
779.777	0.04
780.086	0.05
780.395	0.04
780.704	0.04
781.013	0.04
781.323	0.04
781.632	0.05
781.941	0.05
782.249	0.05
782.558	0.05
782.867	0.05
783.176	0.03
783.485	0.04
783.793	0.04
784.102	0.04
784.41	0.04
784.719	0.04
785.027	0.04
785.335	0.04
785.644	0.04
785.952	0.04
786.26	0.04
786.568	0.04
786.876	0.03
787.184	0.04
787.492	0.04
787.8	0.04
788.108	0.04
788.416	0.03
788.723	0.03
789.031	0.03
789.338	0.04
789.646	0.03
789.953	0.04
790.261	0.04
790.568	0.05
790.876	0.04
791.183	0.04
791.49	0.03
791.797	0.04
792.104	0.03
792.411	0.05
792.718	0.04
793.025	0.03
793.332	0.05
793.639	0.05
793.945	0.05
794.252	0.05
794.559	0.05
794.865	0.04
795.172	0.05
795.478	0.04
795.784	0.05
796.091	0.04
796.397	0.05
796.703	0.05
797.009	0.05
797.315	0.04
797.622	0.05
797.927	0.05
798.233	0.05
798.539	0.05
798.845	0.04
799.151	0.05
799.456	0.04
799.762	0.04
800.068	0.05
800.373	0.05
800.679	0.04
800.984	0.04
801.289	0.04
801.595	0.04
801.9	0.03
802.205	0.04
802.51	0.04
802.815	0.04
803.12	0.03
803.425	0.04
803.73	0.03
804.035	0.04
804.339	0.03
804.644	0.04
804.949	0.04
805.253	0.04
805.558	0.04
805.862	0.04
806.167	0.04
806.471	0.04
806.775	0.05
807.08	0.04
807.384	0.05
807.688	0.04
807.992	0.04
808.296	0.04
808.6	0.05
808.904	0.05
809.207	0.04
809.511	0.05
809.815	0.05
810.119	0.04
810.422	0.05
810.726	0.06
811.029	0.05
811.332	0.05
811.636	0.06
811.939	0.05
812.242	0.05
812.546	0.05
812.849	0.05
813.152	0.05
813.455	0.05
813.758	0.05
814.06	0.05
814.363	0.04
814.666	0.05
814.969	0.05
815.271	0.05
815.574	0.04
815.877	0.05
816.179	0.05
816.481	0.04
816.784	0.04
817.086	0.03
817.388	0.03
817.69	0.03
817.993	0.03
818.295	0.03
818.597	0.03
818.899	0.03
819.2	0.02
819.502	0.02
819.804	0.03
820.106	0.02
820.407	0.02
820.709	0.04
821.01	0.03
821.312	0.02
821.613	0.02
821.915	0.03
822.216	0.03
822.517	0.02
822.818	0.03
823.119	0.03
823.42	0.03
823.721	0.03
824.022	0.02
824.323	0.03
824.624	0.03
824.925	0.04
825.226	0.04
825.526	0.04
825.827	0.03
826.127	0.03
826.428	0.04
826.728	0.03
827.028	0.03
827.329	0.04
827.629	0.02
827.929	0.03
828.229	0.03
828.529	0.04
828.829	0.02
829.129	0.03
829.429	0.03
829.729	0.03
830.029	0.03
830.328	0.03
830.628	0.02
830.927	0.02
831.227	0.02
831.526	0.03
831.826	0.02
832.125	0.03
832.424	0.02
832.724	0.03
833.023	0.03
833.322	0.03
833.621	0.02
833.92	0.01
834.219	0.03
834.518	0.02
834.816	0.01
835.115	0.02
835.414	0.01
835.712	0.01
836.011	0.02
836.309	0.01
836.608	0.02
836.906	0.01
837.205	0
837.503	0
837.801	0.01
838.099	-0
838.397	-0.01
838.695	-0.01
838.993	0
839.291	-0.01
839.589	-0.01
839.887	-0.01
840.184	-0.02
840.482	-0.02
840.78	-0.02
841.077	-0.03
841.375	-0.03
841.672	-0.02
841.969	-0.03
842.267	-0.03
842.564	-0.03
842.861	-0.02
843.158	-0.03
843.455	-0.05
843.752	-0.03
844.049	-0.04
844.346	-0.04
844.643	-0.04
844.94	-0.05
845.236	-0.03
845.533	-0.05
845.83	-0.04
846.126	-0.04
846.423	-0.04
846.719	-0.06
847.015	-0.05
847.312	-0.06
847.608	-0.06
847.904	-0.06
848.2	-0.06
848.496	-0.05
848.792	-0.05
849.088	-0.05
849.384	-0.06
849.68	-0.06
849.975	-0.05
850.271	-0.06
850.567	-0.06
850.862	-0.07
851.158	-0.06
851.453	-0.06
851.748	-0.07
852.044	-0.06
852.339	-0.07
852.634	-0.08
852.929	-0.07
853.224	-0.08
853.519	-0.07
853.814	-0.07
854.109	-0.08
854.404	-0.08
854.699	-0.08
854.994	-0.07
855.288	-0.07
855.583	-0.08
855.877	-0.09
856.172	-0.09
856.466	-0.09
856.76	-0.08
857.055	-0.09
857.349	-0.09
857.643	-0.1
857.937	-0.11
858.231	-0.1
858.525	-0.11
858.819	-0.12
859.113	-0.11
859.407	-0.11
859.701	-0.11
859.994	-0.12
860.288	-0.11
860.581	-0.12
860.875	-0.12
861.168	-0.12
861.462	-0.12
861.755	-0.12
862.048	-0.13
862.341	-0.12
862.634	-0.12
862.928	-0.13
863.221	-0.12
863.513	-0.12
863.806	-0.13
864.099	-0.14
864.392	-0.13
864.685	-0.12
864.977	-0.12
865.27	-0.13
865.562	-0.12
865.855	-0.12
866.147	-0.13
866.44	-0.13
866.732	-0.14
867.024	-0.15
867.316	-0.15
867.608	-0.14
867.9	-0.14
868.192	-0.14
868.484	-0.14
868.776	-0.15
869.068	-0.14
869.359	-0.14
869.651	-0.15
869.943	-0.16
870.234	-0.15
870.526	-0.16
870.817	-0.16
871.108	-0.14
871.4	-0.14
871.691	-0.15
871.982	-0.16
872.273	-0.17
872.564	-0.18
872.855	-0.16
873.146	-0.17
873.437	-0.16
873.728	-0.17
874.019	-0.15
874.309	-0.17
874.6	-0.16
874.89	-0.18
875.181	-0.18
875.471	-0.16
875.762	-0.16
876.052	-0.17
876.342	-0.16
876.632	-0.16
876.922	-0.18
877.213	-0.17
877.503	-0.18
877.792	-0.17
878.082	-0.18
878.372	-0.16
878.662	-0.19
878.952	-0.18
879.241	-0.19
879.531	-0.18
879.82	-0.19
880.11	-0.18
880.399	-0.18
880.688	-0.18
880.978	-0.18
881.267	-0.18
