Data from 12-12-AQDScycling_Absorbance__102__00102.txt Node

Date: Tue Dec 12 11:22:14 EST 2023
User: kyuminlee
Spectrometer: FLMS00943
Trigger mode: 0
Integration Time (sec): 1.000000E-1
Scans to average: 1
Electric dark correction enabled: true
Nonlinearity correction enabled: false
Boxcar width: 0
XAxis mode: Wavelengths
Number of Pixels in Spectrum: 2048
>>>>>Begin Spectral Data<<<<<
179.651	-0
180.037	-0
180.424	-0
180.81	0.27
181.197	-0.01
181.583	-0
181.97	-0.08
182.356	-0
182.743	-0
183.129	-0.02
183.515	-0
183.901	-0
184.288	0.07
184.674	-0
185.06	-0
185.446	-0
185.832	-0
186.218	0.21
186.604	-0.38
186.99	-0
187.376	-0
187.762	0.6
188.148	0.23
188.534	-0.16
188.92	0.03
189.305	0.14
189.691	-0.03
190.077	0.11
190.463	0.14
190.848	0.14
191.234	0.22
191.619	0.01
192.005	0.23
192.391	0.08
192.776	0.15
193.161	0.19
193.547	0.2
193.932	-0.03
194.318	0.04
194.703	0.11
195.088	0.11
195.473	0.12
195.859	0.18
196.244	0.21
196.629	0.03
197.014	-0.01
197.399	0.14
197.784	0.1
198.169	0.04
198.554	0.31
198.939	0.27
199.324	0.05
199.709	0.04
200.094	0.12
200.478	-0.04
200.863	0.13
201.248	0.17
201.633	0.19
202.017	0.11
202.402	0.36
202.787	0.1
203.171	0.16
203.556	0.13
203.94	0.13
204.325	0.13
204.709	0.15
205.093	0.03
205.478	0.07
205.862	0.19
206.246	0.16
206.631	0.26
207.015	0.2
207.399	0.18
207.783	0.09
208.167	0.1
208.551	0.28
208.935	0.2
209.319	0.15
209.703	0.1
210.087	0.16
210.471	0.18
210.855	0.09
211.239	0.28
211.623	0.21
212.007	0.24
212.39	0.37
212.774	0.19
213.158	0.08
213.541	0.26
213.925	0.18
214.309	0.21
214.692	0.34
215.076	0.16
215.459	0.2
215.842	0.12
216.226	0.32
216.609	0.32
216.993	0.19
217.376	0.39
217.759	0.13
218.142	0.24
218.525	0.45
218.909	0.59
219.292	0.24
219.675	0.58
220.058	0.42
220.441	0.53
220.824	0.42
221.207	0.5
221.59	0.45
221.973	0.49
222.355	0.6
222.738	0.8
223.121	0.6
223.504	0.55
223.886	0.69
224.269	0.63
224.652	0.73
225.034	0.87
225.417	0.75
225.799	0.75
226.182	0.8
226.564	0.81
226.947	0.7
227.329	0.71
227.711	0.91
228.094	0.93
228.476	0.96
228.858	0.87
229.24	0.82
229.623	0.83
230.005	0.95
230.387	0.86
230.769	0.81
231.151	0.8
231.533	0.89
231.915	0.99
232.297	1.07
232.679	0.96
233.061	0.95
233.442	1.01
233.824	1.12
234.206	1.11
234.588	1.04
234.969	1.11
235.351	1.05
235.733	1
236.114	1.14
236.496	1
236.877	1.07
237.259	1.11
237.64	1
238.022	1.04
238.403	1.06
238.784	0.95
239.165	0.92
239.547	1
239.928	1.01
240.309	1.02
240.69	1.06
241.071	1.12
241.452	1.11
241.834	1.19
242.215	1.18
242.595	1.16
242.976	1.14
243.357	1.11
243.738	1
244.119	1.25
244.5	1.12
244.881	1.33
245.261	1.2
245.642	1.15
246.023	1.08
246.403	1.07
246.784	1.19
247.164	1.24
247.545	1.15
247.925	1.23
248.306	1.33
248.686	1.35
249.067	1.3
249.447	1.3
249.827	1.54
250.207	1.41
250.588	1.24
250.968	1.44
251.348	1.39
251.728	1.43
252.108	1.25
252.488	1.47
252.868	1.27
253.248	1.22
253.628	1.45
254.008	1.43
254.388	1.32
254.768	1.4
255.147	1.5
255.527	1.4
255.907	1.3
256.287	1.39
256.666	1.42
257.046	1.51
257.425	1.55
257.805	1.23
258.184	1.23
258.564	1.33
258.943	1.33
259.323	1.39
259.702	1.39
260.081	1.6
260.461	1.42
260.84	1.46
261.219	1.55
261.598	1.41
261.977	1.52
262.356	1.52
262.736	1.53
263.115	1.58
263.494	1.45
263.873	1.46
264.251	1.52
264.63	1.48
265.009	1.4
265.388	1.49
265.767	1.28
266.145	1.42
266.524	1.52
266.903	1.38
267.281	1.43
267.66	1.45
268.039	1.41
268.417	1.34
268.796	1.35
269.174	1.52
269.552	1.4
269.931	1.52
270.309	1.38
270.687	1.52
271.066	1.37
271.444	1.38
271.822	1.52
272.2	1.37
272.578	1.53
272.956	1.44
273.334	1.37
273.712	1.53
274.09	1.29
274.468	1.36
274.846	1.34
275.224	1.28
275.602	1.3
275.98	1.61
276.357	1.49
276.735	1.43
277.113	1.36
277.49	1.27
277.868	1.29
278.246	1.45
278.623	1.21
279.001	1.28
279.378	1.42
279.756	1.37
280.133	1.53
280.51	1.34
280.888	1.51
281.265	1.41
281.642	1.39
282.019	1.57
282.396	1.52
282.773	1.34
283.151	1.49
283.528	1.45
283.905	1.39
284.282	1.51
284.659	1.46
285.035	1.43
285.412	1.33
285.789	1.46
286.166	1.42
286.543	1.36
286.919	1.45
287.296	1.37
287.673	1.73
288.049	1.43
288.426	1.6
288.802	1.42
289.179	1.53
289.555	1.74
289.932	1.47
290.308	1.37
290.684	1.27
291.061	1.33
291.437	1.38
291.813	1.36
292.189	1.29
292.565	1.35
292.942	1.32
293.318	1.35
293.694	1.57
294.07	1.26
294.446	1.44
294.822	1.48
295.197	1.36
295.573	1.46
295.949	1.39
296.325	1.45
296.701	1.48
297.076	1.42
297.452	1.46
297.828	1.36
298.203	1.36
298.579	1.38
298.954	1.35
299.33	1.24
299.705	1.3
300.081	1.32
300.456	1.37
300.831	1.28
301.206	1.25
301.582	1.31
301.957	1.19
302.332	1.28
302.707	1.15
303.082	1.21
303.457	1.22
303.832	1.17
304.207	1.12
304.582	1.13
304.957	1.13
305.332	1.08
305.707	1.1
306.082	1.06
306.456	1.08
306.831	1.03
307.206	1.02
307.58	0.99
307.955	1.01
308.33	0.95
308.704	0.99
309.079	0.88
309.453	0.9
309.828	0.93
310.202	0.9
310.576	0.82
310.951	0.88
311.325	0.85
311.699	0.85
312.073	0.84
312.447	0.82
312.821	0.82
313.196	0.8
313.57	0.8
313.944	0.76
314.317	0.76
314.691	0.79
315.065	0.76
315.439	0.76
315.813	0.73
316.187	0.74
316.56	0.73
316.934	0.73
317.308	0.7
317.681	0.7
318.055	0.72
318.428	0.71
318.802	0.7
319.175	0.69
319.549	0.7
319.922	0.69
320.295	0.68
320.669	0.68
321.042	0.68
321.415	0.71
321.788	0.67
322.162	0.66
322.535	0.68
322.908	0.67
323.281	0.69
323.654	0.66
324.027	0.67
324.4	0.68
324.773	0.67
325.145	0.67
325.518	0.67
325.891	0.68
326.264	0.68
326.636	0.66
327.009	0.69
327.382	0.72
327.754	0.7
328.127	0.67
328.499	0.69
328.872	0.69
329.244	0.7
329.616	0.68
329.989	0.7
330.361	0.7
330.733	0.7
331.106	0.69
331.478	0.76
331.85	0.74
332.222	0.73
332.594	0.74
332.966	0.74
333.338	0.77
333.71	0.77
334.082	0.76
334.454	0.78
334.826	0.75
335.197	0.79
335.569	0.79
335.941	0.78
336.312	0.83
336.684	0.8
337.056	0.83
337.427	0.87
337.799	0.85
338.17	0.89
338.542	0.86
338.913	0.87
339.284	0.88
339.656	0.86
340.027	0.91
340.398	0.9
340.769	0.9
341.141	0.94
341.512	0.92
341.883	0.92
342.254	0.93
342.625	0.98
342.996	0.93
343.367	0.99
343.738	0.99
344.108	0.98
344.479	1.06
344.85	1.03
345.221	1.08
345.591	1.06
345.962	1.03
346.333	1.11
346.703	1.01
347.074	1.02
347.444	1.06
347.815	1.04
348.185	1.09
348.556	1.09
348.926	1.06
349.296	1.12
349.666	1.13
350.037	1.08
350.407	1.1
350.777	1.12
351.147	1.2
351.517	1.24
351.887	1.17
352.257	1.25
352.627	1.18
352.997	1.16
353.367	1.21
353.737	1.36
354.106	1.35
354.476	1.27
354.846	1.41
355.216	1.35
355.585	1.35
355.955	1.39
356.324	1.38
356.694	1.47
357.063	1.34
357.433	1.33
357.802	1.41
358.171	1.48
358.541	1.48
358.91	1.44
359.279	1.48
359.648	1.56
360.017	1.47
360.387	1.58
360.756	1.35
361.125	1.52
361.494	1.54
361.863	1.6
362.231	1.45
362.6	1.53
362.969	1.59
363.338	1.5
363.707	1.49
364.075	1.61
364.444	1.42
364.813	1.5
365.181	1.53
365.55	1.64
365.918	1.56
366.287	1.53
366.655	1.65
367.024	1.5
367.392	1.62
367.76	1.58
368.128	1.52
368.497	1.49
368.865	1.54
369.233	1.41
369.601	1.52
369.969	1.68
370.337	1.52
370.705	1.45
371.073	1.63
371.441	1.58
371.809	1.36
372.177	1.53
372.544	1.54
372.912	1.49
373.28	1.57
373.647	1.68
374.015	1.7
374.383	1.86
374.75	1.65
375.118	1.58
375.485	1.58
375.853	1.58
376.22	1.64
376.587	1.56
376.955	1.54
377.322	1.65
377.689	1.51
378.056	1.48
378.423	1.47
378.79	1.53
379.157	1.54
379.524	1.62
379.891	1.5
380.258	1.57
380.625	1.45
380.992	1.68
381.359	1.57
381.726	1.51
382.092	1.56
382.459	1.56
382.826	1.51
383.192	1.52
383.559	1.59
383.925	1.46
384.292	1.48
384.658	1.85
385.025	1.53
385.391	1.63
385.757	1.63
386.123	1.6
386.49	1.58
386.856	1.67
387.222	1.72
387.588	1.46
387.954	1.56
388.32	1.7
388.686	1.7
389.052	1.62
389.418	1.59
389.784	1.43
390.15	1.51
390.515	1.35
390.881	1.74
391.247	1.39
391.613	1.83
391.978	1.42
392.344	1.62
392.709	1.58
393.075	1.58
393.44	1.75
393.806	1.59
394.171	1.46
394.536	1.6
394.902	1.61
395.267	1.46
395.632	1.5
395.997	1.52
396.362	1.43
396.727	1.58
397.092	1.68
397.457	1.55
397.822	1.5
398.187	1.6
398.552	1.61
398.917	1.66
399.282	1.43
399.646	1.51
400.011	1.58
400.376	1.4
400.74	1.55
401.105	1.41
401.47	1.7
401.834	1.44
402.199	1.54
402.563	1.49
402.927	1.55
403.292	1.59
403.656	1.48
404.02	1.6
404.384	1.66
404.749	1.61
405.113	1.61
405.477	1.65
405.841	1.59
406.205	1.59
406.569	1.55
406.933	1.56
407.296	1.58
407.66	1.53
408.024	1.56
408.388	1.74
408.752	1.54
409.115	1.64
409.479	1.48
409.842	1.46
410.206	1.39
410.569	1.48
410.933	1.64
411.296	1.53
411.66	1.61
412.023	1.51
412.386	1.56
412.749	1.4
413.113	1.54
413.476	1.54
413.839	1.43
414.202	1.5
414.565	1.46
414.928	1.53
415.291	1.35
415.654	1.37
416.017	1.47
416.38	1.42
416.742	1.39
417.105	1.43
417.468	1.48
417.83	1.45
418.193	1.68
418.556	1.42
418.918	1.44
419.281	1.45
419.643	1.53
420.005	1.43
420.368	1.52
420.73	1.43
421.092	1.53
421.455	1.55
421.817	1.43
422.179	1.54
422.541	1.61
422.903	1.63
423.265	1.58
423.627	1.52
423.989	1.51
424.351	1.48
424.713	1.51
425.075	1.47
425.436	1.47
425.798	1.54
426.16	1.5
426.521	1.5
426.883	1.56
427.245	1.46
427.606	1.54
427.967	1.39
428.329	1.46
428.69	1.59
429.052	1.36
429.413	1.61
429.774	1.58
430.135	1.47
430.497	1.55
430.858	1.47
431.219	1.6
431.58	1.52
431.941	1.53
432.302	1.55
432.663	1.52
433.024	1.65
433.384	1.6
433.745	1.45
434.106	1.55
434.467	1.51
434.827	1.46
435.188	1.5
435.548	1.64
435.909	1.44
436.269	1.52
436.63	1.52
436.99	1.47
437.351	1.44
437.711	1.53
438.071	1.4
438.431	1.49
438.792	1.48
439.152	1.42
439.512	1.39
439.872	1.43
440.232	1.52
440.592	1.46
440.952	1.59
441.312	1.37
441.671	1.45
442.031	1.51
442.391	1.49
442.751	1.46
443.11	1.51
443.47	1.37
443.83	1.34
444.189	1.45
444.549	1.4
444.908	1.36
445.267	1.45
445.627	1.4
445.986	1.36
446.345	1.32
446.705	1.35
447.064	1.35
447.423	1.39
447.782	1.43
448.141	1.34
448.5	1.29
448.859	1.3
449.218	1.29
449.577	1.33
449.936	1.33
450.295	1.34
450.653	1.31
451.012	1.32
451.371	1.26
451.729	1.28
452.088	1.31
452.447	1.31
452.805	1.28
453.163	1.3
453.522	1.25
453.88	1.27
454.239	1.25
454.597	1.22
454.955	1.19
455.313	1.22
455.671	1.19
456.029	1.19
456.388	1.14
456.746	1.18
457.104	1.14
457.461	1.11
457.819	1.14
458.177	1.11
458.535	1.08
458.893	1.07
459.25	1.07
459.608	1.05
459.966	1.02
460.323	1.01
460.681	1
461.038	0.98
461.396	0.97
461.753	0.97
462.111	0.95
462.468	0.96
462.825	0.92
463.182	0.91
463.54	0.89
463.897	0.89
464.254	0.9
464.611	0.87
464.968	0.85
465.325	0.85
465.682	0.84
466.039	0.83
466.395	0.82
466.752	0.78
467.109	0.78
467.466	0.77
467.822	0.75
468.179	0.74
468.535	0.74
468.892	0.72
469.248	0.71
469.605	0.68
469.961	0.69
470.318	0.69
470.674	0.68
471.03	0.66
471.386	0.64
471.743	0.65
472.099	0.62
472.455	0.62
472.811	0.6
473.167	0.6
473.523	0.58
473.879	0.57
474.235	0.56
474.59	0.54
474.946	0.53
475.302	0.55
475.657	0.52
476.013	0.51
476.369	0.49
476.724	0.5
477.08	0.49
477.435	0.48
477.791	0.47
478.146	0.47
478.501	0.46
478.857	0.45
479.212	0.44
479.567	0.43
479.922	0.42
480.277	0.41
480.632	0.4
480.987	0.39
481.342	0.38
481.697	0.37
482.052	0.37
482.407	0.36
482.762	0.36
483.116	0.34
483.471	0.34
483.826	0.33
484.18	0.33
484.535	0.31
484.89	0.31
485.244	0.31
485.598	0.3
485.953	0.29
486.307	0.29
486.661	0.29
487.016	0.28
487.37	0.27
487.724	0.26
488.078	0.26
488.432	0.26
488.786	0.25
489.14	0.25
489.494	0.24
489.848	0.23
490.202	0.23
490.556	0.23
490.91	0.23
491.263	0.22
491.617	0.22
491.971	0.21
492.324	0.21
492.678	0.21
493.031	0.21
493.385	0.2
493.738	0.19
494.091	0.19
494.445	0.19
494.798	0.18
495.151	0.18
495.504	0.17
495.857	0.17
496.21	0.17
496.564	0.17
496.916	0.17
497.269	0.16
497.622	0.16
497.975	0.16
498.328	0.15
498.681	0.16
499.033	0.14
499.386	0.15
499.739	0.14
500.091	0.14
500.444	0.13
500.796	0.14
501.149	0.13
501.501	0.13
501.854	0.14
502.206	0.13
502.558	0.13
502.91	0.13
503.263	0.13
503.615	0.12
503.967	0.12
504.319	0.11
504.671	0.12
505.023	0.11
505.375	0.11
505.726	0.11
506.078	0.11
506.43	0.1
506.782	0.1
507.133	0.09
507.485	0.1
507.837	0.11
508.188	0.1
508.54	0.1
508.891	0.11
509.243	0.1
509.594	0.09
509.945	0.1
510.296	0.09
510.648	0.09
510.999	0.09
511.35	0.09
511.701	0.1
512.052	0.09
512.403	0.09
512.754	0.08
513.105	0.08
513.456	0.07
513.807	0.08
514.157	0.08
514.508	0.07
514.859	0.07
515.209	0.07
515.56	0.07
515.91	0.06
516.261	0.08
516.611	0.07
516.962	0.07
517.312	0.07
517.662	0.08
518.013	0.07
518.363	0.07
518.713	0.07
519.063	0.07
519.413	0.07
519.763	0.07
520.113	0.07
520.463	0.07
520.813	0.07
521.163	0.08
521.512	0.07
521.862	0.07
522.212	0.07
522.562	0.07
522.911	0.07
523.261	0.06
523.61	0.06
523.96	0.06
524.309	0.07
524.658	0.07
525.008	0.06
525.357	0.06
525.706	0.07
526.056	0.06
526.405	0.06
526.754	0.06
527.103	0.07
527.452	0.07
527.801	0.07
528.15	0.06
528.499	0.07
528.847	0.06
529.196	0.07
529.545	0.06
529.893	0.07
530.242	0.06
530.591	0.07
530.939	0.07
531.288	0.06
531.636	0.07
531.985	0.06
532.333	0.06
532.681	0.06
533.029	0.06
533.378	0.06
533.726	0.06
534.074	0.06
534.422	0.05
534.77	0.06
535.118	0.06
535.466	0.05
535.814	0.05
536.162	0.06
536.509	0.07
536.857	0.06
537.205	0.06
537.552	0.06
537.9	0.06
538.248	0.05
538.595	0.05
538.943	0.06
539.29	0.05
539.637	0.05
539.985	0.06
540.332	0.04
540.679	0.05
541.026	0.05
541.373	0.05
541.721	0.05
542.068	0.04
542.415	0.05
542.762	0.04
543.108	0.04
543.455	0.04
543.802	0.05
544.149	0.05
544.496	0.05
544.842	0.04
545.189	0.04
545.535	0.05
545.882	0.05
546.228	0.05
546.575	0.05
546.921	0.04
547.267	0.04
547.614	0.04
547.96	0.04
548.306	0.05
548.652	0.05
548.998	0.05
549.344	0.05
549.69	0.05
550.036	0.05
550.382	0.05
550.728	0.04
551.074	0.05
551.42	0.05
551.765	0.05
552.111	0.05
552.457	0.06
552.802	0.05
553.148	0.05
553.493	0.04
553.839	0.05
554.184	0.05
554.529	0.04
554.875	0.06
555.22	0.06
555.565	0.05
555.91	0.06
556.255	0.05
556.6	0.06
556.945	0.05
557.29	0.05
557.635	0.05
557.98	0.05
558.325	0.05
558.67	0.04
559.014	0.05
559.359	0.04
559.704	0.04
560.048	0.03
560.393	0.04
560.737	0.03
561.082	0.04
561.426	0.03
561.77	0.04
562.115	0.03
562.459	0.04
562.803	0.04
563.147	0.04
563.491	0.04
563.835	0.04
564.179	0.04
564.523	0.04
564.867	0.04
565.211	0.05
565.555	0.05
565.899	0.05
566.242	0.05
566.586	0.04
566.93	0.05
567.273	0.05
567.617	0.05
567.96	0.05
568.304	0.05
568.647	0.05
568.99	0.04
569.334	0.05
569.677	0.04
570.02	0.05
570.363	0.05
570.706	0.04
571.049	0.05
571.392	0.05
571.735	0.05
572.078	0.05
572.421	0.05
572.764	0.05
573.106	0.05
573.449	0.04
573.792	0.04
574.134	0.04
574.477	0.06
574.819	0.05
575.162	0.04
575.504	0.04
575.847	0.04
576.189	0.05
576.531	0.04
576.873	0.05
577.215	0.04
577.558	0.05
577.9	0.04
578.242	0.04
578.584	0.04
578.926	0.04
579.267	0.04
579.609	0.03
579.951	0.04
580.293	0.04
580.634	0.04
580.976	0.04
581.318	0.03
581.659	0.03
582.001	0.04
582.342	0.03
582.683	0.04
583.025	0.03
583.366	0.04
583.707	0.04
584.049	0.04
584.39	0.04
584.731	0.03
585.072	0.04
585.413	0.04
585.754	0.05
586.095	0.04
586.435	0.04
586.776	0.04
587.117	0.03
587.458	0.04
587.798	0.04
588.139	0.04
588.48	0.03
588.82	0.03
589.161	0.04
589.501	0.03
589.841	0.04
590.182	0.04
590.522	0.04
590.862	0.04
591.202	0.03
591.542	0.03
591.882	0.03
592.222	0.03
592.562	0.03
592.902	0.03
593.242	0.03
593.582	0.05
593.922	0.04
594.261	0.04
594.601	0.04
594.941	0.03
595.28	0.04
595.62	0.03
595.959	0.03
596.299	0.04
596.638	0.04
596.977	0.03
597.317	0.04
597.656	0.03
597.995	0.03
598.334	0.04
598.673	0.03
599.012	0.03
599.351	0.04
599.69	0.04
600.029	0.04
600.368	0.04
600.707	0.03
601.046	0.03
601.384	0.03
601.723	0.04
602.061	0.03
602.4	0.04
602.738	0.04
603.077	0.04
603.415	0.03
603.754	0.03
604.092	0.03
604.43	0.03
604.768	0.04
605.107	0.04
605.445	0.03
605.783	0.03
606.121	0.03
606.459	0.04
606.796	0.04
607.134	0.03
607.472	0.03
607.81	0.04
608.148	0.03
608.485	0.04
608.823	0.04
609.16	0.03
609.498	0.04
609.835	0.04
610.173	0.04
610.51	0.04
610.847	0.04
611.185	0.04
611.522	0.04
611.859	0.05
612.196	0.04
612.533	0.05
612.87	0.05
613.207	0.05
613.544	0.05
613.881	0.05
614.217	0.05
614.554	0.05
614.891	0.05
615.228	0.05
615.564	0.06
615.901	0.05
616.237	0.05
616.574	0.04
616.91	0.06
617.246	0.05
617.583	0.05
617.919	0.05
618.255	0.06
618.591	0.05
618.927	0.05
619.263	0.06
619.599	0.06
619.935	0.05
620.271	0.05
620.607	0.05
620.943	0.05
621.279	0.05
621.614	0.05
621.95	0.05
622.286	0.04
622.621	0.04
622.957	0.04
623.292	0.04
623.627	0.04
623.963	0.04
624.298	0.04
624.633	0.04
624.968	0.04
625.304	0.04
625.639	0.04
625.974	0.04
626.309	0.04
626.644	0.04
626.979	0.04
627.313	0.04
627.648	0.04
627.983	0.04
628.318	0.04
628.652	0.04
628.987	0.04
629.321	0.04
629.656	0.04
629.99	0.04
630.325	0.04
630.659	0.04
630.993	0.04
631.327	0.04
631.662	0.03
631.996	0.04
632.33	0.04
632.664	0.04
632.998	0.04
633.332	0.04
633.666	0.04
633.999	0.04
634.333	0.03
634.667	0.04
635.001	0.03
635.334	0.03
635.668	0.03
636.001	0.03
636.335	0.03
636.668	0.03
637.001	0.02
637.335	0.03
637.668	0.03
638.001	0.03
638.334	0.03
638.668	0.03
639.001	0.03
639.334	0.03
639.667	0.03
639.999	0.03
640.332	0.04
640.665	0.03
640.998	0.03
641.331	0.04
641.663	0.03
641.996	0.03
642.328	0.04
642.661	0.04
642.993	0.03
643.326	0.04
643.658	0.04
643.99	0.03
644.323	0.04
644.655	0.04
644.987	0.04
645.319	0.05
645.651	0.04
645.983	0.04
646.315	0.03
646.647	0.03
646.979	0.05
647.31	0.04
647.642	0.04
647.974	0.04
648.305	0.05
648.637	0.04
648.968	0.04
649.3	0.05
649.631	0.05
649.963	0.04
650.294	0.05
650.625	0.04
650.957	0.05
651.288	0.05
651.619	0.04
651.95	0.04
652.281	0.05
652.612	0.04
652.943	0.04
653.274	0.04
653.604	0.04
653.935	0.04
654.266	0.04
654.596	0.04
654.927	0.04
655.258	0.04
655.588	0.05
655.918	0.04
656.249	0.03
656.579	0.04
656.909	0.04
657.24	0.04
657.57	0.04
657.9	0.04
658.23	0.04
658.56	0.05
658.89	0.04
659.22	0.04
659.55	0.05
659.88	0.05
660.209	0.05
660.539	0.05
660.869	0.04
661.198	0.05
661.528	0.05
661.857	0.04
662.187	0.05
662.516	0.04
662.846	0.04
663.175	0.04
663.504	0.04
663.833	0.05
664.163	0.04
664.492	0.04
664.821	0.04
665.15	0.05
665.479	0.05
665.807	0.04
666.136	0.04
666.465	0.04
666.794	0.04
667.122	0.04
667.451	0.04
667.78	0.04
668.108	0.05
668.437	0.05
668.765	0.04
669.093	0.05
669.422	0.04
669.75	0.04
670.078	0.04
670.406	0.04
670.734	0.04
671.062	0.04
671.39	0.04
671.718	0.04
672.046	0.04
672.374	0.04
672.702	0.04
673.029	0.04
673.357	0.04
673.685	0.05
674.012	0.04
674.34	0.04
674.667	0.05
674.995	0.04
675.322	0.04
675.649	0.04
675.977	0.04
676.304	0.04
676.631	0.04
676.958	0.04
677.285	0.03
677.612	0.04
677.939	0.03
678.266	0.04
678.593	0.03
678.92	0.03
679.246	0.03
679.573	0.03
679.9	0.03
680.226	0.03
680.553	0.03
680.879	0.03
681.206	0.03
681.532	0.04
681.858	0.03
682.184	0.03
682.511	0.04
682.837	0.03
683.163	0.04
683.489	0.03
683.815	0.03
684.141	0.03
684.467	0.04
684.793	0.03
685.118	0.03
685.444	0.04
685.77	0.03
686.095	0.04
686.421	0.04
686.746	0.04
687.072	0.04
687.397	0.03
687.723	0.04
688.048	0.04
688.373	0.03
688.698	0.04
689.023	0.04
689.349	0.04
689.674	0.04
689.999	0.03
690.323	0.02
690.648	0.02
690.973	0.03
691.298	0.02
691.623	0.02
691.947	0.02
692.272	0.02
692.596	0.02
692.921	0.03
693.245	0.02
693.57	0.03
693.894	0.03
694.218	0.03
694.543	0.03
694.867	0.03
695.191	0.02
695.515	0.03
695.839	0.02
696.163	0.02
696.487	0.03
696.811	0.03
697.135	0.03
697.458	0.03
697.782	0.03
698.106	0.03
698.429	0.03
698.753	0.03
699.076	0.03
699.4	0.03
699.723	0.03
700.046	0.03
700.37	0.03
700.693	0.03
701.016	0.03
701.339	0.03
701.662	0.04
701.985	0.04
702.308	0.03
702.631	0.03
702.954	0.04
703.277	0.04
703.599	0.05
703.922	0.03
704.245	0.03
704.567	0.03
704.89	0.03
705.212	0.03
705.535	0.02
705.857	0.02
706.179	0.02
706.502	0.03
706.824	0.02
707.146	0.02
707.468	0.02
707.79	0.02
708.112	0.03
708.434	0.02
708.756	0.02
709.078	0.03
709.399	0.02
709.721	0.03
710.043	0.03
710.364	0.03
710.686	0.03
711.007	0.02
711.329	0.03
711.65	0.03
711.972	0.03
712.293	0.03
712.614	0.03
712.935	0.03
713.256	0.03
713.577	0.04
713.898	0.03
714.219	0.03
714.54	0.03
714.861	0.03
715.182	0.03
715.503	0.02
715.823	0.03
716.144	0.02
716.464	0.03
716.785	0.03
717.105	0.03
717.426	0.04
717.746	0.02
718.066	0.02
718.387	0.03
718.707	0.02
719.027	0.03
719.347	0.01
719.667	0.02
719.987	0.02
720.307	0.01
720.627	0.02
720.947	0.02
721.266	0.02
721.586	0.01
721.906	0.01
722.225	0.01
722.545	0.01
722.864	0.01
723.184	0.02
723.503	0.02
723.823	0.02
724.142	0.01
724.461	0.02
724.78	0.02
725.099	0.02
725.418	0.02
725.737	0.02
726.056	0.02
726.375	0.02
726.694	0.02
727.013	0.02
727.331	0.02
727.65	0.02
727.969	0.02
728.287	0.02
728.606	0.02
728.924	0.01
729.242	0.02
729.561	0.02
729.879	0.02
730.197	0.02
730.515	0.02
730.834	0.01
731.152	0.02
731.47	0.02
731.788	0.02
732.105	0.02
732.423	0.01
732.741	0.01
733.059	0.01
733.376	0.02
733.694	0.01
734.012	0.01
734.329	0.02
734.647	0.02
734.964	0.03
735.281	0.02
735.599	0.02
735.916	0.03
736.233	0.02
736.55	0.02
736.867	0.02
737.184	0.03
737.501	0.02
737.818	0.03
738.135	0.03
738.452	0.03
738.768	0.02
739.085	0.02
739.402	0.02
739.718	0.03
740.035	0.02
740.351	0.03
740.668	0.04
740.984	0.03
741.3	0.03
741.617	0.03
741.933	0.03
742.249	0.03
742.565	0.03
742.881	0.03
743.197	0.04
743.513	0.02
743.829	0.02
744.144	0.03
744.46	0.02
744.776	0.03
745.091	0.03
745.407	0.02
745.722	0.02
746.038	0.02
746.353	0.03
746.669	0.03
746.984	0.02
747.299	0.02
747.614	0.03
747.93	0.03
748.245	0.02
748.56	0.02
748.875	0.02
749.189	0.02
749.504	0.02
749.819	0.03
750.134	0.02
750.448	0.02
750.763	0.03
751.078	0.02
751.392	0.02
751.707	0.03
752.021	0.03
752.335	0.03
752.65	0.04
752.964	0.03
753.278	0.03
753.592	0.03
753.906	0.02
754.22	0.03
754.534	0.03
754.848	0.03
755.162	0.03
755.476	0.03
755.789	0.04
756.103	0.03
756.417	0.03
756.73	0.03
757.044	0.03
757.357	0.03
757.671	0.03
757.984	0.03
758.297	0.04
758.61	0.04
758.924	0.03
759.237	0.03
759.55	0.03
759.863	0.03
760.176	0.04
760.488	0.03
760.801	0.03
761.114	0.03
761.427	0.02
761.739	0.03
762.052	0.03
762.365	0.03
762.677	0.03
762.99	0.02
763.302	0.03
763.614	0.03
763.926	0.03
764.239	0.03
764.551	0.02
764.863	0.03
765.175	0.03
765.487	0.02
765.799	0.02
766.111	0.02
766.423	0.03
766.734	0.02
767.046	0.02
767.358	0.02
767.669	0.02
767.981	0.03
768.292	0.02
768.604	0.03
768.915	0.03
769.226	0.02
769.537	0.02
769.849	0.03
770.16	0.02
770.471	0.02
770.782	0.01
771.093	0.02
771.404	0.01
771.715	0.02
772.025	0.02
772.336	0.01
772.647	0.01
772.957	0.02
773.268	0.02
773.578	0.02
773.889	0.02
774.199	0.03
774.51	0.01
774.82	0.02
775.13	0.02
775.44	0.02
775.75	0.03
776.06	0.02
776.37	0.02
776.68	0.03
776.99	0.02
777.3	0.02
777.61	0.03
777.92	0.02
778.229	0.02
778.539	0.02
778.848	0.02
779.158	0.03
779.467	0.03
779.777	0.02
780.086	0.03
780.395	0.02
780.704	0.02
781.013	0.02
781.323	0.02
781.632	0.02
781.941	0.03
782.249	0.03
782.558	0.02
782.867	0.02
783.176	0.02
783.485	0.01
783.793	0.02
784.102	0.01
784.41	0.01
784.719	0.01
785.027	0.02
785.335	0.02
785.644	0.02
785.952	0.02
786.26	0.02
786.568	0.01
786.876	0.01
787.184	0.02
787.492	0.01
787.8	0.01
788.108	0.02
788.416	0.01
788.723	0.02
789.031	0.02
789.338	0.02
789.646	0.02
789.953	0.02
790.261	0.03
790.568	0.03
790.876	0.02
791.183	0.01
791.49	0.01
791.797	0.02
792.104	0.01
792.411	0.03
792.718	0.02
793.025	0.03
793.332	0.03
793.639	0.03
793.945	0.03
794.252	0.03
794.559	0.03
794.865	0.04
795.172	0.03
795.478	0.04
795.784	0.03
796.091	0.03
796.397	0.03
796.703	0.03
797.009	0.03
797.315	0.03
797.622	0.03
797.927	0.03
798.233	0.03
798.539	0.03
798.845	0.03
799.151	0.04
799.456	0.03
799.762	0.03
800.068	0.02
800.373	0.03
800.679	0.02
800.984	0.02
801.289	0.02
801.595	0.02
801.9	0.02
802.205	0.02
802.51	0.02
802.815	0.03
803.12	0.03
803.425	0.02
803.73	0.01
804.035	0.02
804.339	0.01
804.644	0.02
804.949	0.02
805.253	0.02
805.558	0.03
805.862	0.03
806.167	0.02
806.471	0.02
806.775	0.03
807.08	0.03
807.384	0.03
807.688	0.02
807.992	0.02
808.296	0.02
808.6	0.03
808.904	0.03
809.207	0.03
809.511	0.04
809.815	0.04
810.119	0.03
810.422	0.04
810.726	0.04
811.029	0.04
811.332	0.03
811.636	0.04
811.939	0.04
812.242	0.03
812.546	0.04
812.849	0.04
813.152	0.04
813.455	0.04
813.758	0.04
814.06	0.04
814.363	0.03
814.666	0.04
814.969	0.04
815.271	0.03
815.574	0.04
815.877	0.03
816.179	0.03
816.481	0.03
816.784	0.03
817.086	0.03
817.388	0.02
817.69	0.02
817.993	0.02
818.295	0.02
818.597	0.02
818.899	0.02
819.2	0.02
819.502	0.02
819.804	0.03
820.106	0.02
820.407	0.02
820.709	0.03
821.01	0.02
821.312	0.03
821.613	0.02
821.915	0.02
822.216	0.02
822.517	0.02
822.818	0.02
823.119	0.02
823.42	0.02
823.721	0.01
824.022	0.02
824.323	0.02
824.624	0.01
824.925	0.02
825.226	0.02
825.526	0.02
825.827	0.02
826.127	0.02
826.428	0.02
826.728	0.02
827.028	0.02
827.329	0.02
827.629	0.01
827.929	0.01
828.229	0.01
828.529	0.02
828.829	0.01
829.129	0.02
829.429	0.02
829.729	0.02
830.029	0.01
830.328	0.02
830.628	0.02
830.927	0.01
831.227	0.01
831.526	0.01
831.826	0.01
832.125	0.02
832.424	0
832.724	0.01
833.023	0.01
833.322	0.02
833.621	0.01
833.92	0.01
834.219	0
834.518	0.01
834.816	-0
835.115	0.01
835.414	0
835.712	0
836.011	0
836.309	0
836.608	0
836.906	-0
837.205	-0.01
837.503	-0
837.801	-0
838.099	-0.01
838.397	-0.02
838.695	-0.02
838.993	-0.01
839.291	-0.03
839.589	-0.02
839.887	-0.02
840.184	-0.03
840.482	-0.04
840.78	-0.03
841.077	-0.04
841.375	-0.05
841.672	-0.04
841.969	-0.05
842.267	-0.05
842.564	-0.05
842.861	-0.05
843.158	-0.05
843.455	-0.06
843.752	-0.05
844.049	-0.05
844.346	-0.05
844.643	-0.06
844.94	-0.06
845.236	-0.04
845.533	-0.05
845.83	-0.06
846.126	-0.05
846.423	-0.05
846.719	-0.06
847.015	-0.05
847.312	-0.06
847.608	-0.06
847.904	-0.06
848.2	-0.07
848.496	-0.07
848.792	-0.06
849.088	-0.05
849.384	-0.07
849.68	-0.07
849.975	-0.07
850.271	-0.07
850.567	-0.07
850.862	-0.07
851.158	-0.08
851.453	-0.08
851.748	-0.08
852.044	-0.08
852.339	-0.08
852.634	-0.1
852.929	-0.09
853.224	-0.09
853.519	-0.09
853.814	-0.08
854.109	-0.1
854.404	-0.1
854.699	-0.1
854.994	-0.1
855.288	-0.1
855.583	-0.09
855.877	-0.1
856.172	-0.1
856.466	-0.1
856.76	-0.11
857.055	-0.1
857.349	-0.11
857.643	-0.12
857.937	-0.13
858.231	-0.12
858.525	-0.12
858.819	-0.11
859.113	-0.13
859.407	-0.13
859.701	-0.13
859.994	-0.13
860.288	-0.12
860.581	-0.12
860.875	-0.13
861.168	-0.13
861.462	-0.14
861.755	-0.12
862.048	-0.14
862.341	-0.13
862.634	-0.13
862.928	-0.14
863.221	-0.14
863.513	-0.15
863.806	-0.14
864.099	-0.14
864.392	-0.14
864.685	-0.13
864.977	-0.14
865.27	-0.14
865.562	-0.14
865.855	-0.13
866.147	-0.14
866.44	-0.13
866.732	-0.14
867.024	-0.15
867.316	-0.14
867.608	-0.14
867.9	-0.15
868.192	-0.15
868.484	-0.15
868.776	-0.15
869.068	-0.15
869.359	-0.15
869.651	-0.15
869.943	-0.16
870.234	-0.16
870.526	-0.16
870.817	-0.16
871.108	-0.15
871.4	-0.15
871.691	-0.15
871.982	-0.16
872.273	-0.18
872.564	-0.16
872.855	-0.16
873.146	-0.16
873.437	-0.17
873.728	-0.18
874.019	-0.17
874.309	-0.17
874.6	-0.17
874.89	-0.16
875.181	-0.18
875.471	-0.17
875.762	-0.17
876.052	-0.16
876.342	-0.15
876.632	-0.16
876.922	-0.18
877.213	-0.17
877.503	-0.19
877.792	-0.17
878.082	-0.18
878.372	-0.16
878.662	-0.19
878.952	-0.17
879.241	-0.18
879.531	-0.16
879.82	-0.17
880.11	-0.17
880.399	-0.19
880.688	-0.17
880.978	-0.17
881.267	-0.17
