Data from 12-12-AQDScycling_Absorbance__110__00110.txt Node

Date: Tue Dec 12 11:24:14 EST 2023
User: kyuminlee
Spectrometer: FLMS00943
Trigger mode: 0
Integration Time (sec): 1.000000E-1
Scans to average: 1
Electric dark correction enabled: true
Nonlinearity correction enabled: false
Boxcar width: 0
XAxis mode: Wavelengths
Number of Pixels in Spectrum: 2048
>>>>>Begin Spectral Data<<<<<
179.651	-0
180.037	-0
180.424	-0
180.81	-0.23
181.197	0.17
181.583	-0
181.97	-0.57
182.356	-0
182.743	-0
183.129	0.15
183.515	-0.19
183.901	-2.5
184.288	0.12
184.674	-0
185.06	-0.34
185.446	-0
185.832	-1.19
186.218	0.84
186.604	-0
186.99	-0
187.376	0.26
187.762	0.27
188.148	0.39
188.534	0.05
188.92	0.16
189.305	0.07
189.691	0.21
190.077	0.26
190.463	0.25
190.848	0.15
191.234	0.18
191.619	0.08
192.005	0.25
192.391	0.12
192.776	0.13
193.161	0.2
193.547	0.28
193.932	-0.04
194.318	0.03
194.703	0.21
195.088	0.14
195.473	0.16
195.859	0.14
196.244	0.12
196.629	0.21
197.014	0.14
197.399	0.12
197.784	0.18
198.169	0.36
198.554	0.19
198.939	0.12
199.324	0.08
199.709	0.01
200.094	0.18
200.478	0.14
200.863	0.2
201.248	0.17
201.633	0.07
202.017	0.15
202.402	0.42
202.787	0.09
203.171	0.15
203.556	0.26
203.94	0.27
204.325	0.22
204.709	0.19
205.093	0.02
205.478	0.18
205.862	0.22
206.246	0.31
206.631	0.19
207.015	0.2
207.399	0.28
207.783	0.14
208.167	0.15
208.551	0.27
208.935	0.2
209.319	0.09
209.703	0.14
210.087	0.49
210.471	0.22
210.855	0.2
211.239	0.23
211.623	0.23
212.007	0.28
212.39	0.19
212.774	0.24
213.158	0.13
213.541	0.25
213.925	0.42
214.309	0.38
214.692	0.27
215.076	0.27
215.459	0.25
215.842	0.22
216.226	0.33
216.609	0.3
216.993	0.25
217.376	0.31
217.759	0.27
218.142	0.24
218.525	0.71
218.909	0.45
219.292	0.28
219.675	0.57
220.058	0.45
220.441	0.51
220.824	0.45
221.207	0.53
221.59	0.51
221.973	0.45
222.355	0.63
222.738	0.64
223.121	0.71
223.504	0.58
223.886	0.73
224.269	0.66
224.652	0.63
225.034	0.71
225.417	0.73
225.799	0.77
226.182	0.87
226.564	0.88
226.947	0.88
227.329	0.79
227.711	0.97
228.094	0.85
228.476	1.04
228.858	0.7
229.24	0.79
229.623	1.15
230.005	0.88
230.387	1.09
230.769	0.81
231.151	0.96
231.533	0.9
231.915	0.9
232.297	0.97
232.679	0.93
233.061	0.98
233.442	1.03
233.824	1.13
234.206	1.09
234.588	1.22
234.969	1
235.351	0.94
235.733	1.07
236.114	1.13
236.496	1.06
236.877	1.2
237.259	1.13
237.64	1.05
238.022	0.96
238.403	1
238.784	1.07
239.165	1.12
239.547	1.09
239.928	1.13
240.309	1.08
240.69	0.94
241.071	1.07
241.452	1.19
241.834	1.09
242.215	1.08
242.595	1.12
242.976	1.23
243.357	1.22
243.738	1.06
244.119	1.25
244.5	1.06
244.881	1.11
245.261	1.25
245.642	1.09
246.023	1.14
246.403	1.2
246.784	1.25
247.164	1.3
247.545	1.25
247.925	1.23
248.306	1.18
248.686	1.41
249.067	1.12
249.447	1.27
249.827	1.42
250.207	1.36
250.588	1.32
250.968	1.45
251.348	1.34
251.728	1.38
252.108	1.23
252.488	1.49
252.868	1.43
253.248	1.27
253.628	1.43
254.008	1.49
254.388	1.34
254.768	1.42
255.147	1.33
255.527	1.51
255.907	1.36
256.287	1.37
256.666	1.39
257.046	1.4
257.425	1.5
257.805	1.35
258.184	1.29
258.564	1.46
258.943	1.33
259.323	1.44
259.702	1.45
260.081	1.38
260.461	1.41
260.84	1.47
261.219	1.78
261.598	1.44
261.977	1.43
262.356	1.49
262.736	1.39
263.115	1.46
263.494	1.41
263.873	1.6
264.251	1.55
264.63	1.49
265.009	1.39
265.388	1.31
265.767	1.36
266.145	1.48
266.524	1.43
266.903	1.35
267.281	1.4
267.66	1.54
268.039	1.43
268.417	1.36
268.796	1.38
269.174	1.52
269.552	1.35
269.931	1.49
270.309	1.33
270.687	1.69
271.066	1.6
271.444	1.35
271.822	1.52
272.2	1.4
272.578	1.39
272.956	1.45
273.334	1.46
273.712	1.46
274.09	1.37
274.468	1.31
274.846	1.3
275.224	1.32
275.602	1.52
275.98	1.72
276.357	1.37
276.735	1.46
277.113	1.4
277.49	1.29
277.868	1.23
278.246	1.36
278.623	1.47
279.001	1.33
279.378	1.35
279.756	1.56
280.133	1.54
280.51	1.29
280.888	1.46
281.265	1.48
281.642	1.54
282.019	1.62
282.396	1.69
282.773	1.44
283.151	1.41
283.528	1.46
283.905	1.44
284.282	1.45
284.659	1.52
285.035	1.36
285.412	1.27
285.789	1.48
286.166	1.42
286.543	1.47
286.919	1.76
287.296	1.61
287.673	1.58
288.049	1.49
288.426	1.68
288.802	1.6
289.179	1.46
289.555	1.69
289.932	1.56
290.308	1.29
290.684	1.36
291.061	1.39
291.437	1.6
291.813	1.42
292.189	1.22
292.565	1.27
292.942	1.24
293.318	1.3
293.694	1.5
294.07	1.35
294.446	1.35
294.822	1.43
295.197	1.38
295.573	1.37
295.949	1.42
296.325	1.47
296.701	1.42
297.076	1.42
297.452	1.45
297.828	1.41
298.203	1.47
298.579	1.33
298.954	1.34
299.33	1.3
299.705	1.29
300.081	1.29
300.456	1.3
300.831	1.25
301.206	1.25
301.582	1.28
301.957	1.17
302.332	1.23
302.707	1.19
303.082	1.13
303.457	1.18
303.832	1.13
304.207	1.08
304.582	1.08
304.957	1.12
305.332	1.07
305.707	1.02
306.082	1.04
306.456	1.04
306.831	0.95
307.206	0.97
307.58	0.92
307.955	0.93
308.33	0.9
308.704	0.88
309.079	0.84
309.453	0.85
309.828	0.86
310.202	0.8
310.576	0.81
310.951	0.81
311.325	0.79
311.699	0.77
312.073	0.73
312.447	0.73
312.821	0.71
313.196	0.71
313.57	0.7
313.944	0.69
314.317	0.67
314.691	0.72
315.065	0.67
315.439	0.66
315.813	0.67
316.187	0.65
316.56	0.67
316.934	0.62
317.308	0.63
317.681	0.65
318.055	0.63
318.428	0.6
318.802	0.61
319.175	0.61
319.549	0.57
319.922	0.61
320.295	0.58
320.669	0.6
321.042	0.58
321.415	0.59
321.788	0.57
322.162	0.54
322.535	0.56
322.908	0.56
323.281	0.56
323.654	0.56
324.027	0.56
324.4	0.57
324.773	0.56
325.145	0.57
325.518	0.54
325.891	0.57
326.264	0.58
326.636	0.56
327.009	0.56
327.382	0.57
327.754	0.59
328.127	0.59
328.499	0.56
328.872	0.6
329.244	0.6
329.616	0.58
329.989	0.58
330.361	0.6
330.733	0.58
331.106	0.59
331.478	0.62
331.85	0.63
332.222	0.6
332.594	0.63
332.966	0.63
333.338	0.67
333.71	0.67
334.082	0.69
334.454	0.67
334.826	0.72
335.197	0.68
335.569	0.69
335.941	0.72
336.312	0.73
336.684	0.72
337.056	0.74
337.427	0.79
337.799	0.78
338.17	0.77
338.542	0.76
338.913	0.79
339.284	0.79
339.656	0.8
340.027	0.8
340.398	0.83
340.769	0.81
341.141	0.86
341.512	0.82
341.883	0.87
342.254	0.88
342.625	0.87
342.996	0.92
343.367	0.91
343.738	0.91
344.108	0.93
344.479	1.01
344.85	0.98
345.221	0.98
345.591	0.95
345.962	1.02
346.333	1.03
346.703	0.92
347.074	1.04
347.444	0.98
347.815	1.04
348.185	1
348.556	1.05
348.926	1.09
349.296	1.17
349.666	1.08
350.037	1.06
350.407	1.09
350.777	1.17
351.147	1.21
351.517	1.17
351.887	1.19
352.257	1.3
352.627	1.16
352.997	1.17
353.367	1.24
353.737	1.23
354.106	1.29
354.476	1.29
354.846	1.36
355.216	1.45
355.585	1.41
355.955	1.44
356.324	1.33
356.694	1.42
357.063	1.43
357.433	1.37
357.802	1.43
358.171	1.47
358.541	1.41
358.91	1.57
359.279	1.53
359.648	1.39
360.017	1.49
360.387	1.49
360.756	1.39
361.125	1.75
361.494	1.96
361.863	1.49
362.231	1.7
362.6	1.5
362.969	1.6
363.338	1.69
363.707	1.71
364.075	1.66
364.444	1.44
364.813	1.49
365.181	1.48
365.55	1.5
365.918	1.58
366.287	1.6
366.655	1.62
367.024	1.62
367.392	1.56
367.76	1.54
368.128	1.61
368.497	1.59
368.865	1.45
369.233	1.47
369.601	1.5
369.969	1.53
370.337	1.46
370.705	1.45
371.073	1.56
371.441	1.68
371.809	1.45
372.177	1.5
372.544	1.65
372.912	1.54
373.28	1.54
373.647	1.55
374.015	1.73
374.383	1.86
374.75	1.91
375.118	1.59
375.485	1.59
375.853	1.72
376.22	1.52
376.587	1.53
376.955	1.71
377.322	1.81
377.689	1.52
378.056	1.48
378.423	1.52
378.79	1.58
379.157	1.55
379.524	1.64
379.891	1.52
380.258	1.62
380.625	1.62
380.992	1.5
381.359	1.64
381.726	1.81
382.092	1.53
382.459	1.62
382.826	1.63
383.192	1.57
383.559	1.62
383.925	1.54
384.292	1.54
384.658	1.58
385.025	1.48
385.391	1.72
385.757	1.62
386.123	1.64
386.49	1.55
386.856	1.55
387.222	1.5
387.588	1.5
387.954	1.77
388.32	1.66
388.686	1.67
389.052	1.5
389.418	1.61
389.784	1.44
390.15	1.59
390.515	1.38
390.881	1.8
391.247	1.47
391.613	1.7
391.978	1.42
392.344	1.69
392.709	1.65
393.075	1.68
393.44	1.53
393.806	1.64
394.171	1.53
394.536	1.54
394.902	1.61
395.267	1.57
395.632	1.48
395.997	1.59
396.362	1.41
396.727	1.69
397.092	1.57
397.457	1.62
397.822	1.6
398.187	1.7
398.552	1.45
398.917	1.57
399.282	1.52
399.646	1.55
400.011	1.61
400.376	1.5
400.74	1.53
401.105	1.64
401.47	1.63
401.834	1.47
402.199	1.48
402.563	1.66
402.927	1.45
403.292	1.76
403.656	1.64
404.02	1.6
404.384	1.86
404.749	1.62
405.113	1.65
405.477	1.7
405.841	1.52
406.205	1.48
406.569	1.45
406.933	1.54
407.296	1.63
407.66	1.63
408.024	1.53
408.388	1.65
408.752	1.57
409.115	1.61
409.479	1.62
409.842	1.59
410.206	1.45
410.569	1.53
410.933	1.49
411.296	1.63
411.66	1.54
412.023	1.44
412.386	1.49
412.749	1.34
413.113	1.65
413.476	1.43
413.839	1.66
414.202	1.59
414.565	1.39
414.928	1.48
415.291	1.39
415.654	1.5
416.017	1.61
416.38	1.45
416.742	1.45
417.105	1.54
417.468	1.43
417.83	1.48
418.193	1.56
418.556	1.5
418.918	1.44
419.281	1.72
419.643	1.55
420.005	1.51
420.368	1.53
420.73	1.48
421.092	1.49
421.455	1.63
421.817	1.45
422.179	1.44
422.541	1.49
422.903	1.74
423.265	1.67
423.627	1.56
423.989	1.53
424.351	1.45
424.713	1.54
425.075	1.59
425.436	1.47
425.798	1.56
426.16	1.84
426.521	1.49
426.883	1.6
427.245	1.49
427.606	1.5
427.967	1.44
428.329	1.52
428.69	1.51
429.052	1.44
429.413	1.56
429.774	1.72
430.135	1.56
430.497	1.57
430.858	1.5
431.219	1.73
431.58	1.44
431.941	1.54
432.302	1.52
432.663	1.48
433.024	1.64
433.384	1.6
433.745	1.45
434.106	1.62
434.467	1.53
434.827	1.5
435.188	1.63
435.548	1.61
435.909	1.44
436.269	1.61
436.63	1.54
436.99	1.52
437.351	1.45
437.711	1.57
438.071	1.44
438.431	1.47
438.792	1.57
439.152	1.49
439.512	1.43
439.872	1.48
440.232	1.64
440.592	1.53
440.952	1.56
441.312	1.44
441.671	1.51
442.031	1.56
442.391	1.49
442.751	1.54
443.11	1.5
443.47	1.43
443.83	1.44
444.189	1.41
444.549	1.46
444.908	1.35
445.267	1.48
445.627	1.47
445.986	1.43
446.345	1.32
446.705	1.44
447.064	1.43
447.423	1.37
447.782	1.38
448.141	1.39
448.5	1.33
448.859	1.34
449.218	1.35
449.577	1.38
449.936	1.36
450.295	1.37
450.653	1.37
451.012	1.35
451.371	1.35
451.729	1.37
452.088	1.34
452.447	1.34
452.805	1.34
453.163	1.34
453.522	1.32
453.88	1.25
454.239	1.29
454.597	1.27
454.955	1.23
455.313	1.25
455.671	1.22
456.029	1.23
456.388	1.2
456.746	1.18
457.104	1.19
457.461	1.17
457.819	1.16
458.177	1.13
458.535	1.12
458.893	1.14
459.25	1.13
459.608	1.11
459.966	1.06
460.323	1.07
460.681	1.04
461.038	1.02
461.396	1.01
461.753	1.01
462.111	0.99
462.468	0.96
462.825	0.96
463.182	0.95
463.54	0.91
463.897	0.93
464.254	0.91
464.611	0.89
464.968	0.9
465.325	0.88
465.682	0.85
466.039	0.84
466.395	0.84
466.752	0.81
467.109	0.8
467.466	0.8
467.822	0.79
468.179	0.77
468.535	0.76
468.892	0.74
469.248	0.73
469.605	0.72
469.961	0.71
470.318	0.71
470.674	0.69
471.03	0.68
471.386	0.67
471.743	0.64
472.099	0.64
472.455	0.63
472.811	0.62
473.167	0.62
473.523	0.59
473.879	0.58
474.235	0.59
474.59	0.56
474.946	0.54
475.302	0.55
475.657	0.53
476.013	0.53
476.369	0.51
476.724	0.51
477.08	0.5
477.435	0.49
477.791	0.48
478.146	0.48
478.501	0.46
478.857	0.46
479.212	0.45
479.567	0.44
479.922	0.43
480.277	0.43
480.632	0.4
480.987	0.4
481.342	0.39
481.697	0.38
482.052	0.37
482.407	0.37
482.762	0.35
483.116	0.36
483.471	0.34
483.826	0.33
484.18	0.33
484.535	0.32
484.89	0.31
485.244	0.31
485.598	0.3
485.953	0.3
486.307	0.29
486.661	0.28
487.016	0.28
487.37	0.27
487.724	0.26
488.078	0.26
488.432	0.26
488.786	0.25
489.14	0.24
489.494	0.24
489.848	0.23
490.202	0.23
490.556	0.22
490.91	0.22
491.263	0.22
491.617	0.21
491.971	0.21
492.324	0.2
492.678	0.19
493.031	0.19
493.385	0.19
493.738	0.19
494.091	0.18
494.445	0.18
494.798	0.17
495.151	0.16
495.504	0.17
495.857	0.16
496.21	0.16
496.564	0.16
496.916	0.16
497.269	0.15
497.622	0.15
497.975	0.15
498.328	0.15
498.681	0.14
499.033	0.14
499.386	0.13
499.739	0.13
500.091	0.12
500.444	0.12
500.796	0.12
501.149	0.12
501.501	0.12
501.854	0.12
502.206	0.12
502.558	0.12
502.91	0.11
503.263	0.11
503.615	0.11
503.967	0.1
504.319	0.11
504.671	0.1
505.023	0.1
505.375	0.09
505.726	0.09
506.078	0.09
506.43	0.08
506.782	0.08
507.133	0.09
507.485	0.09
507.837	0.09
508.188	0.08
508.54	0.08
508.891	0.09
509.243	0.08
509.594	0.08
509.945	0.07
510.296	0.07
510.648	0.08
510.999	0.07
511.35	0.07
511.701	0.07
512.052	0.07
512.403	0.07
512.754	0.06
513.105	0.06
513.456	0.05
513.807	0.06
514.157	0.06
514.508	0.06
514.859	0.05
515.209	0.05
515.56	0.05
515.91	0.05
516.261	0.06
516.611	0.05
516.962	0.05
517.312	0.05
517.662	0.05
518.013	0.05
518.363	0.05
518.713	0.05
519.063	0.05
519.413	0.05
519.763	0.04
520.113	0.05
520.463	0.05
520.813	0.06
521.163	0.05
521.512	0.04
521.862	0.05
522.212	0.05
522.562	0.05
522.911	0.05
523.261	0.04
523.61	0.04
523.96	0.04
524.309	0.05
524.658	0.05
525.008	0.04
525.357	0.04
525.706	0.05
526.056	0.04
526.405	0.04
526.754	0.04
527.103	0.04
527.452	0.04
527.801	0.04
528.15	0.04
528.499	0.04
528.847	0.04
529.196	0.05
529.545	0.05
529.893	0.05
530.242	0.05
530.591	0.05
530.939	0.05
531.288	0.04
531.636	0.05
531.985	0.04
532.333	0.04
532.681	0.04
533.029	0.04
533.378	0.03
533.726	0.04
534.074	0.04
534.422	0.02
534.77	0.04
535.118	0.03
535.466	0.03
535.814	0.04
536.162	0.03
536.509	0.04
536.857	0.03
537.205	0.04
537.552	0.03
537.9	0.03
538.248	0.03
538.595	0.04
538.943	0.03
539.29	0.03
539.637	0.03
539.985	0.02
540.332	0.02
540.679	0.02
541.026	0.02
541.373	0.02
541.721	0.02
542.068	0.02
542.415	0.03
542.762	0.02
543.108	0.02
543.455	0.01
543.802	0.02
544.149	0.02
544.496	0.02
544.842	0.02
545.189	0.01
545.535	0.02
545.882	0.02
546.228	0.02
546.575	0.02
546.921	0.01
547.267	0.02
547.614	0.02
547.96	0.02
548.306	0.02
548.652	0.02
548.998	0.02
549.344	0.01
549.69	0.02
550.036	0.02
550.382	0.02
550.728	0.02
551.074	0.03
551.42	0.02
551.765	0.02
552.111	0.03
552.457	0.03
552.802	0.02
553.148	0.03
553.493	0.02
553.839	0.02
554.184	0.03
554.529	0.02
554.875	0.03
555.22	0.02
555.565	0.02
555.91	0.02
556.255	0.03
556.6	0.03
556.945	0.01
557.29	0.02
557.635	0.03
557.98	0.02
558.325	0.02
558.67	0.02
559.014	0.02
559.359	0.02
559.704	0.02
560.048	0.01
560.393	0.02
560.737	0.01
561.082	0.01
561.426	0.01
561.77	0.01
562.115	0.01
562.459	0.01
562.803	0.01
563.147	0.01
563.491	0.01
563.835	0.02
564.179	0.02
564.523	0.01
564.867	0.01
565.211	0.02
565.555	0.02
565.899	0.02
566.242	0.02
566.586	0.02
566.93	0.01
567.273	0.02
567.617	0.02
567.96	0.02
568.304	0.02
568.647	0.01
568.99	0.02
569.334	0.03
569.677	0.02
570.02	0.02
570.363	0.02
570.706	0.01
571.049	0.02
571.392	0.03
571.735	0.02
572.078	0.02
572.421	0.03
572.764	0.02
573.106	0.02
573.449	0.02
573.792	0.02
574.134	0.02
574.477	0.02
574.819	0.02
575.162	0.02
575.504	0.02
575.847	0.02
576.189	0.02
576.531	0.02
576.873	0.02
577.215	0.02
577.558	0.01
577.9	0.01
578.242	0.02
578.584	0.01
578.926	0.01
579.267	0.01
579.609	0.01
579.951	0.01
580.293	0.01
580.634	0.01
580.976	0.01
581.318	0.01
581.659	0.01
582.001	0.01
582.342	0.01
582.683	0.01
583.025	0.01
583.366	0.01
583.707	0.01
584.049	0.02
584.39	0.01
584.731	0.01
585.072	0.01
585.413	0.02
585.754	0.02
586.095	0.02
586.435	0.02
586.776	0.02
587.117	0.01
587.458	0.01
587.798	0.01
588.139	0.01
588.48	0.01
588.82	0
589.161	0.01
589.501	0
589.841	0.01
590.182	0
590.522	0
590.862	0.01
591.202	0.01
591.542	0
591.882	0.01
592.222	0.01
592.562	0.01
592.902	0.01
593.242	0
593.582	0.02
593.922	0.01
594.261	0
594.601	0.01
594.941	0.01
595.28	0.01
595.62	0.01
595.959	0.01
596.299	0.01
596.638	0.01
596.977	0.01
597.317	0.01
597.656	0.01
597.995	0.01
598.334	0.02
598.673	0.01
599.012	0
599.351	0.01
599.69	0.01
600.029	0.01
600.368	0.02
600.707	0.01
601.046	0.01
601.384	0.01
601.723	0.01
602.061	-0
602.4	0.01
602.738	0.01
603.077	0.01
603.415	0
603.754	0.01
604.092	0.01
604.43	0
604.768	0.01
605.107	0.01
605.445	0.01
605.783	0.01
606.121	0.01
606.459	0.01
606.796	0.01
607.134	0.01
607.472	0.01
607.81	0.02
608.148	0.01
608.485	0.02
608.823	0.02
609.16	0.01
609.498	0.01
609.835	0.01
610.173	0.01
610.51	0.02
610.847	0.01
611.185	0.02
611.522	0.02
611.859	0.02
612.196	0.02
612.533	0.03
612.87	0.03
613.207	0.02
613.544	0.02
613.881	0.03
614.217	0.03
614.554	0.03
614.891	0.03
615.228	0.03
615.564	0.03
615.901	0.03
616.237	0.03
616.574	0.03
616.91	0.03
617.246	0.03
617.583	0.03
617.919	0.03
618.255	0.03
618.591	0.02
618.927	0.02
619.263	0.03
619.599	0.03
619.935	0.03
620.271	0.02
620.607	0.02
620.943	0.02
621.279	0.03
621.614	0.03
621.95	0.02
622.286	0.03
622.621	0.02
622.957	0.02
623.292	0.02
623.627	0.01
623.963	0.01
624.298	0.02
624.633	0.01
624.968	0.02
625.304	0.02
625.639	0.02
625.974	0.01
626.309	0.01
626.644	0.01
626.979	0.02
627.313	0.02
627.648	0.01
627.983	0.02
628.318	0.01
628.652	0.02
628.987	0.02
629.321	0.02
629.656	0.01
629.99	0.02
630.325	0.01
630.659	0.02
630.993	0.02
631.327	0.02
631.662	0.01
631.996	0.01
632.33	0.02
632.664	0.02
632.998	0.01
633.332	0.01
633.666	0.02
633.999	0.01
634.333	0.01
634.667	0.01
635.001	0
635.334	0.01
635.668	0.01
636.001	0.01
636.335	0.01
636.668	0.01
637.001	-0
637.335	0
637.668	0.01
638.001	0.01
638.334	0.01
638.668	0.01
639.001	0.01
639.334	0.01
639.667	0
639.999	0.01
640.332	0.01
640.665	0.01
640.998	0.01
641.331	0.02
641.663	0.01
641.996	0.01
642.328	0.01
642.661	0.02
642.993	0.02
643.326	0.02
643.658	0.02
643.99	0.01
644.323	0.02
644.655	0.02
644.987	0.02
645.319	0.02
645.651	0.02
645.983	0.02
646.315	0.01
646.647	0.02
646.979	0.03
647.31	0.03
647.642	0.02
647.974	0.02
648.305	0.03
648.637	0.02
648.968	0.02
649.3	0.03
649.631	0.03
649.963	0.02
650.294	0.03
650.625	0.02
650.957	0.03
651.288	0.03
651.619	0.03
651.95	0.02
652.281	0.02
652.612	0.03
652.943	0.03
653.274	0.03
653.604	0.02
653.935	0.02
654.266	0.03
654.596	0.02
654.927	0.02
655.258	0.02
655.588	0.03
655.918	0.02
656.249	0.01
656.579	0.02
656.909	0.02
657.24	0.02
657.57	0.03
657.9	0.02
658.23	0.02
658.56	0.03
658.89	0.03
659.22	0.02
659.55	0.03
659.88	0.03
660.209	0.03
660.539	0.04
660.869	0.03
661.198	0.04
661.528	0.03
661.857	0.02
662.187	0.03
662.516	0.03
662.846	0.02
663.175	0.03
663.504	0.02
663.833	0.02
664.163	0.03
664.492	0.02
664.821	0.02
665.15	0.03
665.479	0.03
665.807	0.02
666.136	0.03
666.465	0.02
666.794	0.03
667.122	0.02
667.451	0.02
667.78	0.02
668.108	0.03
668.437	0.02
668.765	0.02
669.093	0.03
669.422	0.02
669.75	0.02
670.078	0.03
670.406	0.02
670.734	0.03
671.062	0.02
671.39	0.02
671.718	0.03
672.046	0.02
672.374	0.02
672.702	0.02
673.029	0.02
673.357	0.03
673.685	0.04
674.012	0.02
674.34	0.03
674.667	0.03
674.995	0.02
675.322	0.03
675.649	0.02
675.977	0.02
676.304	0.02
676.631	0.03
676.958	0.03
677.285	0.02
677.612	0.02
677.939	0.02
678.266	0.03
678.593	0.02
678.92	0.02
679.246	0.01
679.573	0.01
679.9	0.02
680.226	0.01
680.553	0.01
680.879	0.02
681.206	0.02
681.532	0.02
681.858	0.02
682.184	0.02
682.511	0.02
682.837	0.02
683.163	0.03
683.489	0.02
683.815	0.02
684.141	0.02
684.467	0.02
684.793	0.02
685.118	0.02
685.444	0.02
685.77	0.02
686.095	0.02
686.421	0.02
686.746	0.03
687.072	0.02
687.397	0.02
687.723	0.02
688.048	0.03
688.373	0.02
688.698	0.02
689.023	0.02
689.349	0.02
689.674	0.03
689.999	0.02
690.323	0.02
690.648	0.01
690.973	0.01
691.298	0.02
691.623	0.01
691.947	0.01
692.272	0.01
692.596	0.01
692.921	0.02
693.245	0.01
693.57	0.02
693.894	0.02
694.218	0.02
694.543	0.02
694.867	0.01
695.191	0.01
695.515	0.02
695.839	0.01
696.163	0.01
696.487	0.02
696.811	0.01
697.135	0.02
697.458	0.01
697.782	0.02
698.106	0.02
698.429	0.02
698.753	0.01
699.076	0.02
699.4	0.01
699.723	0.03
700.046	0.02
700.37	0.02
700.693	0.02
701.016	0.02
701.339	0.02
701.662	0.03
701.985	0.02
702.308	0.02
702.631	0.02
702.954	0.03
703.277	0.03
703.599	0.02
703.922	0.02
704.245	0.02
704.567	0.02
704.89	0.02
705.212	0.03
705.535	0.02
705.857	0.02
706.179	0.01
706.502	0
706.824	0.01
707.146	0.01
707.468	0.02
707.79	0.01
708.112	0.02
708.434	0.01
708.756	0.01
709.078	0.02
709.399	0.01
709.721	0.01
710.043	0.02
710.364	0.02
710.686	0.02
711.007	0.01
711.329	0.02
711.65	0.02
711.972	0.02
712.293	0.02
712.614	0.02
712.935	0.02
713.256	0.02
713.577	0.03
713.898	0.02
714.219	0.02
714.54	0.02
714.861	0.01
715.182	0.03
715.503	0.01
715.823	0.01
716.144	0.01
716.464	0.01
716.785	0.01
717.105	0.01
717.426	0.02
717.746	0.01
718.066	0.01
718.387	0.02
718.707	0.01
719.027	0.02
719.347	0.01
719.667	0.01
719.987	0
720.307	0.01
720.627	0.01
720.947	0.01
721.266	0
721.586	0
721.906	0.01
722.225	0
722.545	0
722.864	0
723.184	0.01
723.503	0.01
723.823	0.01
724.142	0
724.461	0.01
724.78	0.01
725.099	0.01
725.418	0.01
725.737	0.01
726.056	0.01
726.375	0.01
726.694	0.02
727.013	0.01
727.331	0.01
727.65	0.01
727.969	0.01
728.287	0.02
728.606	0.01
728.924	0.01
729.242	0.01
729.561	0.01
729.879	0.01
730.197	0.01
730.515	0.02
730.834	0
731.152	0.01
731.47	0.01
731.788	0
732.105	0
732.423	0.01
732.741	0
733.059	0.01
733.376	0.01
733.694	-0
734.012	0.01
734.329	0.01
734.647	0.01
734.964	0.02
735.281	0.01
735.599	0.01
735.916	0.02
736.233	0.01
736.55	0.01
736.867	0.02
737.184	0.02
737.501	0.02
737.818	0.02
738.135	0.02
738.452	0.02
738.768	0.02
739.085	0.01
739.402	0.01
739.718	0.02
740.035	0.02
740.351	0.03
740.668	0.02
740.984	0.01
741.3	0.02
741.617	0.02
741.933	0.02
742.249	0.03
742.565	0.02
742.881	0.03
743.197	0.02
743.513	0.01
743.829	0.01
744.144	0.02
744.46	0.03
744.776	0.03
745.091	0.02
745.407	0.02
745.722	0.02
746.038	0.02
746.353	0.01
746.669	0.04
746.984	0.01
747.299	0.02
747.614	0.02
747.93	0.02
748.245	0.02
748.56	0.02
748.875	0.01
749.189	0.02
749.504	0.02
749.819	0.02
750.134	0.02
750.448	0.02
750.763	0.02
751.078	0.01
751.392	0.01
751.707	0.02
752.021	0.03
752.335	0.03
752.65	0.02
752.964	0.02
753.278	0.02
753.592	0.03
753.906	0.02
754.22	0.03
754.534	0.02
754.848	0.03
755.162	0.03
755.476	0.03
755.789	0.02
756.103	0.02
756.417	0.03
756.73	0.03
757.044	0.03
757.357	0.03
757.671	0.03
757.984	0.03
758.297	0.03
758.61	0.03
758.924	0.03
759.237	0.03
759.55	0.03
759.863	0.02
760.176	0.03
760.488	0.03
760.801	0.03
761.114	0.02
761.427	0.02
761.739	0.02
762.052	0.02
762.365	0.03
762.677	0.03
762.99	0.02
763.302	0.02
763.614	0.02
763.926	0.03
764.239	0.02
764.551	0.02
764.863	0.03
765.175	0.03
765.487	0.02
765.799	0.02
766.111	0.01
766.423	0.02
766.734	0.02
767.046	0.01
767.358	0.01
767.669	0.03
767.981	0.02
768.292	0.01
768.604	0.02
768.915	0.02
769.226	0.01
769.537	0.01
769.849	0.02
770.16	0.01
770.471	0.01
770.782	0.01
771.093	0.02
771.404	0.01
771.715	0.01
772.025	0.02
772.336	0.02
772.647	0
772.957	0.02
773.268	0.01
773.578	0.02
773.889	0.02
774.199	0.02
774.51	0.02
774.82	0.01
775.13	0.02
775.44	0.02
775.75	0.03
776.06	0.02
776.37	0.01
776.68	0.02
776.99	0.02
777.3	0.01
777.61	0.02
777.92	0.02
778.229	0.01
778.539	0.02
778.848	0.02
779.158	0.02
779.467	0.02
779.777	0.01
780.086	0.02
780.395	0.01
780.704	0.01
781.013	0.01
781.323	0.01
781.632	0.02
781.941	0.03
782.249	0.02
782.558	0.02
782.867	0.02
783.176	0.01
783.485	0.01
783.793	0.02
784.102	0.01
784.41	0.02
784.719	0.01
785.027	0.01
785.335	0.02
785.644	0.02
785.952	0.02
786.26	0.02
786.568	0
786.876	0.01
787.184	0.02
787.492	0.01
787.8	0.02
788.108	0.02
788.416	0.01
788.723	0.01
789.031	0.02
789.338	0.02
789.646	0.02
789.953	0.02
790.261	0.02
790.568	0.02
790.876	0.02
791.183	0.02
791.49	0.01
791.797	0.01
792.104	0.02
792.411	0.02
792.718	0.02
793.025	0.03
793.332	0.02
793.639	0.03
793.945	0.03
794.252	0.03
794.559	0.03
794.865	0.03
795.172	0.03
795.478	0.03
795.784	0.03
796.091	0.03
796.397	0.04
796.703	0.03
797.009	0.03
797.315	0.03
797.622	0.03
797.927	0.03
798.233	0.03
798.539	0.03
798.845	0.02
799.151	0.02
799.456	0.03
799.762	0.02
800.068	0.02
800.373	0.03
800.679	0.03
800.984	0.02
801.289	0.02
801.595	0.02
801.9	0.01
802.205	0.01
802.51	0.02
802.815	0.02
803.12	0.02
803.425	0.02
803.73	0.02
804.035	0.02
804.339	0.01
804.644	0.02
804.949	0.02
805.253	0.02
805.558	0.02
805.862	0.01
806.167	0.02
806.471	0.02
806.775	0.02
807.08	0.02
807.384	0.02
807.688	0.02
807.992	0.03
808.296	0.03
808.6	0.03
808.904	0.03
809.207	0.02
809.511	0.03
809.815	0.04
810.119	0.03
810.422	0.04
810.726	0.04
811.029	0.04
811.332	0.03
811.636	0.05
811.939	0.04
812.242	0.04
812.546	0.04
812.849	0.04
813.152	0.04
813.455	0.03
813.758	0.04
814.06	0.03
814.363	0.03
814.666	0.04
814.969	0.04
815.271	0.03
815.574	0.03
815.877	0.03
816.179	0.03
816.481	0.02
816.784	0.03
817.086	0.02
817.388	0.02
817.69	0.02
817.993	0.02
818.295	0.01
818.597	0.02
818.899	0.01
819.2	0.01
819.502	0.02
819.804	0.02
820.106	0.02
820.407	0.02
820.709	0.02
821.01	0.02
821.312	0.02
821.613	0.02
821.915	0.02
822.216	0.03
822.517	0.01
822.818	0.02
823.119	0.02
823.42	0.02
823.721	0.02
824.022	0.01
824.323	0.01
824.624	0.02
824.925	0.03
825.226	0.02
825.526	0.02
825.827	0.02
826.127	0.02
826.428	0.02
826.728	0.02
827.028	0.01
827.329	0.01
827.629	0
827.929	0.02
828.229	0.02
828.529	0.02
828.829	0.02
829.129	0.02
829.429	0.01
829.729	0.02
830.029	0.01
830.328	0.02
830.628	0
830.927	-0
831.227	0.01
831.526	0
831.826	0.01
832.125	0.01
832.424	0.01
832.724	0.01
833.023	0.01
833.322	0.01
833.621	0.01
833.92	-0
834.219	0.01
834.518	0.01
834.816	-0
835.115	0
835.414	0.01
835.712	0.01
836.011	0
836.309	0
836.608	0
836.906	-0.01
837.205	-0
837.503	-0.01
837.801	-0.01
838.099	-0.01
838.397	-0.02
838.695	-0.02
838.993	-0.01
839.291	-0.02
839.589	-0.02
839.887	-0.03
840.184	-0.04
840.482	-0.04
840.78	-0.03
841.077	-0.04
841.375	-0.04
841.672	-0.04
841.969	-0.04
842.267	-0.04
842.564	-0.04
842.861	-0.04
843.158	-0.05
843.455	-0.06
843.752	-0.06
844.049	-0.05
844.346	-0.05
844.643	-0.06
844.94	-0.05
845.236	-0.03
845.533	-0.05
845.83	-0.05
846.126	-0.06
846.423	-0.06
846.719	-0.07
847.015	-0.06
847.312	-0.07
847.608	-0.07
847.904	-0.07
848.2	-0.07
848.496	-0.06
848.792	-0.06
849.088	-0.05
849.384	-0.07
849.68	-0.07
849.975	-0.07
850.271	-0.07
850.567	-0.07
850.862	-0.08
851.158	-0.07
851.453	-0.08
851.748	-0.09
852.044	-0.08
852.339	-0.08
852.634	-0.1
852.929	-0.08
853.224	-0.09
853.519	-0.09
853.814	-0.09
854.109	-0.1
854.404	-0.09
854.699	-0.09
854.994	-0.1
855.288	-0.09
855.583	-0.09
855.877	-0.1
856.172	-0.1
856.466	-0.11
856.76	-0.1
857.055	-0.11
857.349	-0.12
857.643	-0.11
857.937	-0.13
858.231	-0.12
858.525	-0.12
858.819	-0.12
859.113	-0.13
859.407	-0.13
859.701	-0.13
859.994	-0.13
860.288	-0.12
860.581	-0.13
860.875	-0.13
861.168	-0.13
861.462	-0.13
861.755	-0.13
862.048	-0.14
862.341	-0.14
862.634	-0.14
862.928	-0.14
863.221	-0.14
863.513	-0.15
863.806	-0.14
864.099	-0.14
864.392	-0.13
864.685	-0.13
864.977	-0.13
865.27	-0.15
865.562	-0.14
865.855	-0.13
866.147	-0.13
866.44	-0.13
866.732	-0.14
867.024	-0.14
867.316	-0.15
867.608	-0.15
867.9	-0.15
868.192	-0.14
868.484	-0.15
868.776	-0.15
869.068	-0.15
869.359	-0.15
869.651	-0.14
869.943	-0.16
870.234	-0.16
870.526	-0.16
870.817	-0.15
871.108	-0.14
871.4	-0.15
871.691	-0.16
871.982	-0.16
872.273	-0.18
872.564	-0.16
872.855	-0.17
873.146	-0.16
873.437	-0.16
873.728	-0.18
874.019	-0.16
874.309	-0.18
874.6	-0.18
874.89	-0.17
875.181	-0.18
875.471	-0.17
875.762	-0.17
876.052	-0.16
876.342	-0.16
876.632	-0.18
876.922	-0.18
877.213	-0.18
877.503	-0.19
877.792	-0.18
878.082	-0.18
878.372	-0.16
878.662	-0.18
878.952	-0.18
879.241	-0.16
879.531	-0.17
879.82	-0.17
880.11	-0.18
880.399	-0.17
880.688	-0.16
880.978	-0.16
881.267	-0.16
