Data from 12-12-AQDScycling_Absorbance__502__00502.txt Node

Date: Tue Dec 12 13:02:14 EST 2023
User: kyuminlee
Spectrometer: FLMS00943
Trigger mode: 0
Integration Time (sec): 1.000000E-1
Scans to average: 1
Electric dark correction enabled: true
Nonlinearity correction enabled: false
Boxcar width: 0
XAxis mode: Wavelengths
Number of Pixels in Spectrum: 2048
>>>>>Begin Spectral Data<<<<<
179.651	-0
180.037	-0
180.424	-0
180.81	-0
181.197	0.02
181.583	-0
181.97	-0.59
182.356	-0
182.743	-0.03
183.129	-0
183.515	0.12
183.901	-2.48
184.288	0.52
184.674	-0
185.06	-0.64
185.446	-0
185.832	-1.07
186.218	-0
186.604	0.19
186.99	-0
187.376	-0
187.762	0.54
188.148	0.36
188.534	-0.19
188.92	0.04
189.305	0.08
189.691	0.09
190.077	0.16
190.463	0.12
190.848	0.06
191.234	0.1
191.619	0.14
192.005	-0.02
192.391	0.14
192.776	0.09
193.161	0.08
193.547	0.15
193.932	0.04
194.318	0.05
194.703	0.25
195.088	0.04
195.473	0.19
195.859	0.21
196.244	0.06
196.629	0.11
197.014	0.19
197.399	0.27
197.784	0.18
198.169	0.17
198.554	0.23
198.939	-0.01
199.324	0.03
199.709	0.07
200.094	0.06
200.478	0.06
200.863	0.17
201.248	0.08
201.633	0.07
202.017	0.14
202.402	0.21
202.787	0.22
203.171	0.19
203.556	0.09
203.94	0.18
204.325	0.21
204.709	0.14
205.093	0.08
205.478	0.06
205.862	0.28
206.246	0.17
206.631	0.12
207.015	0.07
207.399	0.22
207.783	0.17
208.167	0.22
208.551	0.21
208.935	0.15
209.319	0.08
209.703	0.2
210.087	0.29
210.471	0.07
210.855	0.13
211.239	0.25
211.623	0.25
212.007	0.27
212.39	0.23
212.774	0.17
213.158	0.05
213.541	0.24
213.925	0.21
214.309	0.2
214.692	0.28
215.076	0.29
215.459	0.17
215.842	0.15
216.226	0.25
216.609	0.25
216.993	0.15
217.376	0.6
217.759	0.19
218.142	0.4
218.525	0.42
218.909	0.29
219.292	0.33
219.675	0.93
220.058	0.36
220.441	0.42
220.824	0.33
221.207	0.49
221.59	0.4
221.973	0.51
222.355	0.57
222.738	0.76
223.121	0.56
223.504	0.69
223.886	0.63
224.269	0.65
224.652	0.74
225.034	0.77
225.417	0.78
225.799	0.84
226.182	0.82
226.564	0.88
226.947	0.86
227.329	0.85
227.711	0.82
228.094	0.91
228.476	0.78
228.858	0.7
229.24	0.81
229.623	0.97
230.005	0.72
230.387	0.88
230.769	0.75
231.151	0.9
231.533	0.97
231.915	1.02
232.297	0.95
232.679	0.84
233.061	1.03
233.442	0.97
233.824	1
234.206	1.1
234.588	0.99
234.969	1.1
235.351	0.94
235.733	1.06
236.114	1.13
236.496	1.17
236.877	1.46
237.259	1.13
237.64	1.03
238.022	1
238.403	0.93
238.784	0.99
239.165	0.95
239.547	1.09
239.928	1.06
240.309	1.01
240.69	1.09
241.071	1.16
241.452	1.04
241.834	1.04
242.215	1.09
242.595	1
242.976	0.97
243.357	1.2
243.738	0.93
244.119	1.11
244.5	1.16
244.881	1.08
245.261	1.19
245.642	1.19
246.023	1.21
246.403	1.15
246.784	1.2
247.164	1.28
247.545	1.21
247.925	1.25
248.306	1.24
248.686	1.46
249.067	1.18
249.447	1.38
249.827	1.63
250.207	1.43
250.588	1.31
250.968	1.37
251.348	1.4
251.728	1.44
252.108	1.41
252.488	1.33
252.868	1.27
253.248	1.34
253.628	1.34
254.008	1.36
254.388	1.37
254.768	1.34
255.147	1.36
255.527	1.55
255.907	1.27
256.287	1.35
256.666	1.58
257.046	1.46
257.425	1.45
257.805	1.38
258.184	1.27
258.564	1.39
258.943	1.34
259.323	1.37
259.702	1.49
260.081	1.5
260.461	1.51
260.84	1.51
261.219	1.62
261.598	1.53
261.977	1.61
262.356	1.34
262.736	1.47
263.115	1.58
263.494	1.46
263.873	1.43
264.251	1.36
264.63	1.43
265.009	1.43
265.388	1.31
265.767	1.32
266.145	1.36
266.524	1.56
266.903	1.42
267.281	1.43
267.66	1.41
268.039	1.46
268.417	1.36
268.796	1.44
269.174	1.41
269.552	1.28
269.931	1.36
270.309	1.33
270.687	1.57
271.066	1.65
271.444	1.4
271.822	1.51
272.2	1.5
272.578	1.32
272.956	1.49
273.334	1.42
273.712	1.46
274.09	1.28
274.468	1.29
274.846	1.31
275.224	1.36
275.602	1.46
275.98	1.4
276.357	1.46
276.735	1.51
277.113	1.51
277.49	1.32
277.868	1.31
278.246	1.44
278.623	1.3
279.001	1.33
279.378	1.56
279.756	1.54
280.133	1.67
280.51	1.41
280.888	1.36
281.265	1.37
281.642	1.53
282.019	1.49
282.396	1.49
282.773	1.37
283.151	1.49
283.528	1.57
283.905	1.37
284.282	1.44
284.659	1.58
285.035	1.33
285.412	1.34
285.789	1.52
286.166	1.5
286.543	1.53
286.919	1.49
287.296	1.39
287.673	1.74
288.049	1.48
288.426	1.56
288.802	1.47
289.179	1.53
289.555	1.82
289.932	1.39
290.308	1.28
290.684	1.46
291.061	1.42
291.437	1.44
291.813	1.51
292.189	1.31
292.565	1.38
292.942	1.35
293.318	1.35
293.694	1.36
294.07	1.31
294.446	1.36
294.822	1.53
295.197	1.52
295.573	1.45
295.949	1.43
296.325	1.48
296.701	1.59
297.076	1.71
297.452	1.53
297.828	1.41
298.203	1.54
298.579	1.47
298.954	1.52
299.33	1.52
299.705	1.42
300.081	1.41
300.456	1.54
300.831	1.47
301.206	1.45
301.582	1.56
301.957	1.52
302.332	1.57
302.707	1.53
303.082	1.46
303.457	1.49
303.832	1.55
304.207	1.36
304.582	1.45
304.957	1.51
305.332	1.59
305.707	1.42
306.082	1.48
306.456	1.69
306.831	1.41
307.206	1.45
307.58	1.65
307.955	1.43
308.33	1.38
308.704	1.53
309.079	1.42
309.453	1.73
309.828	1.42
310.202	1.42
310.576	1.45
310.951	1.46
311.325	1.46
311.699	1.5
312.073	1.43
312.447	1.42
312.821	1.42
313.196	1.54
313.57	1.34
313.944	1.35
314.317	1.49
314.691	1.47
315.065	1.46
315.439	1.58
315.813	1.47
316.187	1.47
316.56	1.74
316.934	1.54
317.308	1.51
317.681	1.53
318.055	1.52
318.428	1.45
318.802	1.54
319.175	1.48
319.549	1.55
319.922	1.37
320.295	1.43
320.669	1.53
321.042	1.54
321.415	1.88
321.788	1.45
322.162	1.45
322.535	1.48
322.908	1.57
323.281	1.44
323.654	1.67
324.027	1.53
324.4	1.62
324.773	1.42
325.145	1.57
325.518	1.47
325.891	1.45
326.264	1.48
326.636	1.44
327.009	1.51
327.382	1.57
327.754	1.49
328.127	1.46
328.499	1.43
328.872	1.48
329.244	1.57
329.616	1.55
329.989	1.46
330.361	1.52
330.733	1.49
331.106	1.48
331.478	1.4
331.85	1.46
332.222	1.39
332.594	1.59
332.966	1.56
333.338	1.64
333.71	1.5
334.082	1.65
334.454	1.55
334.826	1.53
335.197	1.61
335.569	1.44
335.941	1.33
336.312	1.53
336.684	1.46
337.056	1.47
337.427	1.6
337.799	1.58
338.17	1.5
338.542	1.47
338.913	1.45
339.284	1.65
339.656	1.51
340.027	1.53
340.398	1.7
340.769	1.49
341.141	1.63
341.512	1.5
341.883	1.67
342.254	1.47
342.625	1.54
342.996	1.57
343.367	1.47
343.738	1.48
344.108	1.44
344.479	1.64
344.85	1.37
345.221	1.58
345.591	1.38
345.962	1.56
346.333	1.51
346.703	1.28
347.074	1.26
347.444	1.31
347.815	1.41
348.185	1.39
348.556	1.34
348.926	1.33
349.296	1.41
349.666	1.41
350.037	1.24
350.407	1.27
350.777	1.33
351.147	1.43
351.517	1.35
351.887	1.46
352.257	1.37
352.627	1.29
352.997	1.33
353.367	1.26
353.737	1.34
354.106	1.4
354.476	1.37
354.846	1.39
355.216	1.36
355.585	1.37
355.955	1.35
356.324	1.26
356.694	1.4
357.063	1.29
357.433	1.3
357.802	1.3
358.171	1.36
358.541	1.2
358.91	1.34
359.279	1.29
359.648	1.25
360.017	1.29
360.387	1.26
360.756	1.19
361.125	1.2
361.494	1.24
361.863	1.3
362.231	1.21
362.6	1.23
362.969	1.21
363.338	1.2
363.707	1.21
364.075	1.23
364.444	1.1
364.813	1.2
365.181	1.17
365.55	1.13
365.918	1.19
366.287	1.13
366.655	1.2
367.024	1.2
367.392	1.2
367.76	1.2
368.128	1.13
368.497	1.14
368.865	1.11
369.233	1.12
369.601	1.11
369.969	1.16
370.337	1.17
370.705	1.14
371.073	1.1
371.441	1.09
371.809	1.11
372.177	1.14
372.544	1.13
372.912	1.1
373.28	1.11
373.647	1.18
374.015	1.2
374.383	1.15
374.75	1.18
375.118	1.17
375.485	1.11
375.853	1.16
376.22	1.08
376.587	1.13
376.955	1.16
377.322	1.11
377.689	1.14
378.056	1.11
378.423	1.03
378.79	1.16
379.157	1.13
379.524	1.15
379.891	1.18
380.258	1.17
380.625	1.13
380.992	1.17
381.359	1.26
381.726	1.23
382.092	1.18
382.459	1.22
382.826	1.16
383.192	1.19
383.559	1.19
383.925	1.22
384.292	1.18
384.658	1.26
385.025	1.24
385.391	1.34
385.757	1.17
386.123	1.23
386.49	1.28
386.856	1.28
387.222	1.28
387.588	1.24
387.954	1.37
388.32	1.3
388.686	1.31
389.052	1.25
389.418	1.33
389.784	1.25
390.15	1.27
390.515	1.19
390.881	1.36
391.247	1.27
391.613	1.35
391.978	1.32
392.344	1.32
392.709	1.26
393.075	1.3
393.44	1.35
393.806	1.4
394.171	1.27
394.536	1.25
394.902	1.29
395.267	1.21
395.632	1.18
395.997	1.23
396.362	1.33
396.727	1.23
397.092	1.23
397.457	1.31
397.822	1.24
398.187	1.24
398.552	1.22
398.917	1.26
399.282	1.22
399.646	1.21
400.011	1.26
400.376	1.14
400.74	1.2
401.105	1.21
401.47	1.25
401.834	1.17
402.199	1.12
402.563	1.17
402.927	1.14
403.292	1.21
403.656	1.16
404.02	1.12
404.384	1.21
404.749	1.13
405.113	1.12
405.477	1.12
405.841	1.15
406.205	1.1
406.569	1.06
406.933	1.05
407.296	1.05
407.66	1.08
408.024	1.07
408.388	1.07
408.752	1.03
409.115	1.03
409.479	1.03
409.842	1
410.206	1
410.569	1.03
410.933	1.03
411.296	0.97
411.66	1.06
412.023	0.96
412.386	0.98
412.749	0.94
413.113	1.01
413.476	0.9
413.839	0.92
414.202	0.9
414.565	0.92
414.928	0.94
415.291	0.92
415.654	0.95
416.017	0.98
416.38	0.93
416.742	0.89
417.105	0.92
417.468	0.89
417.83	0.93
418.193	0.93
418.556	0.88
418.918	0.88
419.281	0.9
419.643	0.91
420.005	0.89
420.368	0.94
420.73	0.88
421.092	0.92
421.455	0.92
421.817	0.85
422.179	0.84
422.541	0.89
422.903	0.88
423.265	0.88
423.627	0.85
423.989	0.87
424.351	0.84
424.713	0.88
425.075	0.84
425.436	0.83
425.798	0.83
426.16	0.85
426.521	0.88
426.883	0.85
427.245	0.83
427.606	0.85
427.967	0.81
428.329	0.84
428.69	0.84
429.052	0.81
429.413	0.84
429.774	0.86
430.135	0.82
430.497	0.83
430.858	0.81
431.219	0.81
431.58	0.78
431.941	0.8
432.302	0.8
432.663	0.8
433.024	0.84
433.384	0.82
433.745	0.79
434.106	0.8
434.467	0.77
434.827	0.77
435.188	0.8
435.548	0.81
435.909	0.79
436.269	0.8
436.63	0.78
436.99	0.76
437.351	0.77
437.711	0.77
438.071	0.74
438.431	0.76
438.792	0.74
439.152	0.75
439.512	0.76
439.872	0.75
440.232	0.75
440.592	0.76
440.952	0.72
441.312	0.72
441.671	0.73
442.031	0.7
442.391	0.71
442.751	0.71
443.11	0.7
443.47	0.69
443.83	0.69
444.189	0.68
444.549	0.69
444.908	0.68
445.267	0.7
445.627	0.68
445.986	0.68
446.345	0.66
446.705	0.66
447.064	0.67
447.423	0.66
447.782	0.66
448.141	0.67
448.5	0.63
448.859	0.64
449.218	0.65
449.577	0.64
449.936	0.64
450.295	0.63
450.653	0.61
451.012	0.64
451.371	0.62
451.729	0.62
452.088	0.63
452.447	0.62
452.805	0.62
453.163	0.62
453.522	0.62
453.88	0.59
454.239	0.59
454.597	0.59
454.955	0.57
455.313	0.57
455.671	0.59
456.029	0.57
456.388	0.56
456.746	0.57
457.104	0.55
457.461	0.54
457.819	0.55
458.177	0.53
458.535	0.52
458.893	0.52
459.25	0.52
459.608	0.53
459.966	0.5
460.323	0.5
460.681	0.48
461.038	0.5
461.396	0.49
461.753	0.48
462.111	0.48
462.468	0.47
462.825	0.46
463.182	0.46
463.54	0.45
463.897	0.45
464.254	0.45
464.611	0.45
464.968	0.44
465.325	0.44
465.682	0.43
466.039	0.42
466.395	0.42
466.752	0.41
467.109	0.41
467.466	0.41
467.822	0.41
468.179	0.4
468.535	0.39
468.892	0.39
469.248	0.39
469.605	0.37
469.961	0.38
470.318	0.38
470.674	0.37
471.03	0.37
471.386	0.37
471.743	0.36
472.099	0.35
472.455	0.35
472.811	0.35
473.167	0.35
473.523	0.33
473.879	0.34
474.235	0.32
474.59	0.32
474.946	0.31
475.302	0.32
475.657	0.31
476.013	0.31
476.369	0.3
476.724	0.3
477.08	0.3
477.435	0.3
477.791	0.29
478.146	0.29
478.501	0.29
478.857	0.28
479.212	0.28
479.567	0.27
479.922	0.27
480.277	0.26
480.632	0.27
480.987	0.26
481.342	0.26
481.697	0.26
482.052	0.25
482.407	0.25
482.762	0.24
483.116	0.24
483.471	0.23
483.826	0.23
484.18	0.24
484.535	0.23
484.89	0.23
485.244	0.23
485.598	0.23
485.953	0.22
486.307	0.22
486.661	0.23
487.016	0.22
487.37	0.22
487.724	0.21
488.078	0.22
488.432	0.21
488.786	0.21
489.14	0.21
489.494	0.21
489.848	0.2
490.202	0.19
490.556	0.2
490.91	0.2
491.263	0.19
491.617	0.2
491.971	0.19
492.324	0.19
492.678	0.19
493.031	0.19
493.385	0.19
493.738	0.19
494.091	0.18
494.445	0.18
494.798	0.18
495.151	0.18
495.504	0.18
495.857	0.17
496.21	0.18
496.564	0.17
496.916	0.18
497.269	0.17
497.622	0.17
497.975	0.17
498.328	0.17
498.681	0.17
499.033	0.17
499.386	0.17
499.739	0.16
500.091	0.16
500.444	0.17
500.796	0.16
501.149	0.16
501.501	0.16
501.854	0.16
502.206	0.16
502.558	0.16
502.91	0.16
503.263	0.16
503.615	0.16
503.967	0.16
504.319	0.15
504.671	0.15
505.023	0.15
505.375	0.15
505.726	0.16
506.078	0.15
506.43	0.15
506.782	0.15
507.133	0.15
507.485	0.15
507.837	0.16
508.188	0.15
508.54	0.16
508.891	0.16
509.243	0.15
509.594	0.15
509.945	0.15
510.296	0.15
510.648	0.15
510.999	0.14
511.35	0.15
511.701	0.16
512.052	0.15
512.403	0.15
512.754	0.14
513.105	0.15
513.456	0.14
513.807	0.14
514.157	0.15
514.508	0.14
514.859	0.14
515.209	0.15
515.56	0.15
515.91	0.15
516.261	0.15
516.611	0.15
516.962	0.15
517.312	0.15
517.662	0.15
518.013	0.15
518.363	0.15
518.713	0.15
519.063	0.15
519.413	0.15
519.763	0.14
520.113	0.15
520.463	0.16
520.813	0.15
521.163	0.15
521.512	0.14
521.862	0.15
522.212	0.15
522.562	0.15
522.911	0.15
523.261	0.14
523.61	0.15
523.96	0.15
524.309	0.15
524.658	0.15
525.008	0.15
525.357	0.15
525.706	0.15
526.056	0.15
526.405	0.15
526.754	0.15
527.103	0.14
527.452	0.15
527.801	0.15
528.15	0.15
528.499	0.15
528.847	0.15
529.196	0.15
529.545	0.16
529.893	0.16
530.242	0.16
530.591	0.16
530.939	0.16
531.288	0.16
531.636	0.16
531.985	0.16
532.333	0.15
532.681	0.16
533.029	0.15
533.378	0.15
533.726	0.16
534.074	0.16
534.422	0.15
534.77	0.16
535.118	0.16
535.466	0.16
535.814	0.15
536.162	0.16
536.509	0.16
536.857	0.16
537.205	0.16
537.552	0.17
537.9	0.16
538.248	0.16
538.595	0.16
538.943	0.16
539.29	0.16
539.637	0.16
539.985	0.16
540.332	0.16
540.679	0.16
541.026	0.16
541.373	0.16
541.721	0.15
542.068	0.15
542.415	0.16
542.762	0.15
543.108	0.15
543.455	0.14
543.802	0.15
544.149	0.15
544.496	0.15
544.842	0.14
545.189	0.14
545.535	0.14
545.882	0.15
546.228	0.14
546.575	0.14
546.921	0.14
547.267	0.14
547.614	0.15
547.96	0.15
548.306	0.15
548.652	0.15
548.998	0.15
549.344	0.15
549.69	0.15
550.036	0.15
550.382	0.15
550.728	0.14
551.074	0.16
551.42	0.15
551.765	0.16
552.111	0.15
552.457	0.16
552.802	0.15
553.148	0.15
553.493	0.15
553.839	0.15
554.184	0.16
554.529	0.15
554.875	0.15
555.22	0.16
555.565	0.16
555.91	0.14
556.255	0.16
556.6	0.16
556.945	0.16
557.29	0.15
557.635	0.15
557.98	0.15
558.325	0.15
558.67	0.15
559.014	0.16
559.359	0.16
559.704	0.15
560.048	0.15
560.393	0.16
560.737	0.14
561.082	0.16
561.426	0.15
561.77	0.16
562.115	0.15
562.459	0.16
562.803	0.16
563.147	0.16
563.491	0.15
563.835	0.16
564.179	0.16
564.523	0.16
564.867	0.15
565.211	0.15
565.555	0.16
565.899	0.16
566.242	0.15
566.586	0.15
566.93	0.16
567.273	0.16
567.617	0.16
567.96	0.16
568.304	0.16
568.647	0.16
568.99	0.16
569.334	0.18
569.677	0.15
570.02	0.16
570.363	0.16
570.706	0.15
571.049	0.16
571.392	0.16
571.735	0.16
572.078	0.16
572.421	0.17
572.764	0.17
573.106	0.16
573.449	0.16
573.792	0.16
574.134	0.16
574.477	0.16
574.819	0.16
575.162	0.16
575.504	0.16
575.847	0.16
576.189	0.16
576.531	0.16
576.873	0.16
577.215	0.16
577.558	0.17
577.9	0.15
578.242	0.16
578.584	0.16
578.926	0.16
579.267	0.16
579.609	0.16
579.951	0.16
580.293	0.16
580.634	0.17
580.976	0.16
581.318	0.16
581.659	0.16
582.001	0.16
582.342	0.15
582.683	0.16
583.025	0.15
583.366	0.15
583.707	0.16
584.049	0.15
584.39	0.15
584.731	0.15
585.072	0.15
585.413	0.15
585.754	0.16
586.095	0.15
586.435	0.16
586.776	0.15
587.117	0.16
587.458	0.15
587.798	0.15
588.139	0.16
588.48	0.15
588.82	0.15
589.161	0.16
589.501	0.16
589.841	0.16
590.182	0.15
590.522	0.15
590.862	0.16
591.202	0.16
591.542	0.15
591.882	0.15
592.222	0.15
592.562	0.15
592.902	0.15
593.242	0.15
593.582	0.16
593.922	0.16
594.261	0.15
594.601	0.16
594.941	0.16
595.28	0.16
595.62	0.16
595.959	0.15
596.299	0.15
596.638	0.15
596.977	0.16
597.317	0.16
597.656	0.15
597.995	0.16
598.334	0.17
598.673	0.15
599.012	0.16
599.351	0.17
599.69	0.15
600.029	0.16
600.368	0.16
600.707	0.16
601.046	0.16
601.384	0.16
601.723	0.16
602.061	0.16
602.4	0.16
602.738	0.16
603.077	0.15
603.415	0.15
603.754	0.16
604.092	0.16
604.43	0.15
604.768	0.15
605.107	0.16
605.445	0.15
605.783	0.15
606.121	0.15
606.459	0.15
606.796	0.16
607.134	0.15
607.472	0.15
607.81	0.16
608.148	0.15
608.485	0.16
608.823	0.16
609.16	0.15
609.498	0.15
609.835	0.15
610.173	0.15
610.51	0.16
610.847	0.16
611.185	0.16
611.522	0.16
611.859	0.16
612.196	0.15
612.533	0.17
612.87	0.16
613.207	0.16
613.544	0.16
613.881	0.17
614.217	0.16
614.554	0.16
614.891	0.16
615.228	0.16
615.564	0.16
615.901	0.16
616.237	0.16
616.574	0.16
616.91	0.17
617.246	0.16
617.583	0.16
617.919	0.16
618.255	0.17
618.591	0.16
618.927	0.16
619.263	0.16
619.599	0.17
619.935	0.16
620.271	0.17
620.607	0.16
620.943	0.16
621.279	0.16
621.614	0.16
621.95	0.17
622.286	0.16
622.621	0.16
622.957	0.15
623.292	0.15
623.627	0.15
623.963	0.15
624.298	0.16
624.633	0.15
624.968	0.15
625.304	0.15
625.639	0.15
625.974	0.15
626.309	0.14
626.644	0.15
626.979	0.15
627.313	0.15
627.648	0.14
627.983	0.15
628.318	0.15
628.652	0.14
628.987	0.15
629.321	0.15
629.656	0.14
629.99	0.14
630.325	0.15
630.659	0.15
630.993	0.14
631.327	0.14
631.662	0.14
631.996	0.14
632.33	0.14
632.664	0.15
632.998	0.14
633.332	0.14
633.666	0.14
633.999	0.14
634.333	0.14
634.667	0.14
635.001	0.13
635.334	0.14
635.668	0.13
636.001	0.13
636.335	0.14
636.668	0.14
637.001	0.13
637.335	0.14
637.668	0.14
638.001	0.13
638.334	0.14
638.668	0.14
639.001	0.13
639.334	0.14
639.667	0.13
639.999	0.14
640.332	0.14
640.665	0.13
640.998	0.14
641.331	0.14
641.663	0.13
641.996	0.13
642.328	0.13
642.661	0.13
642.993	0.13
643.326	0.14
643.658	0.12
643.99	0.13
644.323	0.13
644.655	0.13
644.987	0.13
645.319	0.14
645.651	0.14
645.983	0.13
646.315	0.13
646.647	0.13
646.979	0.14
647.31	0.13
647.642	0.13
647.974	0.13
648.305	0.14
648.637	0.14
648.968	0.13
649.3	0.14
649.631	0.13
649.963	0.13
650.294	0.13
650.625	0.13
650.957	0.14
651.288	0.14
651.619	0.15
651.95	0.13
652.281	0.14
652.612	0.13
652.943	0.14
653.274	0.14
653.604	0.14
653.935	0.13
654.266	0.14
654.596	0.13
654.927	0.13
655.258	0.13
655.588	0.13
655.918	0.13
656.249	0.11
656.579	0.13
656.909	0.13
657.24	0.13
657.57	0.13
657.9	0.13
658.23	0.13
658.56	0.14
658.89	0.13
659.22	0.13
659.55	0.13
659.88	0.14
660.209	0.13
660.539	0.14
660.869	0.14
661.198	0.13
661.528	0.13
661.857	0.13
662.187	0.13
662.516	0.13
662.846	0.12
663.175	0.13
663.504	0.13
663.833	0.12
664.163	0.13
664.492	0.13
664.821	0.14
665.15	0.13
665.479	0.13
665.807	0.12
666.136	0.13
666.465	0.13
666.794	0.13
667.122	0.13
667.451	0.13
667.78	0.13
668.108	0.13
668.437	0.12
668.765	0.13
669.093	0.13
669.422	0.13
669.75	0.13
670.078	0.12
670.406	0.12
670.734	0.13
671.062	0.12
671.39	0.12
671.718	0.13
672.046	0.13
672.374	0.12
672.702	0.12
673.029	0.12
673.357	0.12
673.685	0.13
674.012	0.12
674.34	0.12
674.667	0.13
674.995	0.12
675.322	0.13
675.649	0.12
675.977	0.12
676.304	0.12
676.631	0.12
676.958	0.11
677.285	0.12
677.612	0.12
677.939	0.12
678.266	0.12
678.593	0.12
678.92	0.12
679.246	0.11
679.573	0.12
679.9	0.11
680.226	0.12
680.553	0.11
680.879	0.12
681.206	0.12
681.532	0.11
681.858	0.11
682.184	0.12
682.511	0.12
682.837	0.11
683.163	0.12
683.489	0.12
683.815	0.11
684.141	0.12
684.467	0.11
684.793	0.1
685.118	0.11
685.444	0.11
685.77	0.11
686.095	0.11
686.421	0.11
686.746	0.12
687.072	0.12
687.397	0.11
687.723	0.12
688.048	0.12
688.373	0.11
688.698	0.11
689.023	0.11
689.349	0.11
689.674	0.11
689.999	0.12
690.323	0.11
690.648	0.11
690.973	0.11
691.298	0.1
691.623	0.11
691.947	0.11
692.272	0.11
692.596	0.11
692.921	0.12
693.245	0.12
693.57	0.11
693.894	0.11
694.218	0.12
694.543	0.11
694.867	0.11
695.191	0.1
695.515	0.12
695.839	0.1
696.163	0.11
696.487	0.11
696.811	0.11
697.135	0.11
697.458	0.11
697.782	0.11
698.106	0.11
698.429	0.11
698.753	0.11
699.076	0.11
699.4	0.1
699.723	0.11
700.046	0.1
700.37	0.1
700.693	0.1
701.016	0.1
701.339	0.1
701.662	0.11
701.985	0.11
702.308	0.11
702.631	0.1
702.954	0.1
703.277	0.11
703.599	0.1
703.922	0.1
704.245	0.1
704.567	0.1
704.89	0.1
705.212	0.1
705.535	0.1
705.857	0.09
706.179	0.09
706.502	0.1
706.824	0.1
707.146	0.1
707.468	0.1
707.79	0.1
708.112	0.1
708.434	0.1
708.756	0.1
709.078	0.1
709.399	0.09
709.721	0.09
710.043	0.1
710.364	0.1
710.686	0.1
711.007	0.1
711.329	0.1
711.65	0.1
711.972	0.09
712.293	0.1
712.614	0.1
712.935	0.1
713.256	0.1
713.577	0.1
713.898	0.1
714.219	0.09
714.54	0.09
714.861	0.09
715.182	0.09
715.503	0.09
715.823	0.09
716.144	0.08
716.464	0.08
716.785	0.09
717.105	0.08
717.426	0.1
717.746	0.09
718.066	0.08
718.387	0.09
718.707	0.08
719.027	0.09
719.347	0.08
719.667	0.09
719.987	0.08
720.307	0.08
720.627	0.08
720.947	0.08
721.266	0.08
721.586	0.07
721.906	0.08
722.225	0.07
722.545	0.08
722.864	0.08
723.184	0.08
723.503	0.08
723.823	0.09
724.142	0.08
724.461	0.08
724.78	0.08
725.099	0.08
725.418	0.08
725.737	0.07
726.056	0.08
726.375	0.08
726.694	0.08
727.013	0.08
727.331	0.07
727.65	0.07
727.969	0.08
728.287	0.08
728.606	0.08
728.924	0.08
729.242	0.08
729.561	0.08
729.879	0.08
730.197	0.08
730.515	0.08
730.834	0.08
731.152	0.08
731.47	0.08
731.788	0.08
732.105	0.07
732.423	0.08
732.741	0.08
733.059	0.07
733.376	0.08
733.694	0.08
734.012	0.08
734.329	0.08
734.647	0.08
734.964	0.08
735.281	0.09
735.599	0.08
735.916	0.08
736.233	0.07
736.55	0.08
736.867	0.08
737.184	0.09
737.501	0.07
737.818	0.08
738.135	0.09
738.452	0.08
738.768	0.08
739.085	0.08
739.402	0.07
739.718	0.08
740.035	0.07
740.351	0.08
740.668	0.08
740.984	0.07
741.3	0.07
741.617	0.07
741.933	0.07
742.249	0.08
742.565	0.08
742.881	0.08
743.197	0.08
743.513	0.08
743.829	0.07
744.144	0.07
744.46	0.07
744.776	0.08
745.091	0.07
745.407	0.07
745.722	0.07
746.038	0.06
746.353	0.06
746.669	0.07
746.984	0.06
747.299	0.07
747.614	0.07
747.93	0.07
748.245	0.06
748.56	0.06
748.875	0.06
749.189	0.07
749.504	0.07
749.819	0.07
750.134	0.06
750.448	0.07
750.763	0.07
751.078	0.06
751.392	0.07
751.707	0.08
752.021	0.08
752.335	0.08
752.65	0.09
752.964	0.07
753.278	0.08
753.592	0.07
753.906	0.08
754.22	0.07
754.534	0.07
754.848	0.07
755.162	0.07
755.476	0.07
755.789	0.07
756.103	0.07
756.417	0.08
756.73	0.07
757.044	0.08
757.357	0.07
757.671	0.07
757.984	0.08
758.297	0.08
758.61	0.08
758.924	0.07
759.237	0.07
759.55	0.08
759.863	0.07
760.176	0.08
760.488	0.07
760.801	0.07
761.114	0.06
761.427	0.07
761.739	0.07
762.052	0.06
762.365	0.06
762.677	0.06
762.99	0.06
763.302	0.07
763.614	0.07
763.926	0.07
764.239	0.06
764.551	0.06
764.863	0.06
765.175	0.07
765.487	0.06
765.799	0.05
766.111	0.06
766.423	0.06
766.734	0.07
767.046	0.07
767.358	0.06
767.669	0.07
767.981	0.06
768.292	0.07
768.604	0.06
768.915	0.06
769.226	0.05
769.537	0.04
769.849	0.07
770.16	0.06
770.471	0.06
770.782	0.06
771.093	0.06
771.404	0.05
771.715	0.06
772.025	0.06
772.336	0.06
772.647	0.05
772.957	0.05
773.268	0.06
773.578	0.06
773.889	0.07
774.199	0.07
774.51	0.06
774.82	0.06
775.13	0.06
775.44	0.06
775.75	0.06
776.06	0.06
776.37	0.05
776.68	0.06
776.99	0.06
777.3	0.06
777.61	0.07
777.92	0.06
778.229	0.07
778.539	0.06
778.848	0.06
779.158	0.06
779.467	0.06
779.777	0.06
780.086	0.05
780.395	0.05
780.704	0.06
781.013	0.05
781.323	0.06
781.632	0.06
781.941	0.06
782.249	0.05
782.558	0.05
782.867	0.06
783.176	0.04
783.485	0.05
783.793	0.06
784.102	0.06
784.41	0.05
784.719	0.05
785.027	0.05
785.335	0.05
785.644	0.05
785.952	0.05
786.26	0.05
786.568	0.04
786.876	0.05
787.184	0.06
787.492	0.05
787.8	0.04
788.108	0.06
788.416	0.05
788.723	0.05
789.031	0.05
789.338	0.05
789.646	0.04
789.953	0.05
790.261	0.04
790.568	0.06
790.876	0.05
791.183	0.06
791.49	0.04
791.797	0.05
792.104	0.05
792.411	0.05
792.718	0.05
793.025	0.06
793.332	0.06
793.639	0.06
793.945	0.07
794.252	0.06
794.559	0.05
794.865	0.06
795.172	0.06
795.478	0.06
795.784	0.05
796.091	0.06
796.397	0.06
796.703	0.06
797.009	0.07
797.315	0.06
797.622	0.06
797.927	0.06
798.233	0.06
798.539	0.07
798.845	0.07
799.151	0.07
799.456	0.06
799.762	0.06
800.068	0.06
800.373	0.07
800.679	0.06
800.984	0.06
801.289	0.06
801.595	0.06
801.9	0.07
802.205	0.06
802.51	0.06
802.815	0.06
803.12	0.06
803.425	0.06
803.73	0.06
804.035	0.06
804.339	0.05
804.644	0.06
804.949	0.06
805.253	0.06
805.558	0.06
805.862	0.05
806.167	0.05
806.471	0.05
806.775	0.05
807.08	0.05
807.384	0.05
807.688	0.06
807.992	0.06
808.296	0.05
808.6	0.06
808.904	0.06
809.207	0.05
809.511	0.06
809.815	0.06
810.119	0.06
810.422	0.06
810.726	0.07
811.029	0.07
811.332	0.06
811.636	0.07
811.939	0.07
812.242	0.07
812.546	0.07
812.849	0.07
813.152	0.07
813.455	0.07
813.758	0.08
814.06	0.07
814.363	0.07
814.666	0.07
814.969	0.08
815.271	0.07
815.574	0.07
815.877	0.06
816.179	0.06
816.481	0.06
816.784	0.07
817.086	0.06
817.388	0.05
817.69	0.05
817.993	0.05
818.295	0.05
818.597	0.05
818.899	0.05
819.2	0.05
819.502	0.05
819.804	0.05
820.106	0.04
820.407	0.05
820.709	0.05
821.01	0.05
821.312	0.05
821.613	0.04
821.915	0.04
822.216	0.04
822.517	0.05
822.818	0.04
823.119	0.04
823.42	0.04
823.721	0.03
824.022	0.04
824.323	0.04
824.624	0.04
824.925	0.05
825.226	0.04
825.526	0.03
825.827	0.04
826.127	0.04
826.428	0.04
826.728	0.04
827.028	0.04
827.329	0.04
827.629	0.03
827.929	0.04
828.229	0.04
828.529	0.04
828.829	0.04
829.129	0.04
829.429	0.04
829.729	0.03
830.029	0.03
830.328	0.04
830.628	0.03
830.927	0.03
831.227	0.03
831.526	0.03
831.826	0.03
832.125	0.03
832.424	0.03
832.724	0.04
833.023	0.03
833.322	0.03
833.621	0.03
833.92	0.03
834.219	0.02
834.518	0.03
834.816	0.02
835.115	0.03
835.414	0.02
835.712	0.02
836.011	0.02
836.309	0.03
836.608	0.01
836.906	0.02
837.205	0.01
837.503	0
837.801	0
838.099	0
838.397	-0.01
838.695	-0
838.993	0
839.291	-0
839.589	0.01
839.887	0
840.184	-0
840.482	-0.01
840.78	-0
841.077	-0.01
841.375	-0
841.672	0
841.969	-0.01
842.267	0
842.564	-0
842.861	-0
843.158	-0.01
843.455	-0.03
843.752	-0.02
844.049	-0.02
844.346	-0.01
844.643	-0.03
844.94	-0.02
845.236	-0.02
845.533	-0.02
845.83	-0.02
846.126	-0.03
846.423	-0.03
846.719	-0.04
847.015	-0.03
847.312	-0.03
847.608	-0.04
847.904	-0.03
848.2	-0.04
848.496	-0.04
848.792	-0.04
849.088	-0.02
849.384	-0.03
849.68	-0.04
849.975	-0.03
850.271	-0.04
850.567	-0.05
850.862	-0.05
851.158	-0.05
851.453	-0.05
851.748	-0.05
852.044	-0.05
852.339	-0.05
852.634	-0.07
852.929	-0.05
853.224	-0.06
853.519	-0.06
853.814	-0.05
854.109	-0.06
854.404	-0.04
854.699	-0.06
854.994	-0.06
855.288	-0.06
855.583	-0.06
855.877	-0.07
856.172	-0.07
856.466	-0.07
856.76	-0.07
857.055	-0.08
857.349	-0.08
857.643	-0.09
857.937	-0.1
858.231	-0.1
858.525	-0.09
858.819	-0.1
859.113	-0.11
859.407	-0.11
859.701	-0.1
859.994	-0.11
860.288	-0.09
860.581	-0.1
860.875	-0.11
861.168	-0.11
861.462	-0.11
861.755	-0.1
862.048	-0.11
862.341	-0.1
862.634	-0.1
862.928	-0.1
863.221	-0.1
863.513	-0.11
863.806	-0.11
864.099	-0.11
864.392	-0.11
864.685	-0.1
864.977	-0.11
865.27	-0.12
865.562	-0.11
865.855	-0.11
866.147	-0.12
866.44	-0.11
866.732	-0.11
867.024	-0.12
867.316	-0.12
867.608	-0.13
867.9	-0.11
868.192	-0.13
868.484	-0.13
868.776	-0.12
869.068	-0.13
869.359	-0.13
869.651	-0.13
869.943	-0.15
870.234	-0.14
870.526	-0.15
870.817	-0.15
871.108	-0.13
871.4	-0.14
871.691	-0.14
871.982	-0.15
872.273	-0.17
872.564	-0.16
872.855	-0.15
873.146	-0.16
873.437	-0.16
873.728	-0.17
874.019	-0.16
874.309	-0.16
874.6	-0.16
874.89	-0.17
875.181	-0.16
875.471	-0.16
875.762	-0.17
876.052	-0.16
876.342	-0.15
876.632	-0.15
876.922	-0.17
877.213	-0.17
877.503	-0.18
877.792	-0.17
878.082	-0.17
878.372	-0.16
878.662	-0.18
878.952	-0.16
879.241	-0.16
879.531	-0.16
879.82	-0.15
880.11	-0.16
880.399	-0.16
880.688	-0.15
880.978	-0.15
881.267	-0.15
