Data from 12-12-AQDScycling_Absorbance__484__00484.txt Node

Date: Tue Dec 12 12:57:44 EST 2023
User: kyuminlee
Spectrometer: FLMS00943
Trigger mode: 0
Integration Time (sec): 1.000000E-1
Scans to average: 1
Electric dark correction enabled: true
Nonlinearity correction enabled: false
Boxcar width: 0
XAxis mode: Wavelengths
Number of Pixels in Spectrum: 2048
>>>>>Begin Spectral Data<<<<<
179.651	-0.32
180.037	-0.32
180.424	-0.32
180.81	-0.4
181.197	0.04
181.583	-0
181.97	-0.4
182.356	-0
182.743	-0
183.129	0.85
183.515	0.22
183.901	-1.34
184.288	0.27
184.674	-0
185.06	-0.95
185.446	-0
185.832	-0.96
186.218	-0.12
186.604	-0.39
186.99	-0.16
187.376	-0
187.762	-0.38
188.148	0.67
188.534	-0.36
188.92	0.09
189.305	0.15
189.691	0.13
190.077	0.21
190.463	0.19
190.848	0.05
191.234	-0.03
191.619	0.1
192.005	0.18
192.391	0.17
192.776	0.12
193.161	0.1
193.547	0.17
193.932	0.04
194.318	0.03
194.703	0.05
195.088	0.14
195.473	0.24
195.859	0.09
196.244	0.18
196.629	0.09
197.014	0.01
197.399	0.24
197.784	0.11
198.169	0.15
198.554	0.14
198.939	0.19
199.324	0.11
199.709	0.03
200.094	0.03
200.478	0.01
200.863	0.13
201.248	0.08
201.633	0.18
202.017	0.19
202.402	0.17
202.787	0.06
203.171	0.15
203.556	0.12
203.94	0.03
204.325	0.17
204.709	0.25
205.093	0.06
205.478	0.14
205.862	0.1
206.246	0.22
206.631	0.03
207.015	0.1
207.399	0.12
207.783	0.16
208.167	0.15
208.551	0.16
208.935	0.15
209.319	0.15
209.703	0.15
210.087	0.28
210.471	0.08
210.855	0.11
211.239	0.15
211.623	0.3
212.007	0.48
212.39	0.39
212.774	0.21
213.158	0.06
213.541	0.25
213.925	0.2
214.309	0.3
214.692	0.25
215.076	0.15
215.459	0.19
215.842	0.1
216.226	0.31
216.609	0.38
216.993	0.13
217.376	0.28
217.759	0.19
218.142	0.25
218.525	0.46
218.909	0.38
219.292	0.39
219.675	0.43
220.058	0.56
220.441	0.58
220.824	0.38
221.207	0.55
221.59	0.39
221.973	0.49
222.355	0.58
222.738	0.65
223.121	0.54
223.504	0.48
223.886	0.64
224.269	0.66
224.652	0.71
225.034	0.76
225.417	0.69
225.799	0.88
226.182	0.85
226.564	0.8
226.947	0.73
227.329	0.75
227.711	0.97
228.094	0.8
228.476	0.99
228.858	0.8
229.24	0.86
229.623	0.77
230.005	0.98
230.387	0.85
230.769	0.92
231.151	1.04
231.533	1.04
231.915	0.91
232.297	1.1
232.679	0.97
233.061	1.06
233.442	1.03
233.824	1.16
234.206	1.12
234.588	1.11
234.969	1.02
235.351	0.97
235.733	1.04
236.114	1.11
236.496	1.21
236.877	1.01
237.259	0.99
237.64	1.11
238.022	1.04
238.403	1.02
238.784	1.04
239.165	0.96
239.547	1.06
239.928	1.07
240.309	1.05
240.69	1.03
241.071	1.13
241.452	1.21
241.834	1.06
242.215	1
242.595	1.07
242.976	1.13
243.357	1.04
243.738	1.04
244.119	1.15
244.5	1.08
244.881	1.36
245.261	1.2
245.642	1.26
246.023	1.18
246.403	1.08
246.784	1.22
247.164	1.24
247.545	1.25
247.925	1.39
248.306	1.17
248.686	1.44
249.067	1.21
249.447	1.4
249.827	1.56
250.207	1.54
250.588	1.28
250.968	1.33
251.348	1.29
251.728	1.5
252.108	1.3
252.488	1.32
252.868	1.38
253.248	1.35
253.628	1.4
254.008	1.39
254.388	1.36
254.768	1.25
255.147	1.22
255.527	1.31
255.907	1.27
256.287	1.41
256.666	1.29
257.046	1.3
257.425	1.44
257.805	1.42
258.184	1.28
258.564	1.36
258.943	1.25
259.323	1.49
259.702	1.48
260.081	1.34
260.461	1.43
260.84	1.38
261.219	1.6
261.598	1.51
261.977	1.51
262.356	1.47
262.736	1.51
263.115	1.64
263.494	1.27
263.873	1.43
264.251	1.63
264.63	1.4
265.009	1.38
265.388	1.35
265.767	1.35
266.145	1.51
266.524	1.47
266.903	1.28
267.281	1.45
267.66	1.52
268.039	1.53
268.417	1.48
268.796	1.29
269.174	1.37
269.552	1.3
269.931	1.39
270.309	1.36
270.687	1.47
271.066	1.69
271.444	1.37
271.822	1.53
272.2	1.5
272.578	1.32
272.956	1.46
273.334	1.44
273.712	1.37
274.09	1.61
274.468	1.38
274.846	1.31
275.224	1.52
275.602	1.43
275.98	1.47
276.357	1.33
276.735	1.43
277.113	1.44
277.49	1.34
277.868	1.33
278.246	1.37
278.623	1.29
279.001	1.33
279.378	1.37
279.756	1.49
280.133	1.46
280.51	1.28
280.888	1.43
281.265	1.39
281.642	1.48
282.019	1.51
282.396	1.59
282.773	1.55
283.151	1.49
283.528	1.44
283.905	1.45
284.282	1.51
284.659	1.49
285.035	1.3
285.412	1.39
285.789	1.59
286.166	1.46
286.543	1.44
286.919	1.59
287.296	1.36
287.673	1.84
288.049	1.45
288.426	1.59
288.802	1.37
289.179	1.49
289.555	1.57
289.932	1.61
290.308	1.26
290.684	1.43
291.061	1.4
291.437	1.52
291.813	1.38
292.189	1.29
292.565	1.34
292.942	1.29
293.318	1.5
293.694	1.37
294.07	1.27
294.446	1.43
294.822	1.75
295.197	1.4
295.573	1.41
295.949	1.43
296.325	1.51
296.701	1.55
297.076	1.58
297.452	1.63
297.828	1.5
298.203	1.57
298.579	1.43
298.954	1.4
299.33	1.51
299.705	1.57
300.081	1.47
300.456	1.51
300.831	1.54
301.206	1.48
301.582	1.64
301.957	1.45
302.332	1.56
302.707	1.47
303.082	1.54
303.457	1.55
303.832	1.51
304.207	1.4
304.582	1.37
304.957	1.62
305.332	1.53
305.707	1.5
306.082	1.53
306.456	1.53
306.831	1.64
307.206	1.56
307.58	1.5
307.955	1.48
308.33	1.44
308.704	1.46
309.079	1.48
309.453	1.7
309.828	1.46
310.202	1.4
310.576	1.5
310.951	1.44
311.325	1.59
311.699	1.48
312.073	1.41
312.447	1.49
312.821	1.47
313.196	1.53
313.57	1.42
313.944	1.38
314.317	1.32
314.691	1.5
315.065	1.52
315.439	1.57
315.813	1.53
316.187	1.41
316.56	1.71
316.934	1.75
317.308	1.54
317.681	1.56
318.055	1.51
318.428	1.52
318.802	1.67
319.175	1.66
319.549	1.61
319.922	1.37
320.295	1.41
320.669	1.61
321.042	1.43
321.415	1.74
321.788	1.55
322.162	1.49
322.535	1.47
322.908	1.49
323.281	1.6
323.654	1.54
324.027	1.53
324.4	1.63
324.773	1.57
325.145	1.39
325.518	1.38
325.891	1.49
326.264	1.61
326.636	1.4
327.009	1.65
327.382	1.51
327.754	1.67
328.127	1.49
328.499	1.51
328.872	1.33
329.244	1.53
329.616	1.4
329.989	1.56
330.361	1.49
330.733	1.41
331.106	1.46
331.478	1.52
331.85	1.46
332.222	1.5
332.594	1.51
332.966	1.65
333.338	1.68
333.71	1.7
334.082	1.75
334.454	1.52
334.826	1.55
335.197	1.6
335.569	1.56
335.941	1.39
336.312	1.44
336.684	1.57
337.056	1.52
337.427	1.53
337.799	1.58
338.17	1.49
338.542	1.46
338.913	1.66
339.284	1.66
339.656	1.54
340.027	1.52
340.398	1.54
340.769	1.46
341.141	1.71
341.512	1.48
341.883	1.53
342.254	1.48
342.625	1.57
342.996	1.49
343.367	1.62
343.738	1.54
344.108	1.54
344.479	1.84
344.85	1.4
345.221	1.75
345.591	1.47
345.962	1.43
346.333	1.44
346.703	1.34
347.074	1.3
347.444	1.27
347.815	1.33
348.185	1.45
348.556	1.36
348.926	1.27
349.296	1.44
349.666	1.28
350.037	1.31
350.407	1.19
350.777	1.32
351.147	1.36
351.517	1.25
351.887	1.35
352.257	1.37
352.627	1.24
352.997	1.29
353.367	1.32
353.737	1.45
354.106	1.34
354.476	1.25
354.846	1.42
355.216	1.41
355.585	1.32
355.955	1.3
356.324	1.31
356.694	1.33
357.063	1.24
357.433	1.24
357.802	1.25
358.171	1.24
358.541	1.23
358.91	1.25
359.279	1.21
359.648	1.16
360.017	1.21
360.387	1.13
360.756	1.07
361.125	1.08
361.494	1.1
361.863	1.08
362.231	1.06
362.6	1.04
362.969	1.02
363.338	1.02
363.707	1.08
364.075	1.05
364.444	0.96
364.813	0.96
365.181	0.92
365.55	0.95
365.918	0.96
366.287	0.94
366.655	0.93
367.024	0.88
367.392	0.9
367.76	0.87
368.128	0.89
368.497	0.9
368.865	0.85
369.233	0.86
369.601	0.83
369.969	0.84
370.337	0.81
370.705	0.82
371.073	0.78
371.441	0.79
371.809	0.77
372.177	0.79
372.544	0.77
372.912	0.77
373.28	0.74
373.647	0.78
374.015	0.78
374.383	0.76
374.75	0.77
375.118	0.77
375.485	0.75
375.853	0.73
376.22	0.71
376.587	0.72
376.955	0.74
377.322	0.71
377.689	0.71
378.056	0.71
378.423	0.7
378.79	0.71
379.157	0.72
379.524	0.71
379.891	0.71
380.258	0.72
380.625	0.67
380.992	0.72
381.359	0.7
381.726	0.72
382.092	0.71
382.459	0.72
382.826	0.7
383.192	0.69
383.559	0.72
383.925	0.71
384.292	0.7
384.658	0.71
385.025	0.7
385.391	0.74
385.757	0.72
386.123	0.75
386.49	0.73
386.856	0.74
387.222	0.73
387.588	0.74
387.954	0.75
388.32	0.75
388.686	0.72
389.052	0.72
389.418	0.73
389.784	0.73
390.15	0.74
390.515	0.71
390.881	0.77
391.247	0.74
391.613	0.74
391.978	0.69
392.344	0.71
392.709	0.75
393.075	0.75
393.44	0.74
393.806	0.74
394.171	0.72
394.536	0.72
394.902	0.71
395.267	0.72
395.632	0.7
395.997	0.75
396.362	0.74
396.727	0.74
397.092	0.69
397.457	0.72
397.822	0.69
398.187	0.69
398.552	0.7
398.917	0.7
399.282	0.69
399.646	0.68
400.011	0.69
400.376	0.66
400.74	0.67
401.105	0.67
401.47	0.67
401.834	0.64
402.199	0.64
402.563	0.62
402.927	0.63
403.292	0.64
403.656	0.64
404.02	0.62
404.384	0.65
404.749	0.62
405.113	0.63
405.477	0.61
405.841	0.62
406.205	0.6
406.569	0.57
406.933	0.57
407.296	0.58
407.66	0.57
408.024	0.58
408.388	0.59
408.752	0.56
409.115	0.55
409.479	0.57
409.842	0.55
410.206	0.52
410.569	0.55
410.933	0.56
411.296	0.54
411.66	0.53
412.023	0.52
412.386	0.52
412.749	0.52
413.113	0.54
413.476	0.52
413.839	0.5
414.202	0.51
414.565	0.5
414.928	0.53
415.291	0.47
415.654	0.51
416.017	0.48
416.38	0.47
416.742	0.5
417.105	0.48
417.468	0.5
417.83	0.48
418.193	0.49
418.556	0.47
418.918	0.47
419.281	0.48
419.643	0.48
420.005	0.48
420.368	0.49
420.73	0.45
421.092	0.46
421.455	0.46
421.817	0.45
422.179	0.45
422.541	0.45
422.903	0.45
423.265	0.46
423.627	0.45
423.989	0.45
424.351	0.44
424.713	0.46
425.075	0.44
425.436	0.44
425.798	0.44
426.16	0.45
426.521	0.44
426.883	0.44
427.245	0.44
427.606	0.43
427.967	0.43
428.329	0.44
428.69	0.44
429.052	0.44
429.413	0.44
429.774	0.43
430.135	0.42
430.497	0.41
430.858	0.42
431.219	0.41
431.58	0.42
431.941	0.41
432.302	0.4
432.663	0.41
433.024	0.43
433.384	0.41
433.745	0.4
434.106	0.4
434.467	0.41
434.827	0.4
435.188	0.41
435.548	0.41
435.909	0.4
436.269	0.42
436.63	0.38
436.99	0.4
437.351	0.4
437.711	0.41
438.071	0.38
438.431	0.39
438.792	0.4
439.152	0.39
439.512	0.37
439.872	0.39
440.232	0.4
440.592	0.39
440.952	0.37
441.312	0.38
441.671	0.38
442.031	0.36
442.391	0.37
442.751	0.36
443.11	0.38
443.47	0.35
443.83	0.37
444.189	0.36
444.549	0.36
444.908	0.36
445.267	0.36
445.627	0.34
445.986	0.34
446.345	0.35
446.705	0.34
447.064	0.34
447.423	0.35
447.782	0.35
448.141	0.34
448.5	0.33
448.859	0.34
449.218	0.33
449.577	0.34
449.936	0.34
450.295	0.34
450.653	0.34
451.012	0.33
451.371	0.33
451.729	0.33
452.088	0.34
452.447	0.33
452.805	0.33
453.163	0.32
453.522	0.32
453.88	0.32
454.239	0.31
454.597	0.31
454.955	0.3
455.313	0.3
455.671	0.31
456.029	0.3
456.388	0.3
456.746	0.3
457.104	0.3
457.461	0.29
457.819	0.29
458.177	0.28
458.535	0.28
458.893	0.27
459.25	0.27
459.608	0.27
459.966	0.26
460.323	0.27
460.681	0.25
461.038	0.26
461.396	0.26
461.753	0.26
462.111	0.25
462.468	0.25
462.825	0.25
463.182	0.25
463.54	0.24
463.897	0.24
464.254	0.24
464.611	0.23
464.968	0.24
465.325	0.24
465.682	0.23
466.039	0.24
466.395	0.23
466.752	0.23
467.109	0.22
467.466	0.22
467.822	0.22
468.179	0.22
468.535	0.22
468.892	0.21
469.248	0.21
469.605	0.21
469.961	0.2
470.318	0.21
470.674	0.21
471.03	0.2
471.386	0.21
471.743	0.2
472.099	0.2
472.455	0.2
472.811	0.2
473.167	0.2
473.523	0.18
473.879	0.19
474.235	0.18
474.59	0.18
474.946	0.18
475.302	0.18
475.657	0.17
476.013	0.17
476.369	0.17
476.724	0.18
477.08	0.17
477.435	0.16
477.791	0.17
478.146	0.16
478.501	0.17
478.857	0.17
479.212	0.16
479.567	0.16
479.922	0.15
480.277	0.15
480.632	0.15
480.987	0.15
481.342	0.15
481.697	0.15
482.052	0.15
482.407	0.14
482.762	0.14
483.116	0.14
483.471	0.13
483.826	0.13
484.18	0.14
484.535	0.13
484.89	0.13
485.244	0.13
485.598	0.13
485.953	0.14
486.307	0.13
486.661	0.13
487.016	0.13
487.37	0.13
487.724	0.12
488.078	0.13
488.432	0.12
488.786	0.12
489.14	0.12
489.494	0.12
489.848	0.12
490.202	0.12
490.556	0.12
490.91	0.12
491.263	0.12
491.617	0.11
491.971	0.11
492.324	0.11
492.678	0.12
493.031	0.11
493.385	0.11
493.738	0.11
494.091	0.11
494.445	0.11
494.798	0.11
495.151	0.11
495.504	0.11
495.857	0.11
496.21	0.11
496.564	0.1
496.916	0.11
497.269	0.1
497.622	0.11
497.975	0.1
498.328	0.11
498.681	0.11
499.033	0.1
499.386	0.1
499.739	0.1
500.091	0.1
500.444	0.1
500.796	0.1
501.149	0.09
501.501	0.1
501.854	0.09
502.206	0.1
502.558	0.1
502.91	0.1
503.263	0.1
503.615	0.1
503.967	0.09
504.319	0.1
504.671	0.09
505.023	0.09
505.375	0.09
505.726	0.1
506.078	0.09
506.43	0.09
506.782	0.09
507.133	0.09
507.485	0.09
507.837	0.11
508.188	0.1
508.54	0.09
508.891	0.1
509.243	0.09
509.594	0.1
509.945	0.09
510.296	0.08
510.648	0.09
510.999	0.08
511.35	0.09
511.701	0.09
512.052	0.09
512.403	0.09
512.754	0.09
513.105	0.09
513.456	0.09
513.807	0.08
514.157	0.09
514.508	0.09
514.859	0.09
515.209	0.09
515.56	0.09
515.91	0.09
516.261	0.09
516.611	0.09
516.962	0.09
517.312	0.09
517.662	0.09
518.013	0.09
518.363	0.09
518.713	0.09
519.063	0.09
519.413	0.09
519.763	0.09
520.113	0.09
520.463	0.1
520.813	0.1
521.163	0.1
521.512	0.09
521.862	0.09
522.212	0.09
522.562	0.1
522.911	0.09
523.261	0.09
523.61	0.09
523.96	0.09
524.309	0.09
524.658	0.09
525.008	0.09
525.357	0.09
525.706	0.1
526.056	0.08
526.405	0.09
526.754	0.09
527.103	0.08
527.452	0.09
527.801	0.1
528.15	0.09
528.499	0.09
528.847	0.09
529.196	0.1
529.545	0.1
529.893	0.1
530.242	0.1
530.591	0.1
530.939	0.1
531.288	0.1
531.636	0.1
531.985	0.09
532.333	0.1
532.681	0.1
533.029	0.1
533.378	0.1
533.726	0.1
534.074	0.11
534.422	0.09
534.77	0.1
535.118	0.1
535.466	0.1
535.814	0.1
536.162	0.1
536.509	0.1
536.857	0.1
537.205	0.1
537.552	0.1
537.9	0.1
538.248	0.09
538.595	0.1
538.943	0.09
539.29	0.09
539.637	0.09
539.985	0.1
540.332	0.09
540.679	0.09
541.026	0.09
541.373	0.1
541.721	0.08
542.068	0.09
542.415	0.09
542.762	0.09
543.108	0.09
543.455	0.08
543.802	0.09
544.149	0.09
544.496	0.09
544.842	0.08
545.189	0.08
545.535	0.09
545.882	0.09
546.228	0.08
546.575	0.08
546.921	0.08
547.267	0.08
547.614	0.09
547.96	0.09
548.306	0.08
548.652	0.08
548.998	0.09
549.344	0.08
549.69	0.09
550.036	0.09
550.382	0.08
550.728	0.08
551.074	0.09
551.42	0.08
551.765	0.09
552.111	0.1
552.457	0.1
552.802	0.08
553.148	0.09
553.493	0.08
553.839	0.09
554.184	0.1
554.529	0.09
554.875	0.09
555.22	0.09
555.565	0.09
555.91	0.09
556.255	0.1
556.6	0.09
556.945	0.09
557.29	0.09
557.635	0.09
557.98	0.09
558.325	0.09
558.67	0.09
559.014	0.09
559.359	0.1
559.704	0.09
560.048	0.08
560.393	0.09
560.737	0.08
561.082	0.1
561.426	0.08
561.77	0.09
562.115	0.09
562.459	0.09
562.803	0.09
563.147	0.08
563.491	0.09
563.835	0.1
564.179	0.1
564.523	0.09
564.867	0.08
565.211	0.1
565.555	0.09
565.899	0.1
566.242	0.09
566.586	0.08
566.93	0.09
567.273	0.09
567.617	0.09
567.96	0.1
568.304	0.1
568.647	0.09
568.99	0.1
569.334	0.1
569.677	0.09
570.02	0.09
570.363	0.1
570.706	0.09
571.049	0.09
571.392	0.09
571.735	0.09
572.078	0.1
572.421	0.1
572.764	0.09
573.106	0.1
573.449	0.09
573.792	0.09
574.134	0.09
574.477	0.09
574.819	0.09
575.162	0.09
575.504	0.09
575.847	0.09
576.189	0.1
576.531	0.09
576.873	0.1
577.215	0.09
577.558	0.09
577.9	0.08
578.242	0.09
578.584	0.09
578.926	0.09
579.267	0.09
579.609	0.09
579.951	0.1
580.293	0.09
580.634	0.09
580.976	0.09
581.318	0.09
581.659	0.09
582.001	0.09
582.342	0.09
582.683	0.1
583.025	0.09
583.366	0.09
583.707	0.09
584.049	0.09
584.39	0.08
584.731	0.08
585.072	0.08
585.413	0.1
585.754	0.09
586.095	0.09
586.435	0.09
586.776	0.1
587.117	0.09
587.458	0.09
587.798	0.1
588.139	0.09
588.48	0.09
588.82	0.09
589.161	0.09
589.501	0.09
589.841	0.09
590.182	0.09
590.522	0.1
590.862	0.09
591.202	0.08
591.542	0.08
591.882	0.09
592.222	0.09
592.562	0.09
592.902	0.09
593.242	0.08
593.582	0.09
593.922	0.09
594.261	0.08
594.601	0.09
594.941	0.09
595.28	0.09
595.62	0.09
595.959	0.08
596.299	0.09
596.638	0.08
596.977	0.09
597.317	0.09
597.656	0.09
597.995	0.09
598.334	0.1
598.673	0.09
599.012	0.09
599.351	0.1
599.69	0.09
600.029	0.1
600.368	0.1
600.707	0.09
601.046	0.09
601.384	0.1
601.723	0.1
602.061	0.09
602.4	0.09
602.738	0.09
603.077	0.09
603.415	0.09
603.754	0.09
604.092	0.09
604.43	0.08
604.768	0.09
605.107	0.09
605.445	0.09
605.783	0.09
606.121	0.08
606.459	0.09
606.796	0.09
607.134	0.08
607.472	0.08
607.81	0.09
608.148	0.08
608.485	0.09
608.823	0.09
609.16	0.09
609.498	0.08
609.835	0.08
610.173	0.08
610.51	0.09
610.847	0.09
611.185	0.1
611.522	0.09
611.859	0.09
612.196	0.09
612.533	0.1
612.87	0.1
613.207	0.1
613.544	0.1
613.881	0.11
614.217	0.1
614.554	0.09
614.891	0.1
615.228	0.1
615.564	0.1
615.901	0.1
616.237	0.1
616.574	0.1
616.91	0.1
617.246	0.1
617.583	0.1
617.919	0.11
618.255	0.1
618.591	0.1
618.927	0.1
619.263	0.11
619.599	0.1
619.935	0.1
620.271	0.1
620.607	0.1
620.943	0.1
621.279	0.1
621.614	0.1
621.95	0.1
622.286	0.1
622.621	0.09
622.957	0.1
623.292	0.1
623.627	0.09
623.963	0.09
624.298	0.09
624.633	0.09
624.968	0.09
625.304	0.09
625.639	0.09
625.974	0.09
626.309	0.09
626.644	0.09
626.979	0.09
627.313	0.09
627.648	0.09
627.983	0.09
628.318	0.09
628.652	0.08
628.987	0.09
629.321	0.09
629.656	0.08
629.99	0.08
630.325	0.08
630.659	0.08
630.993	0.08
631.327	0.09
631.662	0.07
631.996	0.08
632.33	0.09
632.664	0.09
632.998	0.08
633.332	0.07
633.666	0.08
633.999	0.09
634.333	0.08
634.667	0.09
635.001	0.08
635.334	0.08
635.668	0.08
636.001	0.08
636.335	0.08
636.668	0.08
637.001	0.07
637.335	0.08
637.668	0.08
638.001	0.08
638.334	0.09
638.668	0.08
639.001	0.08
639.334	0.08
639.667	0.08
639.999	0.08
640.332	0.08
640.665	0.07
640.998	0.08
641.331	0.08
641.663	0.07
641.996	0.08
642.328	0.08
642.661	0.08
642.993	0.08
643.326	0.08
643.658	0.08
643.99	0.07
644.323	0.07
644.655	0.07
644.987	0.08
645.319	0.08
645.651	0.08
645.983	0.08
646.315	0.08
646.647	0.07
646.979	0.08
647.31	0.08
647.642	0.08
647.974	0.08
648.305	0.08
648.637	0.08
648.968	0.08
649.3	0.08
649.631	0.08
649.963	0.08
650.294	0.09
650.625	0.08
650.957	0.09
651.288	0.09
651.619	0.08
651.95	0.08
652.281	0.09
652.612	0.08
652.943	0.09
653.274	0.09
653.604	0.08
653.935	0.08
654.266	0.09
654.596	0.08
654.927	0.08
655.258	0.08
655.588	0.09
655.918	0.09
656.249	0.07
656.579	0.08
656.909	0.08
657.24	0.08
657.57	0.08
657.9	0.08
658.23	0.08
658.56	0.09
658.89	0.09
659.22	0.08
659.55	0.09
659.88	0.09
660.209	0.09
660.539	0.09
660.869	0.08
661.198	0.09
661.528	0.09
661.857	0.09
662.187	0.09
662.516	0.09
662.846	0.08
663.175	0.08
663.504	0.09
663.833	0.08
664.163	0.09
664.492	0.08
664.821	0.08
665.15	0.08
665.479	0.09
665.807	0.08
666.136	0.09
666.465	0.08
666.794	0.08
667.122	0.09
667.451	0.08
667.78	0.09
668.108	0.08
668.437	0.08
668.765	0.08
669.093	0.09
669.422	0.08
669.75	0.08
670.078	0.08
670.406	0.08
670.734	0.08
671.062	0.08
671.39	0.08
671.718	0.08
672.046	0.08
672.374	0.08
672.702	0.08
673.029	0.08
673.357	0.08
673.685	0.08
674.012	0.08
674.34	0.08
674.667	0.09
674.995	0.08
675.322	0.09
675.649	0.08
675.977	0.08
676.304	0.08
676.631	0.08
676.958	0.08
677.285	0.08
677.612	0.07
677.939	0.08
678.266	0.08
678.593	0.08
678.92	0.08
679.246	0.07
679.573	0.08
679.9	0.07
680.226	0.08
680.553	0.08
680.879	0.08
681.206	0.08
681.532	0.08
681.858	0.08
682.184	0.08
682.511	0.08
682.837	0.08
683.163	0.08
683.489	0.08
683.815	0.08
684.141	0.08
684.467	0.08
684.793	0.08
685.118	0.07
685.444	0.07
685.77	0.07
686.095	0.07
686.421	0.07
686.746	0.08
687.072	0.08
687.397	0.07
687.723	0.08
688.048	0.08
688.373	0.07
688.698	0.08
689.023	0.08
689.349	0.08
689.674	0.08
689.999	0.08
690.323	0.07
690.648	0.07
690.973	0.07
691.298	0.07
691.623	0.08
691.947	0.08
692.272	0.07
692.596	0.08
692.921	0.08
693.245	0.08
693.57	0.08
693.894	0.08
694.218	0.08
694.543	0.08
694.867	0.08
695.191	0.07
695.515	0.08
695.839	0.07
696.163	0.08
696.487	0.07
696.811	0.07
697.135	0.07
697.458	0.08
697.782	0.07
698.106	0.08
698.429	0.08
698.753	0.07
699.076	0.07
699.4	0.07
699.723	0.07
700.046	0.06
700.37	0.07
700.693	0.07
701.016	0.07
701.339	0.07
701.662	0.08
701.985	0.08
702.308	0.07
702.631	0.07
702.954	0.07
703.277	0.07
703.599	0.08
703.922	0.07
704.245	0.07
704.567	0.07
704.89	0.07
705.212	0.07
705.535	0.06
705.857	0.06
706.179	0.06
706.502	0.06
706.824	0.05
707.146	0.06
707.468	0.07
707.79	0.06
708.112	0.07
708.434	0.07
708.756	0.07
709.078	0.07
709.399	0.06
709.721	0.06
710.043	0.07
710.364	0.07
710.686	0.07
711.007	0.07
711.329	0.07
711.65	0.07
711.972	0.07
712.293	0.08
712.614	0.07
712.935	0.07
713.256	0.07
713.577	0.07
713.898	0.07
714.219	0.07
714.54	0.06
714.861	0.06
715.182	0.07
715.503	0.07
715.823	0.06
716.144	0.06
716.464	0.06
716.785	0.06
717.105	0.06
717.426	0.06
717.746	0.06
718.066	0.06
718.387	0.06
718.707	0.06
719.027	0.06
719.347	0.05
719.667	0.06
719.987	0.05
720.307	0.05
720.627	0.05
720.947	0.06
721.266	0.06
721.586	0.05
721.906	0.06
722.225	0.05
722.545	0.05
722.864	0.05
723.184	0.06
723.503	0.05
723.823	0.06
724.142	0.05
724.461	0.05
724.78	0.06
725.099	0.06
725.418	0.06
725.737	0.05
726.056	0.06
726.375	0.05
726.694	0.06
727.013	0.06
727.331	0.05
727.65	0.05
727.969	0.06
728.287	0.06
728.606	0.05
728.924	0.05
729.242	0.06
729.561	0.06
729.879	0.05
730.197	0.05
730.515	0.05
730.834	0.05
731.152	0.06
731.47	0.05
731.788	0.06
732.105	0.05
732.423	0.05
732.741	0.06
733.059	0.06
733.376	0.06
733.694	0.05
734.012	0.06
734.329	0.06
734.647	0.06
734.964	0.07
735.281	0.06
735.599	0.06
735.916	0.06
736.233	0.05
736.55	0.06
736.867	0.05
737.184	0.07
737.501	0.05
737.818	0.06
738.135	0.07
738.452	0.06
738.768	0.06
739.085	0.05
739.402	0.05
739.718	0.05
740.035	0.05
740.351	0.06
740.668	0.06
740.984	0.05
741.3	0.05
741.617	0.05
741.933	0.06
742.249	0.06
742.565	0.06
742.881	0.07
743.197	0.06
743.513	0.05
743.829	0.05
744.144	0.05
744.46	0.05
744.776	0.05
745.091	0.05
745.407	0.05
745.722	0.05
746.038	0.05
746.353	0.04
746.669	0.05
746.984	0.05
747.299	0.04
747.614	0.05
747.93	0.04
748.245	0.04
748.56	0.04
748.875	0.04
749.189	0.05
749.504	0.05
749.819	0.05
750.134	0.05
750.448	0.05
750.763	0.06
751.078	0.04
751.392	0.05
751.707	0.06
752.021	0.07
752.335	0.06
752.65	0.05
752.964	0.06
753.278	0.06
753.592	0.05
753.906	0.05
754.22	0.06
754.534	0.06
754.848	0.05
755.162	0.05
755.476	0.06
755.789	0.06
756.103	0.05
756.417	0.06
756.73	0.06
757.044	0.06
757.357	0.06
757.671	0.06
757.984	0.06
758.297	0.06
758.61	0.06
758.924	0.06
759.237	0.06
759.55	0.05
759.863	0.05
760.176	0.05
760.488	0.07
760.801	0.05
761.114	0.05
761.427	0.05
761.739	0.06
762.052	0.05
762.365	0.05
762.677	0.05
762.99	0.05
763.302	0.05
763.614	0.05
763.926	0.05
764.239	0.05
764.551	0.05
764.863	0.05
765.175	0.06
765.487	0.05
765.799	0.05
766.111	0.04
766.423	0.05
766.734	0.05
767.046	0.04
767.358	0.05
767.669	0.05
767.981	0.05
768.292	0.04
768.604	0.05
768.915	0.05
769.226	0.05
769.537	0.04
769.849	0.05
770.16	0.04
770.471	0.04
770.782	0.04
771.093	0.04
771.404	0.04
771.715	0.04
772.025	0.04
772.336	0.05
772.647	0.03
772.957	0.04
773.268	0.04
773.578	0.04
773.889	0.05
774.199	0.05
774.51	0.04
774.82	0.04
775.13	0.04
775.44	0.04
775.75	0.05
776.06	0.04
776.37	0.04
776.68	0.05
776.99	0.05
777.3	0.04
777.61	0.05
777.92	0.04
778.229	0.05
778.539	0.04
778.848	0.05
779.158	0.05
779.467	0.05
779.777	0.05
780.086	0.06
780.395	0.04
780.704	0.04
781.013	0.04
781.323	0.04
781.632	0.04
781.941	0.04
782.249	0.05
782.558	0.04
782.867	0.04
783.176	0.04
783.485	0.03
783.793	0.05
784.102	0.04
784.41	0.04
784.719	0.05
785.027	0.04
785.335	0.04
785.644	0.04
785.952	0.05
786.26	0.05
786.568	0.04
786.876	0.03
787.184	0.05
787.492	0.04
787.8	0.04
788.108	0.04
788.416	0.04
788.723	0.04
789.031	0.03
789.338	0.04
789.646	0.04
789.953	0.04
790.261	0.04
790.568	0.04
790.876	0.04
791.183	0.04
791.49	0.04
791.797	0.04
792.104	0.04
792.411	0.05
792.718	0.04
793.025	0.05
793.332	0.05
793.639	0.06
793.945	0.06
794.252	0.05
794.559	0.04
794.865	0.05
795.172	0.05
795.478	0.05
795.784	0.06
796.091	0.06
796.397	0.06
796.703	0.06
797.009	0.05
797.315	0.05
797.622	0.05
797.927	0.05
798.233	0.05
798.539	0.06
798.845	0.05
799.151	0.06
799.456	0.06
799.762	0.05
800.068	0.06
800.373	0.06
800.679	0.05
800.984	0.05
801.289	0.05
801.595	0.06
801.9	0.05
802.205	0.05
802.51	0.05
802.815	0.06
803.12	0.05
803.425	0.05
803.73	0.05
804.035	0.05
804.339	0.05
804.644	0.05
804.949	0.04
805.253	0.05
805.558	0.05
805.862	0.04
806.167	0.04
806.471	0.04
806.775	0.05
807.08	0.05
807.384	0.04
807.688	0.06
807.992	0.05
808.296	0.04
808.6	0.05
808.904	0.05
809.207	0.05
809.511	0.05
809.815	0.06
810.119	0.05
810.422	0.05
810.726	0.06
811.029	0.06
811.332	0.06
811.636	0.07
811.939	0.06
812.242	0.07
812.546	0.06
812.849	0.06
813.152	0.07
813.455	0.07
813.758	0.07
814.06	0.06
814.363	0.06
814.666	0.07
814.969	0.06
815.271	0.07
815.574	0.06
815.877	0.06
816.179	0.05
816.481	0.06
816.784	0.06
817.086	0.05
817.388	0.04
817.69	0.04
817.993	0.04
818.295	0.05
818.597	0.05
818.899	0.04
819.2	0.04
819.502	0.04
819.804	0.04
820.106	0.04
820.407	0.04
820.709	0.05
821.01	0.04
821.312	0.04
821.613	0.04
821.915	0.04
822.216	0.04
822.517	0.03
822.818	0.03
823.119	0.03
823.42	0.04
823.721	0.03
824.022	0.03
824.323	0.03
824.624	0.04
824.925	0.03
825.226	0.04
825.526	0.03
825.827	0.03
826.127	0.04
826.428	0.04
826.728	0.04
827.028	0.03
827.329	0.03
827.629	0.02
827.929	0.04
828.229	0.04
828.529	0.04
828.829	0.03
829.129	0.04
829.429	0.04
829.729	0.03
830.029	0.03
830.328	0.03
830.628	0.03
830.927	0.03
831.227	0.03
831.526	0.02
831.826	0.03
832.125	0.03
832.424	0.02
832.724	0.04
833.023	0.03
833.322	0.03
833.621	0.03
833.92	0.01
834.219	0.02
834.518	0.03
834.816	0.01
835.115	0.02
835.414	0.02
835.712	0.01
836.011	0.01
836.309	0.02
836.608	0.01
836.906	0.01
837.205	0
837.503	0
837.801	0.01
838.099	0
838.397	-0
838.695	-0
838.993	-0
839.291	-0.01
839.589	-0.01
839.887	-0
840.184	-0.01
840.482	-0.01
840.78	-0
841.077	-0.01
841.375	-0.01
841.672	-0.01
841.969	-0.01
842.267	-0.01
842.564	-0.01
842.861	-0
843.158	-0
843.455	-0.03
843.752	-0.02
844.049	-0.02
844.346	-0.03
844.643	-0.03
844.94	-0.03
845.236	-0.01
845.533	-0.03
845.83	-0.02
846.126	-0.03
846.423	-0.03
846.719	-0.04
847.015	-0.03
847.312	-0.04
847.608	-0.04
847.904	-0.04
848.2	-0.05
848.496	-0.04
848.792	-0.04
849.088	-0.02
849.384	-0.04
849.68	-0.05
849.975	-0.05
850.271	-0.05
850.567	-0.05
850.862	-0.05
851.158	-0.05
851.453	-0.05
851.748	-0.06
852.044	-0.05
852.339	-0.05
852.634	-0.07
852.929	-0.05
853.224	-0.06
853.519	-0.06
853.814	-0.06
854.109	-0.06
854.404	-0.06
854.699	-0.07
854.994	-0.06
855.288	-0.06
855.583	-0.06
855.877	-0.07
856.172	-0.07
856.466	-0.08
856.76	-0.08
857.055	-0.08
857.349	-0.1
857.643	-0.1
857.937	-0.09
858.231	-0.1
858.525	-0.1
858.819	-0.1
859.113	-0.11
859.407	-0.11
859.701	-0.11
859.994	-0.12
860.288	-0.1
860.581	-0.11
860.875	-0.1
861.168	-0.11
861.462	-0.1
861.755	-0.1
862.048	-0.11
862.341	-0.11
862.634	-0.11
862.928	-0.11
863.221	-0.1
863.513	-0.11
863.806	-0.11
864.099	-0.12
864.392	-0.12
864.685	-0.11
864.977	-0.12
865.27	-0.11
865.562	-0.12
865.855	-0.1
866.147	-0.12
866.44	-0.1
866.732	-0.12
867.024	-0.12
867.316	-0.13
867.608	-0.12
867.9	-0.13
868.192	-0.13
868.484	-0.13
868.776	-0.13
869.068	-0.13
869.359	-0.14
869.651	-0.13
869.943	-0.15
870.234	-0.14
870.526	-0.14
870.817	-0.15
871.108	-0.12
871.4	-0.14
871.691	-0.15
871.982	-0.16
872.273	-0.16
872.564	-0.16
872.855	-0.16
873.146	-0.17
873.437	-0.16
873.728	-0.17
874.019	-0.17
874.309	-0.17
874.6	-0.17
874.89	-0.17
875.181	-0.17
875.471	-0.16
875.762	-0.16
876.052	-0.16
876.342	-0.16
876.632	-0.17
876.922	-0.17
877.213	-0.16
877.503	-0.18
877.792	-0.17
878.082	-0.17
878.372	-0.15
878.662	-0.19
878.952	-0.18
879.241	-0.17
879.531	-0.16
879.82	-0.17
880.11	-0.17
880.399	-0.16
880.688	-0.15
880.978	-0.15
881.267	-0.15
