Data from 12-12-AQDScycling_Absorbance__461__00461.txt Node

Date: Tue Dec 12 12:51:59 EST 2023
User: kyuminlee
Spectrometer: FLMS00943
Trigger mode: 0
Integration Time (sec): 1.000000E-1
Scans to average: 1
Electric dark correction enabled: true
Nonlinearity correction enabled: false
Boxcar width: 0
XAxis mode: Wavelengths
Number of Pixels in Spectrum: 2048
>>>>>Begin Spectral Data<<<<<
179.651	-0
180.037	-0
180.424	-0
180.81	-0.59
181.197	0.17
181.583	-0
181.97	-0.12
182.356	-0
182.743	-0
183.129	0.82
183.515	0.11
183.901	-1.2
184.288	1.03
184.674	-0
185.06	-0.53
185.446	-0
185.832	-0
186.218	0.68
186.604	0.03
186.99	-0
187.376	-0
187.762	0.1
188.148	0.19
188.534	-0.28
188.92	0.04
189.305	0.02
189.691	0.11
190.077	0.06
190.463	0.18
190.848	0.21
191.234	-0.02
191.619	0.2
192.005	0.13
192.391	0.16
192.776	0.14
193.161	0.13
193.547	0.17
193.932	0.1
194.318	0.07
194.703	0.07
195.088	0.19
195.473	0.33
195.859	0.2
196.244	0.22
196.629	0.06
197.014	0.09
197.399	0.09
197.784	0.01
198.169	-0
198.554	0.16
198.939	0.05
199.324	0.1
199.709	0.01
200.094	0.04
200.478	0.16
200.863	0.21
201.248	0.14
201.633	0.12
202.017	0.2
202.402	0.17
202.787	0.08
203.171	0.1
203.556	0.08
203.94	0.15
204.325	0.18
204.709	0.13
205.093	0.09
205.478	0.05
205.862	0.07
206.246	0.16
206.631	0.02
207.015	0.06
207.399	0.19
207.783	0.09
208.167	0.13
208.551	0.29
208.935	0.27
209.319	0.07
209.703	0.15
210.087	0.22
210.471	0.1
210.855	0.15
211.239	0.2
211.623	0.22
212.007	0.4
212.39	0.2
212.774	0.13
213.158	0
213.541	0.11
213.925	0.25
214.309	0.26
214.692	0.27
215.076	0.25
215.459	0.15
215.842	0.14
216.226	0.26
216.609	0.2
216.993	0.16
217.376	0.46
217.759	0.19
218.142	0.27
218.525	0.44
218.909	0.29
219.292	0.27
219.675	0.31
220.058	0.4
220.441	0.49
220.824	0.44
221.207	0.53
221.59	0.44
221.973	0.49
222.355	0.6
222.738	0.64
223.121	0.68
223.504	0.67
223.886	0.6
224.269	0.68
224.652	0.63
225.034	0.68
225.417	0.72
225.799	0.67
226.182	0.74
226.564	0.74
226.947	0.67
227.329	0.77
227.711	0.83
228.094	0.95
228.476	0.97
228.858	0.73
229.24	0.78
229.623	0.9
230.005	0.81
230.387	0.85
230.769	0.76
231.151	0.92
231.533	0.94
231.915	0.97
232.297	0.81
232.679	0.82
233.061	0.89
233.442	1
233.824	1.08
234.206	0.99
234.588	1.04
234.969	1.1
235.351	0.83
235.733	1.09
236.114	1.23
236.496	1.01
236.877	1.18
237.259	0.94
237.64	1.02
238.022	1.03
238.403	0.98
238.784	1
239.165	0.88
239.547	1.11
239.928	1.03
240.309	1.01
240.69	1.06
241.071	1.14
241.452	1.11
241.834	1.15
242.215	1.12
242.595	1.02
242.976	1.1
243.357	1.2
243.738	1.01
244.119	1.25
244.5	1.09
244.881	1.15
245.261	1.1
245.642	1.02
246.023	1.12
246.403	1.1
246.784	1.2
247.164	1.22
247.545	1.26
247.925	1.23
248.306	1.14
248.686	1.59
249.067	1.18
249.447	1.29
249.827	1.5
250.207	1.44
250.588	1.32
250.968	1.38
251.348	1.34
251.728	1.41
252.108	1.35
252.488	1.33
252.868	1.39
253.248	1.23
253.628	1.35
254.008	1.53
254.388	1.23
254.768	1.21
255.147	1.31
255.527	1.41
255.907	1.24
256.287	1.28
256.666	1.4
257.046	1.41
257.425	1.45
257.805	1.32
258.184	1.26
258.564	1.29
258.943	1.36
259.323	1.43
259.702	1.31
260.081	1.41
260.461	1.4
260.84	1.38
261.219	1.66
261.598	1.43
261.977	1.44
262.356	1.53
262.736	1.42
263.115	1.51
263.494	1.47
263.873	1.46
264.251	1.46
264.63	1.45
265.009	1.33
265.388	1.41
265.767	1.36
266.145	1.38
266.524	1.3
266.903	1.45
267.281	1.32
267.66	1.48
268.039	1.4
268.417	1.32
268.796	1.42
269.174	1.35
269.552	1.38
269.931	1.5
270.309	1.52
270.687	1.49
271.066	1.61
271.444	1.38
271.822	1.38
272.2	1.31
272.578	1.26
272.956	1.41
273.334	1.28
273.712	1.4
274.09	1.37
274.468	1.38
274.846	1.25
275.224	1.31
275.602	1.44
275.98	1.4
276.357	1.41
276.735	1.42
277.113	1.34
277.49	1.27
277.868	1.21
278.246	1.32
278.623	1.28
279.001	1.26
279.378	1.33
279.756	1.35
280.133	1.42
280.51	1.48
280.888	1.51
281.265	1.31
281.642	1.38
282.019	1.57
282.396	1.66
282.773	1.37
283.151	1.5
283.528	1.4
283.905	1.39
284.282	1.43
284.659	1.59
285.035	1.32
285.412	1.25
285.789	1.5
286.166	1.4
286.543	1.4
286.919	1.54
287.296	1.54
287.673	1.41
288.049	1.5
288.426	1.47
288.802	1.43
289.179	1.45
289.555	1.51
289.932	1.45
290.308	1.32
290.684	1.37
291.061	1.3
291.437	1.4
291.813	1.42
292.189	1.31
292.565	1.32
292.942	1.33
293.318	1.33
293.694	1.48
294.07	1.28
294.446	1.26
294.822	1.58
295.197	1.33
295.573	1.49
295.949	1.38
296.325	1.52
296.701	1.55
297.076	1.57
297.452	1.52
297.828	1.43
298.203	1.53
298.579	1.37
298.954	1.34
299.33	1.38
299.705	1.45
300.081	1.47
300.456	1.57
300.831	1.44
301.206	1.41
301.582	1.56
301.957	1.62
302.332	1.54
302.707	1.37
303.082	1.47
303.457	1.47
303.832	1.42
304.207	1.41
304.582	1.45
304.957	1.44
305.332	1.56
305.707	1.46
306.082	1.51
306.456	1.75
306.831	1.51
307.206	1.52
307.58	1.61
307.955	1.53
308.33	1.45
308.704	1.46
309.079	1.46
309.453	1.51
309.828	1.49
310.202	1.43
310.576	1.54
310.951	1.58
311.325	1.37
311.699	1.45
312.073	1.43
312.447	1.45
312.821	1.37
313.196	1.48
313.57	1.33
313.944	1.42
314.317	1.38
314.691	1.55
315.065	1.5
315.439	1.51
315.813	1.39
316.187	1.54
316.56	1.66
316.934	1.44
317.308	1.48
317.681	1.44
318.055	1.47
318.428	1.51
318.802	1.63
319.175	1.51
319.549	1.54
319.922	1.38
320.295	1.43
320.669	1.59
321.042	1.44
321.415	1.61
321.788	1.44
322.162	1.36
322.535	1.47
322.908	1.55
323.281	1.48
323.654	1.61
324.027	1.52
324.4	1.82
324.773	1.52
325.145	1.44
325.518	1.44
325.891	1.43
326.264	1.59
326.636	1.39
327.009	1.48
327.382	1.36
327.754	1.81
328.127	1.4
328.499	1.57
328.872	1.4
329.244	1.53
329.616	1.36
329.989	1.47
330.361	1.46
330.733	1.42
331.106	1.35
331.478	1.47
331.85	1.42
332.222	1.32
332.594	1.49
332.966	1.49
333.338	1.55
333.71	1.4
334.082	1.71
334.454	1.4
334.826	1.46
335.197	1.43
335.569	1.44
335.941	1.38
336.312	1.47
336.684	1.37
337.056	1.44
337.427	1.43
337.799	1.47
338.17	1.61
338.542	1.39
338.913	1.53
339.284	1.5
339.656	1.44
340.027	1.44
340.398	1.53
340.769	1.6
341.141	1.66
341.512	1.43
341.883	1.45
342.254	1.45
342.625	1.49
342.996	1.46
343.367	1.46
343.738	1.56
344.108	1.41
344.479	1.52
344.85	1.39
345.221	1.64
345.591	1.39
345.962	1.49
346.333	1.43
346.703	1.34
347.074	1.33
347.444	1.28
347.815	1.27
348.185	1.45
348.556	1.31
348.926	1.29
349.296	1.41
349.666	1.3
350.037	1.21
350.407	1.18
350.777	1.29
351.147	1.34
351.517	1.27
351.887	1.29
352.257	1.42
352.627	1.28
352.997	1.31
353.367	1.29
353.737	1.38
354.106	1.4
354.476	1.28
354.846	1.36
355.216	1.32
355.585	1.34
355.955	1.29
356.324	1.33
356.694	1.27
357.063	1.23
357.433	1.14
357.802	1.22
358.171	1.25
358.541	1.18
358.91	1.19
359.279	1.23
359.648	1.1
360.017	1.14
360.387	1.09
360.756	1.03
361.125	1.07
361.494	1.03
361.863	1
362.231	0.96
362.6	0.97
362.969	0.95
363.338	0.91
363.707	0.9
364.075	0.91
364.444	0.85
364.813	0.83
365.181	0.84
365.55	0.78
365.918	0.8
366.287	0.78
366.655	0.78
367.024	0.75
367.392	0.73
367.76	0.7
368.128	0.69
368.497	0.68
368.865	0.68
369.233	0.65
369.601	0.65
369.969	0.63
370.337	0.64
370.705	0.59
371.073	0.6
371.441	0.61
371.809	0.57
372.177	0.59
372.544	0.56
372.912	0.56
373.28	0.54
373.647	0.55
374.015	0.54
374.383	0.54
374.75	0.52
375.118	0.48
375.485	0.49
375.853	0.5
376.22	0.48
376.587	0.46
376.955	0.47
377.322	0.44
377.689	0.45
378.056	0.42
378.423	0.43
378.79	0.45
379.157	0.44
379.524	0.43
379.891	0.42
380.258	0.42
380.625	0.43
380.992	0.42
381.359	0.42
381.726	0.41
382.092	0.43
382.459	0.41
382.826	0.42
383.192	0.4
383.559	0.39
383.925	0.39
384.292	0.37
384.658	0.39
385.025	0.38
385.391	0.38
385.757	0.39
386.123	0.38
386.49	0.38
386.856	0.38
387.222	0.37
387.588	0.38
387.954	0.38
388.32	0.37
388.686	0.38
389.052	0.37
389.418	0.37
389.784	0.39
390.15	0.36
390.515	0.36
390.881	0.38
391.247	0.37
391.613	0.38
391.978	0.36
392.344	0.39
392.709	0.35
393.075	0.36
393.44	0.35
393.806	0.36
394.171	0.36
394.536	0.36
394.902	0.35
395.267	0.35
395.632	0.34
395.997	0.36
396.362	0.34
396.727	0.35
397.092	0.35
397.457	0.35
397.822	0.35
398.187	0.33
398.552	0.34
398.917	0.32
399.282	0.33
399.646	0.31
400.011	0.32
400.376	0.33
400.74	0.33
401.105	0.33
401.47	0.32
401.834	0.32
402.199	0.32
402.563	0.31
402.927	0.29
403.292	0.32
403.656	0.31
404.02	0.32
404.384	0.32
404.749	0.31
405.113	0.31
405.477	0.3
405.841	0.28
406.205	0.3
406.569	0.28
406.933	0.28
407.296	0.29
407.66	0.29
408.024	0.29
408.388	0.31
408.752	0.28
409.115	0.27
409.479	0.27
409.842	0.27
410.206	0.27
410.569	0.27
410.933	0.28
411.296	0.28
411.66	0.27
412.023	0.26
412.386	0.26
412.749	0.26
413.113	0.26
413.476	0.23
413.839	0.23
414.202	0.23
414.565	0.24
414.928	0.25
415.291	0.23
415.654	0.25
416.017	0.25
416.38	0.23
416.742	0.25
417.105	0.22
417.468	0.23
417.83	0.23
418.193	0.22
418.556	0.23
418.918	0.23
419.281	0.22
419.643	0.22
420.005	0.22
420.368	0.23
420.73	0.23
421.092	0.22
421.455	0.22
421.817	0.21
422.179	0.2
422.541	0.22
422.903	0.21
423.265	0.21
423.627	0.2
423.989	0.2
424.351	0.21
424.713	0.21
425.075	0.19
425.436	0.19
425.798	0.19
426.16	0.2
426.521	0.2
426.883	0.22
427.245	0.2
427.606	0.19
427.967	0.2
428.329	0.19
428.69	0.19
429.052	0.2
429.413	0.2
429.774	0.18
430.135	0.18
430.497	0.19
430.858	0.19
431.219	0.18
431.58	0.2
431.941	0.18
432.302	0.19
432.663	0.19
433.024	0.19
433.384	0.19
433.745	0.18
434.106	0.18
434.467	0.19
434.827	0.19
435.188	0.19
435.548	0.2
435.909	0.19
436.269	0.19
436.63	0.17
436.99	0.19
437.351	0.19
437.711	0.2
438.071	0.18
438.431	0.18
438.792	0.18
439.152	0.18
439.512	0.17
439.872	0.18
440.232	0.19
440.592	0.19
440.952	0.17
441.312	0.17
441.671	0.16
442.031	0.17
442.391	0.18
442.751	0.17
443.11	0.16
443.47	0.17
443.83	0.16
444.189	0.16
444.549	0.17
444.908	0.17
445.267	0.17
445.627	0.16
445.986	0.15
446.345	0.15
446.705	0.15
447.064	0.15
447.423	0.16
447.782	0.15
448.141	0.15
448.5	0.15
448.859	0.16
449.218	0.16
449.577	0.16
449.936	0.16
450.295	0.16
450.653	0.15
451.012	0.16
451.371	0.16
451.729	0.16
452.088	0.15
452.447	0.16
452.805	0.16
453.163	0.16
453.522	0.16
453.88	0.14
454.239	0.14
454.597	0.14
454.955	0.14
455.313	0.14
455.671	0.15
456.029	0.14
456.388	0.14
456.746	0.14
457.104	0.14
457.461	0.13
457.819	0.14
458.177	0.12
458.535	0.13
458.893	0.13
459.25	0.12
459.608	0.12
459.966	0.12
460.323	0.11
460.681	0.12
461.038	0.12
461.396	0.12
461.753	0.12
462.111	0.11
462.468	0.11
462.825	0.11
463.182	0.12
463.54	0.11
463.897	0.11
464.254	0.11
464.611	0.11
464.968	0.11
465.325	0.12
465.682	0.11
466.039	0.11
466.395	0.11
466.752	0.11
467.109	0.1
467.466	0.11
467.822	0.11
468.179	0.1
468.535	0.1
468.892	0.11
469.248	0.1
469.605	0.1
469.961	0.1
470.318	0.11
470.674	0.1
471.03	0.09
471.386	0.11
471.743	0.1
472.099	0.1
472.455	0.1
472.811	0.09
473.167	0.1
473.523	0.09
473.879	0.09
474.235	0.09
474.59	0.08
474.946	0.09
475.302	0.09
475.657	0.09
476.013	0.08
476.369	0.08
476.724	0.08
477.08	0.08
477.435	0.08
477.791	0.08
478.146	0.09
478.501	0.08
478.857	0.09
479.212	0.08
479.567	0.08
479.922	0.08
480.277	0.09
480.632	0.08
480.987	0.08
481.342	0.08
481.697	0.07
482.052	0.08
482.407	0.07
482.762	0.08
483.116	0.07
483.471	0.07
483.826	0.07
484.18	0.07
484.535	0.07
484.89	0.07
485.244	0.07
485.598	0.07
485.953	0.08
486.307	0.07
486.661	0.07
487.016	0.07
487.37	0.07
487.724	0.07
488.078	0.07
488.432	0.07
488.786	0.07
489.14	0.07
489.494	0.06
489.848	0.06
490.202	0.06
490.556	0.07
490.91	0.06
491.263	0.06
491.617	0.06
491.971	0.06
492.324	0.07
492.678	0.07
493.031	0.07
493.385	0.07
493.738	0.06
494.091	0.06
494.445	0.07
494.798	0.06
495.151	0.06
495.504	0.06
495.857	0.06
496.21	0.06
496.564	0.06
496.916	0.07
497.269	0.06
497.622	0.06
497.975	0.06
498.328	0.06
498.681	0.06
499.033	0.06
499.386	0.06
499.739	0.06
500.091	0.06
500.444	0.05
500.796	0.06
501.149	0.05
501.501	0.06
501.854	0.06
502.206	0.06
502.558	0.06
502.91	0.05
503.263	0.06
503.615	0.05
503.967	0.06
504.319	0.06
504.671	0.05
505.023	0.05
505.375	0.05
505.726	0.05
506.078	0.05
506.43	0.05
506.782	0.04
507.133	0.05
507.485	0.06
507.837	0.06
508.188	0.05
508.54	0.05
508.891	0.06
509.243	0.05
509.594	0.05
509.945	0.05
510.296	0.05
510.648	0.05
510.999	0.05
511.35	0.05
511.701	0.05
512.052	0.05
512.403	0.05
512.754	0.05
513.105	0.05
513.456	0.05
513.807	0.05
514.157	0.05
514.508	0.05
514.859	0.04
515.209	0.05
515.56	0.05
515.91	0.04
516.261	0.06
516.611	0.05
516.962	0.05
517.312	0.05
517.662	0.05
518.013	0.05
518.363	0.06
518.713	0.05
519.063	0.05
519.413	0.05
519.763	0.05
520.113	0.05
520.463	0.05
520.813	0.05
521.163	0.05
521.512	0.05
521.862	0.05
522.212	0.05
522.562	0.05
522.911	0.06
523.261	0.05
523.61	0.06
523.96	0.05
524.309	0.05
524.658	0.05
525.008	0.05
525.357	0.05
525.706	0.06
526.056	0.05
526.405	0.05
526.754	0.05
527.103	0.05
527.452	0.05
527.801	0.05
528.15	0.06
528.499	0.05
528.847	0.05
529.196	0.06
529.545	0.06
529.893	0.06
530.242	0.06
530.591	0.06
530.939	0.07
531.288	0.05
531.636	0.06
531.985	0.06
532.333	0.05
532.681	0.06
533.029	0.05
533.378	0.06
533.726	0.06
534.074	0.06
534.422	0.05
534.77	0.06
535.118	0.05
535.466	0.06
535.814	0.06
536.162	0.06
536.509	0.06
536.857	0.05
537.205	0.06
537.552	0.06
537.9	0.05
538.248	0.05
538.595	0.05
538.943	0.06
539.29	0.05
539.637	0.05
539.985	0.05
540.332	0.06
540.679	0.06
541.026	0.05
541.373	0.05
541.721	0.05
542.068	0.05
542.415	0.05
542.762	0.04
543.108	0.04
543.455	0.04
543.802	0.04
544.149	0.05
544.496	0.04
544.842	0.04
545.189	0.04
545.535	0.04
545.882	0.05
546.228	0.04
546.575	0.04
546.921	0.03
547.267	0.04
547.614	0.04
547.96	0.04
548.306	0.04
548.652	0.04
548.998	0.05
549.344	0.04
549.69	0.04
550.036	0.04
550.382	0.04
550.728	0.04
551.074	0.05
551.42	0.04
551.765	0.05
552.111	0.05
552.457	0.05
552.802	0.04
553.148	0.04
553.493	0.03
553.839	0.05
554.184	0.04
554.529	0.04
554.875	0.04
555.22	0.05
555.565	0.04
555.91	0.05
556.255	0.05
556.6	0.05
556.945	0.04
557.29	0.05
557.635	0.05
557.98	0.04
558.325	0.04
558.67	0.05
559.014	0.05
559.359	0.05
559.704	0.05
560.048	0.04
560.393	0.05
560.737	0.04
561.082	0.05
561.426	0.03
561.77	0.04
562.115	0.04
562.459	0.04
562.803	0.05
563.147	0.05
563.491	0.04
563.835	0.04
564.179	0.05
564.523	0.04
564.867	0.04
565.211	0.05
565.555	0.04
565.899	0.06
566.242	0.05
566.586	0.04
566.93	0.04
567.273	0.05
567.617	0.05
567.96	0.05
568.304	0.05
568.647	0.05
568.99	0.05
569.334	0.05
569.677	0.05
570.02	0.05
570.363	0.05
570.706	0.04
571.049	0.05
571.392	0.05
571.735	0.03
572.078	0.04
572.421	0.05
572.764	0.04
573.106	0.05
573.449	0.04
573.792	0.04
574.134	0.04
574.477	0.05
574.819	0.04
575.162	0.05
575.504	0.04
575.847	0.05
576.189	0.04
576.531	0.04
576.873	0.04
577.215	0.04
577.558	0.04
577.9	0.04
578.242	0.04
578.584	0.04
578.926	0.05
579.267	0.04
579.609	0.04
579.951	0.05
580.293	0.04
580.634	0.05
580.976	0.05
581.318	0.05
581.659	0.05
582.001	0.04
582.342	0.04
582.683	0.04
583.025	0.03
583.366	0.04
583.707	0.04
584.049	0.03
584.39	0.05
584.731	0.04
585.072	0.04
585.413	0.05
585.754	0.04
586.095	0.05
586.435	0.04
586.776	0.04
587.117	0.04
587.458	0.04
587.798	0.04
588.139	0.04
588.48	0.04
588.82	0.04
589.161	0.05
589.501	0.04
589.841	0.04
590.182	0.04
590.522	0.04
590.862	0.04
591.202	0.04
591.542	0.04
591.882	0.04
592.222	0.04
592.562	0.04
592.902	0.04
593.242	0.04
593.582	0.05
593.922	0.04
594.261	0.03
594.601	0.05
594.941	0.04
595.28	0.04
595.62	0.05
595.959	0.04
596.299	0.04
596.638	0.04
596.977	0.04
597.317	0.05
597.656	0.04
597.995	0.05
598.334	0.05
598.673	0.04
599.012	0.04
599.351	0.05
599.69	0.04
600.029	0.06
600.368	0.05
600.707	0.05
601.046	0.05
601.384	0.05
601.723	0.05
602.061	0.04
602.4	0.04
602.738	0.05
603.077	0.04
603.415	0.04
603.754	0.04
604.092	0.05
604.43	0.04
604.768	0.05
605.107	0.04
605.445	0.04
605.783	0.04
606.121	0.03
606.459	0.04
606.796	0.05
607.134	0.04
607.472	0.04
607.81	0.05
608.148	0.04
608.485	0.04
608.823	0.05
609.16	0.04
609.498	0.04
609.835	0.04
610.173	0.04
610.51	0.04
610.847	0.04
611.185	0.05
611.522	0.05
611.859	0.05
612.196	0.05
612.533	0.05
612.87	0.06
613.207	0.06
613.544	0.06
613.881	0.06
614.217	0.06
614.554	0.05
614.891	0.06
615.228	0.06
615.564	0.06
615.901	0.05
616.237	0.05
616.574	0.05
616.91	0.06
617.246	0.06
617.583	0.05
617.919	0.06
618.255	0.06
618.591	0.06
618.927	0.06
619.263	0.06
619.599	0.06
619.935	0.06
620.271	0.05
620.607	0.05
620.943	0.06
621.279	0.06
621.614	0.06
621.95	0.06
622.286	0.05
622.621	0.05
622.957	0.05
623.292	0.05
623.627	0.05
623.963	0.05
624.298	0.05
624.633	0.05
624.968	0.05
625.304	0.05
625.639	0.05
625.974	0.05
626.309	0.04
626.644	0.05
626.979	0.05
627.313	0.05
627.648	0.05
627.983	0.04
628.318	0.04
628.652	0.04
628.987	0.05
629.321	0.04
629.656	0.03
629.99	0.04
630.325	0.04
630.659	0.04
630.993	0.04
631.327	0.04
631.662	0.03
631.996	0.04
632.33	0.04
632.664	0.05
632.998	0.04
633.332	0.04
633.666	0.04
633.999	0.04
634.333	0.04
634.667	0.04
635.001	0.04
635.334	0.04
635.668	0.04
636.001	0.04
636.335	0.04
636.668	0.05
637.001	0.04
637.335	0.04
637.668	0.04
638.001	0.03
638.334	0.04
638.668	0.04
639.001	0.04
639.334	0.04
639.667	0.04
639.999	0.04
640.332	0.04
640.665	0.04
640.998	0.04
641.331	0.04
641.663	0.03
641.996	0.04
642.328	0.04
642.661	0.04
642.993	0.04
643.326	0.04
643.658	0.03
643.99	0.03
644.323	0.04
644.655	0.04
644.987	0.04
645.319	0.04
645.651	0.04
645.983	0.03
646.315	0.03
646.647	0.04
646.979	0.05
647.31	0.04
647.642	0.04
647.974	0.04
648.305	0.05
648.637	0.04
648.968	0.04
649.3	0.04
649.631	0.05
649.963	0.04
650.294	0.05
650.625	0.04
650.957	0.05
651.288	0.05
651.619	0.04
651.95	0.05
652.281	0.04
652.612	0.05
652.943	0.05
653.274	0.05
653.604	0.05
653.935	0.04
654.266	0.05
654.596	0.04
654.927	0.04
655.258	0.05
655.588	0.05
655.918	0.05
656.249	0.03
656.579	0.05
656.909	0.05
657.24	0.04
657.57	0.05
657.9	0.05
658.23	0.04
658.56	0.06
658.89	0.05
659.22	0.04
659.55	0.05
659.88	0.05
660.209	0.05
660.539	0.05
660.869	0.05
661.198	0.05
661.528	0.05
661.857	0.05
662.187	0.05
662.516	0.06
662.846	0.04
663.175	0.05
663.504	0.05
663.833	0.05
664.163	0.05
664.492	0.05
664.821	0.05
665.15	0.05
665.479	0.05
665.807	0.05
666.136	0.06
666.465	0.05
666.794	0.05
667.122	0.05
667.451	0.05
667.78	0.05
668.108	0.05
668.437	0.04
668.765	0.05
669.093	0.06
669.422	0.05
669.75	0.05
670.078	0.04
670.406	0.05
670.734	0.05
671.062	0.05
671.39	0.05
671.718	0.05
672.046	0.04
672.374	0.04
672.702	0.05
673.029	0.04
673.357	0.05
673.685	0.05
674.012	0.05
674.34	0.05
674.667	0.05
674.995	0.05
675.322	0.05
675.649	0.05
675.977	0.05
676.304	0.05
676.631	0.05
676.958	0.05
677.285	0.04
677.612	0.04
677.939	0.05
678.266	0.06
678.593	0.05
678.92	0.05
679.246	0.05
679.573	0.05
679.9	0.04
680.226	0.05
680.553	0.04
680.879	0.05
681.206	0.05
681.532	0.05
681.858	0.04
682.184	0.05
682.511	0.05
682.837	0.04
683.163	0.05
683.489	0.05
683.815	0.04
684.141	0.04
684.467	0.04
684.793	0.04
685.118	0.04
685.444	0.05
685.77	0.04
686.095	0.05
686.421	0.04
686.746	0.05
687.072	0.05
687.397	0.05
687.723	0.05
688.048	0.06
688.373	0.05
688.698	0.05
689.023	0.04
689.349	0.05
689.674	0.05
689.999	0.05
690.323	0.05
690.648	0.05
690.973	0.04
691.298	0.05
691.623	0.05
691.947	0.05
692.272	0.05
692.596	0.05
692.921	0.05
693.245	0.04
693.57	0.05
693.894	0.06
694.218	0.05
694.543	0.05
694.867	0.04
695.191	0.05
695.515	0.05
695.839	0.04
696.163	0.04
696.487	0.05
696.811	0.05
697.135	0.05
697.458	0.05
697.782	0.05
698.106	0.05
698.429	0.05
698.753	0.05
699.076	0.05
699.4	0.04
699.723	0.05
700.046	0.05
700.37	0.05
700.693	0.04
701.016	0.04
701.339	0.05
701.662	0.05
701.985	0.05
702.308	0.05
702.631	0.05
702.954	0.05
703.277	0.05
703.599	0.05
703.922	0.04
704.245	0.05
704.567	0.04
704.89	0.04
705.212	0.05
705.535	0.04
705.857	0.04
706.179	0.04
706.502	0.04
706.824	0.03
707.146	0.03
707.468	0.04
707.79	0.04
708.112	0.05
708.434	0.04
708.756	0.04
709.078	0.05
709.399	0.04
709.721	0.04
710.043	0.04
710.364	0.04
710.686	0.04
711.007	0.04
711.329	0.05
711.65	0.05
711.972	0.05
712.293	0.05
712.614	0.04
712.935	0.05
713.256	0.04
713.577	0.05
713.898	0.05
714.219	0.04
714.54	0.05
714.861	0.04
715.182	0.04
715.503	0.04
715.823	0.04
716.144	0.04
716.464	0.03
716.785	0.03
717.105	0.04
717.426	0.04
717.746	0.04
718.066	0.03
718.387	0.04
718.707	0.04
719.027	0.04
719.347	0.03
719.667	0.03
719.987	0.03
720.307	0.03
720.627	0.03
720.947	0.03
721.266	0.04
721.586	0.03
721.906	0.03
722.225	0.03
722.545	0.04
722.864	0.03
723.184	0.04
723.503	0.03
723.823	0.04
724.142	0.03
724.461	0.04
724.78	0.03
725.099	0.04
725.418	0.03
725.737	0.03
726.056	0.03
726.375	0.04
726.694	0.03
727.013	0.03
727.331	0.03
727.65	0.03
727.969	0.03
728.287	0.04
728.606	0.03
728.924	0.04
729.242	0.04
729.561	0.04
729.879	0.04
730.197	0.04
730.515	0.03
730.834	0.04
731.152	0.04
731.47	0.04
731.788	0.04
732.105	0.04
732.423	0.04
732.741	0.04
733.059	0.04
733.376	0.05
733.694	0.03
734.012	0.03
734.329	0.04
734.647	0.04
734.964	0.05
735.281	0.04
735.599	0.04
735.916	0.04
736.233	0.04
736.55	0.04
736.867	0.04
737.184	0.04
737.501	0.04
737.818	0.04
738.135	0.04
738.452	0.04
738.768	0.04
739.085	0.04
739.402	0.03
739.718	0.04
740.035	0.04
740.351	0.04
740.668	0.04
740.984	0.04
741.3	0.04
741.617	0.04
741.933	0.04
742.249	0.05
742.565	0.04
742.881	0.05
743.197	0.04
743.513	0.03
743.829	0.03
744.144	0.04
744.46	0.04
744.776	0.04
745.091	0.04
745.407	0.03
745.722	0.03
746.038	0.03
746.353	0.03
746.669	0.04
746.984	0.02
747.299	0.02
747.614	0.04
747.93	0.04
748.245	0.03
748.56	0.03
748.875	0.03
749.189	0.03
749.504	0.04
749.819	0.04
750.134	0.03
750.448	0.04
750.763	0.04
751.078	0.03
751.392	0.04
751.707	0.05
752.021	0.05
752.335	0.04
752.65	0.04
752.964	0.04
753.278	0.04
753.592	0.04
753.906	0.04
754.22	0.04
754.534	0.04
754.848	0.04
755.162	0.04
755.476	0.04
755.789	0.04
756.103	0.04
756.417	0.05
756.73	0.04
757.044	0.05
757.357	0.04
757.671	0.05
757.984	0.04
758.297	0.05
758.61	0.06
758.924	0.05
759.237	0.04
759.55	0.04
759.863	0.04
760.176	0.05
760.488	0.04
760.801	0.04
761.114	0.04
761.427	0.03
761.739	0.05
762.052	0.04
762.365	0.04
762.677	0.04
762.99	0.03
763.302	0.04
763.614	0.04
763.926	0.05
764.239	0.03
764.551	0.02
764.863	0.04
765.175	0.04
765.487	0.04
765.799	0.03
766.111	0.03
766.423	0.04
766.734	0.04
767.046	0.03
767.358	0.04
767.669	0.04
767.981	0.04
768.292	0.04
768.604	0.04
768.915	0.04
769.226	0.04
769.537	0.02
769.849	0.04
770.16	0.03
770.471	0.03
770.782	0.03
771.093	0.03
771.404	0.02
771.715	0.03
772.025	0.03
772.336	0.03
772.647	0.03
772.957	0.03
773.268	0.04
773.578	0.03
773.889	0.04
774.199	0.04
774.51	0.03
774.82	0.04
775.13	0.03
775.44	0.03
775.75	0.04
776.06	0.04
776.37	0.03
776.68	0.04
776.99	0.03
777.3	0.03
777.61	0.04
777.92	0.03
778.229	0.03
778.539	0.03
778.848	0.03
779.158	0.04
779.467	0.04
779.777	0.04
780.086	0.04
780.395	0.04
780.704	0.03
781.013	0.03
781.323	0.03
781.632	0.04
781.941	0.04
782.249	0.04
782.558	0.03
782.867	0.04
783.176	0.03
783.485	0.03
783.793	0.03
784.102	0.02
784.41	0.03
784.719	0.03
785.027	0.03
785.335	0.03
785.644	0.04
785.952	0.03
786.26	0.03
786.568	0.03
786.876	0.03
787.184	0.04
787.492	0.04
787.8	0.03
788.108	0.03
788.416	0.04
788.723	0.03
789.031	0.04
789.338	0.03
789.646	0.03
789.953	0.03
790.261	0.04
790.568	0.04
790.876	0.03
791.183	0.04
791.49	0.03
791.797	0.04
792.104	0.03
792.411	0.04
792.718	0.03
793.025	0.03
793.332	0.04
793.639	0.04
793.945	0.05
794.252	0.05
794.559	0.05
794.865	0.04
795.172	0.04
795.478	0.04
795.784	0.05
796.091	0.04
796.397	0.05
796.703	0.05
797.009	0.06
797.315	0.05
797.622	0.04
797.927	0.04
798.233	0.05
798.539	0.04
798.845	0.04
799.151	0.05
799.456	0.05
799.762	0.04
800.068	0.05
800.373	0.06
800.679	0.04
800.984	0.04
801.289	0.04
801.595	0.05
801.9	0.05
802.205	0.04
802.51	0.05
802.815	0.04
803.12	0.04
803.425	0.04
803.73	0.04
804.035	0.04
804.339	0.04
804.644	0.04
804.949	0.04
805.253	0.04
805.558	0.04
805.862	0.04
806.167	0.04
806.471	0.03
806.775	0.04
807.08	0.04
807.384	0.04
807.688	0.04
807.992	0.04
808.296	0.04
808.6	0.04
808.904	0.04
809.207	0.05
809.511	0.04
809.815	0.05
810.119	0.05
810.422	0.05
810.726	0.06
811.029	0.06
811.332	0.05
811.636	0.06
811.939	0.05
812.242	0.06
812.546	0.05
812.849	0.06
813.152	0.06
813.455	0.06
813.758	0.06
814.06	0.06
814.363	0.06
814.666	0.06
814.969	0.06
815.271	0.06
815.574	0.05
815.877	0.05
816.179	0.05
816.481	0.04
816.784	0.05
817.086	0.05
817.388	0.04
817.69	0.04
817.993	0.03
818.295	0.04
818.597	0.04
818.899	0.03
819.2	0.03
819.502	0.04
819.804	0.04
820.106	0.04
820.407	0.03
820.709	0.04
821.01	0.04
821.312	0.04
821.613	0.03
821.915	0.04
822.216	0.03
822.517	0.03
822.818	0.03
823.119	0.03
823.42	0.03
823.721	0.02
824.022	0.03
824.323	0.03
824.624	0.03
824.925	0.04
825.226	0.04
825.526	0.02
825.827	0.03
826.127	0.03
826.428	0.03
826.728	0.03
827.028	0.02
827.329	0.03
827.629	0.03
827.929	0.03
828.229	0.03
828.529	0.03
828.829	0.03
829.129	0.03
829.429	0.03
829.729	0.03
830.029	0.02
830.328	0.03
830.628	0.02
830.927	0.02
831.227	0.03
831.526	0.02
831.826	0.03
832.125	0.02
832.424	0.02
832.724	0.02
833.023	0.02
833.322	0.02
833.621	0.02
833.92	0.01
834.219	0.02
834.518	0.02
834.816	0.01
835.115	0.01
835.414	0.01
835.712	0.01
836.011	0.01
836.309	0.01
836.608	-0
836.906	0
837.205	-0
837.503	0
837.801	-0.01
838.099	-0
838.397	-0.02
838.695	-0.01
838.993	-0.01
839.291	-0.02
839.589	-0.01
839.887	-0.01
840.184	-0.02
840.482	-0.01
840.78	-0.01
841.077	-0.01
841.375	-0.01
841.672	-0
841.969	-0.01
842.267	-0.01
842.564	-0.01
842.861	-0.02
843.158	-0.02
843.455	-0.03
843.752	-0.03
844.049	-0.02
844.346	-0.02
844.643	-0.03
844.94	-0.03
845.236	-0.03
845.533	-0.03
845.83	-0.04
846.126	-0.03
846.423	-0.04
846.719	-0.05
847.015	-0.05
847.312	-0.05
847.608	-0.05
847.904	-0.05
848.2	-0.05
848.496	-0.05
848.792	-0.05
849.088	-0.04
849.384	-0.05
849.68	-0.05
849.975	-0.05
850.271	-0.05
850.567	-0.06
850.862	-0.05
851.158	-0.05
851.453	-0.05
851.748	-0.06
852.044	-0.06
852.339	-0.05
852.634	-0.08
852.929	-0.06
853.224	-0.07
853.519	-0.06
853.814	-0.07
854.109	-0.07
854.404	-0.07
854.699	-0.07
854.994	-0.06
855.288	-0.07
855.583	-0.07
855.877	-0.07
856.172	-0.08
856.466	-0.08
856.76	-0.08
857.055	-0.08
857.349	-0.1
857.643	-0.09
857.937	-0.1
858.231	-0.1
858.525	-0.11
858.819	-0.1
859.113	-0.11
859.407	-0.11
859.701	-0.11
859.994	-0.11
860.288	-0.1
860.581	-0.11
860.875	-0.11
861.168	-0.12
861.462	-0.11
861.755	-0.09
862.048	-0.11
862.341	-0.11
862.634	-0.11
862.928	-0.12
863.221	-0.11
863.513	-0.12
863.806	-0.12
864.099	-0.11
864.392	-0.11
864.685	-0.12
864.977	-0.11
865.27	-0.12
865.562	-0.12
865.855	-0.11
866.147	-0.13
866.44	-0.11
866.732	-0.12
867.024	-0.13
867.316	-0.13
867.608	-0.14
867.9	-0.13
868.192	-0.13
868.484	-0.13
868.776	-0.14
869.068	-0.13
869.359	-0.13
869.651	-0.14
869.943	-0.15
870.234	-0.15
870.526	-0.14
870.817	-0.16
871.108	-0.14
871.4	-0.15
871.691	-0.16
871.982	-0.16
872.273	-0.16
872.564	-0.16
872.855	-0.17
873.146	-0.17
873.437	-0.16
873.728	-0.17
874.019	-0.16
874.309	-0.16
874.6	-0.17
874.89	-0.17
875.181	-0.18
875.471	-0.16
875.762	-0.17
876.052	-0.15
876.342	-0.14
876.632	-0.17
876.922	-0.17
877.213	-0.17
877.503	-0.18
877.792	-0.18
878.082	-0.17
878.372	-0.16
878.662	-0.19
878.952	-0.17
879.241	-0.17
879.531	-0.17
879.82	-0.17
880.11	-0.15
880.399	-0.16
880.688	-0.16
880.978	-0.16
881.267	-0.16
