Data from 12-12-AQDScycling_Absorbance__479__00479.txt Node

Date: Tue Dec 12 12:56:29 EST 2023
User: kyuminlee
Spectrometer: FLMS00943
Trigger mode: 0
Integration Time (sec): 1.000000E-1
Scans to average: 1
Electric dark correction enabled: true
Nonlinearity correction enabled: false
Boxcar width: 0
XAxis mode: Wavelengths
Number of Pixels in Spectrum: 2048
>>>>>Begin Spectral Data<<<<<
179.651	-0
180.037	-0
180.424	-0
180.81	-0.22
181.197	0.07
181.583	-0
181.97	-0.06
182.356	-0
182.743	-0
183.129	0.51
183.515	-0.07
183.901	-2.1
184.288	-0
184.674	-0.11
185.06	-0
185.446	-0
185.832	-0
186.218	0.28
186.604	0.38
186.99	-0
187.376	-0
187.762	-0.39
188.148	0.11
188.534	-0
188.92	0.09
189.305	0.01
189.691	0.09
190.077	0.07
190.463	0
190.848	0.06
191.234	0.1
191.619	0.03
192.005	0.08
192.391	0.11
192.776	0.09
193.161	0.4
193.547	0.16
193.932	0.08
194.318	0.06
194.703	0.16
195.088	0.21
195.473	0.08
195.859	0.1
196.244	0.12
196.629	0.19
197.014	0.01
197.399	0.17
197.784	0.11
198.169	0.1
198.554	0.2
198.939	0.04
199.324	0.13
199.709	0.05
200.094	-0.03
200.478	0.12
200.863	0.16
201.248	0.08
201.633	0.08
202.017	0.19
202.402	0.05
202.787	-0
203.171	0.21
203.556	0.35
203.94	0.18
204.325	0.19
204.709	0.27
205.093	0.06
205.478	0.07
205.862	0.14
206.246	0.03
206.631	0.02
207.015	0.12
207.399	0.21
207.783	0.1
208.167	0.15
208.551	0.19
208.935	0.12
209.319	0.18
209.703	0.18
210.087	0.32
210.471	-0.02
210.855	0.17
211.239	0.19
211.623	0.26
212.007	0.3
212.39	0.13
212.774	0.15
213.158	0.15
213.541	0.24
213.925	0.16
214.309	0.21
214.692	0.21
215.076	0.11
215.459	0.21
215.842	0.1
216.226	0.19
216.609	0.3
216.993	0.14
217.376	0.23
217.759	0.2
218.142	0.23
218.525	0.37
218.909	0.32
219.292	0.42
219.675	0.36
220.058	0.37
220.441	0.48
220.824	0.47
221.207	0.39
221.59	0.48
221.973	0.46
222.355	0.64
222.738	0.64
223.121	0.6
223.504	0.51
223.886	0.73
224.269	0.67
224.652	0.8
225.034	0.64
225.417	0.66
225.799	0.76
226.182	0.82
226.564	0.89
226.947	0.79
227.329	0.75
227.711	0.88
228.094	0.86
228.476	0.73
228.858	0.81
229.24	0.84
229.623	0.98
230.005	0.96
230.387	0.81
230.769	0.78
231.151	0.88
231.533	0.94
231.915	0.81
232.297	0.99
232.679	1.03
233.061	0.92
233.442	0.97
233.824	0.87
234.206	1.1
234.588	1.03
234.969	1.09
235.351	1.04
235.733	1.11
236.114	1.15
236.496	0.97
236.877	1.15
237.259	0.97
237.64	1.11
238.022	1.02
238.403	0.99
238.784	1.02
239.165	0.98
239.547	1.04
239.928	0.99
240.309	0.93
240.69	1.07
241.071	1.13
241.452	1.08
241.834	0.9
242.215	1.17
242.595	1.05
242.976	1.04
243.357	1.04
243.738	0.96
244.119	1.25
244.5	1.06
244.881	1.19
245.261	1.25
245.642	1.15
246.023	1.12
246.403	1.14
246.784	1.19
247.164	1.26
247.545	1.17
247.925	1.24
248.306	1.19
248.686	1.33
249.067	1.19
249.447	1.18
249.827	1.42
250.207	1.38
250.588	1.28
250.968	1.47
251.348	1.24
251.728	1.43
252.108	1.32
252.488	1.33
252.868	1.25
253.248	1.35
253.628	1.42
254.008	1.4
254.388	1.28
254.768	1.3
255.147	1.31
255.527	1.37
255.907	1.27
256.287	1.5
256.666	1.43
257.046	1.53
257.425	1.54
257.805	1.29
258.184	1.3
258.564	1.32
258.943	1.34
259.323	1.44
259.702	1.35
260.081	1.41
260.461	1.51
260.84	1.4
261.219	1.63
261.598	1.47
261.977	1.39
262.356	1.43
262.736	1.36
263.115	1.37
263.494	1.56
263.873	1.38
264.251	1.4
264.63	1.54
265.009	1.44
265.388	1.32
265.767	1.28
266.145	1.38
266.524	1.36
266.903	1.46
267.281	1.4
267.66	1.43
268.039	1.67
268.417	1.32
268.796	1.41
269.174	1.4
269.552	1.32
269.931	1.46
270.309	1.34
270.687	1.55
271.066	1.82
271.444	1.5
271.822	1.42
272.2	1.47
272.578	1.41
272.956	1.39
273.334	1.4
273.712	1.35
274.09	1.35
274.468	1.37
274.846	1.26
275.224	1.26
275.602	1.32
275.98	1.54
276.357	1.44
276.735	1.46
277.113	1.39
277.49	1.37
277.868	1.29
278.246	1.35
278.623	1.23
279.001	1.32
279.378	1.25
279.756	1.43
280.133	1.48
280.51	1.39
280.888	1.45
281.265	1.31
281.642	1.49
282.019	1.43
282.396	1.45
282.773	1.41
283.151	1.41
283.528	1.5
283.905	1.4
284.282	1.42
284.659	1.59
285.035	1.36
285.412	1.4
285.789	1.46
286.166	1.65
286.543	1.48
286.919	1.47
287.296	1.34
287.673	1.5
288.049	1.43
288.426	1.43
288.802	1.48
289.179	1.43
289.555	1.68
289.932	1.42
290.308	1.3
290.684	1.46
291.061	1.39
291.437	1.58
291.813	1.35
292.189	1.3
292.565	1.32
292.942	1.23
293.318	1.47
293.694	1.58
294.07	1.27
294.446	1.36
294.822	1.57
295.197	1.43
295.573	1.45
295.949	1.48
296.325	1.46
296.701	1.51
297.076	1.48
297.452	1.67
297.828	1.54
298.203	1.51
298.579	1.36
298.954	1.43
299.33	1.48
299.705	1.45
300.081	1.58
300.456	1.59
300.831	1.66
301.206	1.44
301.582	1.62
301.957	1.48
302.332	1.46
302.707	1.55
303.082	1.46
303.457	1.62
303.832	1.54
304.207	1.37
304.582	1.41
304.957	1.42
305.332	1.46
305.707	1.49
306.082	1.49
306.456	1.62
306.831	1.46
307.206	1.43
307.58	1.45
307.955	1.38
308.33	1.43
308.704	1.4
309.079	1.43
309.453	1.67
309.828	1.47
310.202	1.53
310.576	1.39
310.951	1.56
311.325	1.5
311.699	1.48
312.073	1.43
312.447	1.41
312.821	1.43
313.196	1.58
313.57	1.38
313.944	1.39
314.317	1.39
314.691	1.62
315.065	1.52
315.439	1.64
315.813	1.56
316.187	1.46
316.56	1.69
316.934	1.61
317.308	1.5
317.681	1.52
318.055	1.54
318.428	1.49
318.802	1.52
319.175	1.52
319.549	1.49
319.922	1.4
320.295	1.45
320.669	1.66
321.042	1.5
321.415	1.68
321.788	1.55
322.162	1.43
322.535	1.42
322.908	1.56
323.281	1.54
323.654	1.56
324.027	1.43
324.4	1.63
324.773	1.68
325.145	1.56
325.518	1.51
325.891	1.59
326.264	1.71
326.636	1.53
327.009	1.43
327.382	1.38
327.754	1.5
328.127	1.33
328.499	1.46
328.872	1.38
329.244	1.49
329.616	1.48
329.989	1.46
330.361	1.52
330.733	1.6
331.106	1.44
331.478	1.53
331.85	1.4
332.222	1.43
332.594	1.46
332.966	1.54
333.338	1.98
333.71	1.5
334.082	1.59
334.454	1.42
334.826	1.44
335.197	1.63
335.569	1.46
335.941	1.41
336.312	1.46
336.684	1.5
337.056	1.39
337.427	1.6
337.799	1.54
338.17	1.6
338.542	1.48
338.913	1.69
339.284	1.49
339.656	1.55
340.027	1.52
340.398	1.66
340.769	1.46
341.141	1.64
341.512	1.47
341.883	1.63
342.254	1.52
342.625	1.59
342.996	1.45
343.367	1.54
343.738	1.39
344.108	1.49
344.479	1.52
344.85	1.34
345.221	1.47
345.591	1.32
345.962	1.44
346.333	1.36
346.703	1.25
347.074	1.38
347.444	1.33
347.815	1.44
348.185	1.33
348.556	1.38
348.926	1.38
349.296	1.37
349.666	1.4
350.037	1.19
350.407	1.22
350.777	1.33
351.147	1.35
351.517	1.32
351.887	1.33
352.257	1.42
352.627	1.24
352.997	1.36
353.367	1.4
353.737	1.43
354.106	1.32
354.476	1.31
354.846	1.33
355.216	1.45
355.585	1.41
355.955	1.31
356.324	1.31
356.694	1.23
357.063	1.25
357.433	1.18
357.802	1.26
358.171	1.27
358.541	1.15
358.91	1.24
359.279	1.26
359.648	1.09
360.017	1.15
360.387	1.16
360.756	1.09
361.125	1.09
361.494	1.14
361.863	1.05
362.231	1
362.6	0.98
362.969	0.97
363.338	0.95
363.707	1
364.075	0.96
364.444	0.91
364.813	0.92
365.181	0.87
365.55	0.87
365.918	0.87
366.287	0.88
366.655	0.82
367.024	0.86
367.392	0.81
367.76	0.79
368.128	0.78
368.497	0.81
368.865	0.75
369.233	0.76
369.601	0.71
369.969	0.71
370.337	0.74
370.705	0.71
371.073	0.69
371.441	0.71
371.809	0.69
372.177	0.66
372.544	0.66
372.912	0.64
373.28	0.65
373.647	0.65
374.015	0.65
374.383	0.63
374.75	0.63
375.118	0.61
375.485	0.61
375.853	0.63
376.22	0.58
376.587	0.58
376.955	0.6
377.322	0.58
377.689	0.58
378.056	0.55
378.423	0.58
378.79	0.59
379.157	0.58
379.524	0.56
379.891	0.57
380.258	0.54
380.625	0.57
380.992	0.55
381.359	0.56
381.726	0.56
382.092	0.53
382.459	0.56
382.826	0.56
383.192	0.55
383.559	0.55
383.925	0.55
384.292	0.55
384.658	0.54
385.025	0.54
385.391	0.57
385.757	0.57
386.123	0.55
386.49	0.54
386.856	0.54
387.222	0.54
387.588	0.55
387.954	0.58
388.32	0.55
388.686	0.55
389.052	0.54
389.418	0.57
389.784	0.55
390.15	0.54
390.515	0.53
390.881	0.55
391.247	0.55
391.613	0.56
391.978	0.55
392.344	0.55
392.709	0.54
393.075	0.56
393.44	0.54
393.806	0.54
394.171	0.55
394.536	0.54
394.902	0.53
395.267	0.52
395.632	0.52
395.997	0.52
396.362	0.52
396.727	0.54
397.092	0.54
397.457	0.51
397.822	0.53
398.187	0.51
398.552	0.51
398.917	0.47
399.282	0.5
399.646	0.5
400.011	0.52
400.376	0.48
400.74	0.49
401.105	0.48
401.47	0.49
401.834	0.48
402.199	0.47
402.563	0.47
402.927	0.47
403.292	0.49
403.656	0.46
404.02	0.46
404.384	0.46
404.749	0.46
405.113	0.45
405.477	0.46
405.841	0.43
406.205	0.43
406.569	0.42
406.933	0.42
407.296	0.43
407.66	0.43
408.024	0.42
408.388	0.43
408.752	0.42
409.115	0.41
409.479	0.42
409.842	0.39
410.206	0.39
410.569	0.41
410.933	0.4
411.296	0.39
411.66	0.41
412.023	0.39
412.386	0.41
412.749	0.37
413.113	0.37
413.476	0.36
413.839	0.37
414.202	0.38
414.565	0.36
414.928	0.37
415.291	0.36
415.654	0.35
416.017	0.36
416.38	0.36
416.742	0.35
417.105	0.34
417.468	0.35
417.83	0.36
418.193	0.36
418.556	0.35
418.918	0.34
419.281	0.35
419.643	0.35
420.005	0.34
420.368	0.36
420.73	0.34
421.092	0.34
421.455	0.34
421.817	0.33
422.179	0.33
422.541	0.34
422.903	0.34
423.265	0.33
423.627	0.33
423.989	0.32
424.351	0.32
424.713	0.31
425.075	0.31
425.436	0.31
425.798	0.29
426.16	0.32
426.521	0.32
426.883	0.33
427.245	0.3
427.606	0.29
427.967	0.3
428.329	0.3
428.69	0.32
429.052	0.32
429.413	0.32
429.774	0.3
430.135	0.3
430.497	0.3
430.858	0.3
431.219	0.29
431.58	0.3
431.941	0.29
432.302	0.3
432.663	0.3
433.024	0.3
433.384	0.29
433.745	0.28
434.106	0.3
434.467	0.28
434.827	0.31
435.188	0.28
435.548	0.29
435.909	0.29
436.269	0.3
436.63	0.27
436.99	0.3
437.351	0.29
437.711	0.29
438.071	0.29
438.431	0.29
438.792	0.28
439.152	0.27
439.512	0.27
439.872	0.29
440.232	0.29
440.592	0.28
440.952	0.27
441.312	0.27
441.671	0.26
442.031	0.26
442.391	0.27
442.751	0.27
443.11	0.26
443.47	0.25
443.83	0.27
444.189	0.25
444.549	0.27
444.908	0.26
445.267	0.26
445.627	0.25
445.986	0.23
446.345	0.24
446.705	0.24
447.064	0.25
447.423	0.26
447.782	0.24
448.141	0.24
448.5	0.24
448.859	0.24
449.218	0.24
449.577	0.24
449.936	0.26
450.295	0.25
450.653	0.24
451.012	0.24
451.371	0.24
451.729	0.24
452.088	0.25
452.447	0.24
452.805	0.24
453.163	0.25
453.522	0.24
453.88	0.23
454.239	0.23
454.597	0.22
454.955	0.22
455.313	0.22
455.671	0.22
456.029	0.21
456.388	0.21
456.746	0.21
457.104	0.21
457.461	0.21
457.819	0.21
458.177	0.2
458.535	0.2
458.893	0.2
459.25	0.19
459.608	0.2
459.966	0.19
460.323	0.18
460.681	0.18
461.038	0.19
461.396	0.18
461.753	0.18
462.111	0.18
462.468	0.18
462.825	0.17
463.182	0.18
463.54	0.17
463.897	0.17
464.254	0.18
464.611	0.17
464.968	0.17
465.325	0.17
465.682	0.17
466.039	0.17
466.395	0.16
466.752	0.16
467.109	0.16
467.466	0.16
467.822	0.17
468.179	0.16
468.535	0.16
468.892	0.15
469.248	0.15
469.605	0.16
469.961	0.15
470.318	0.17
470.674	0.15
471.03	0.15
471.386	0.16
471.743	0.15
472.099	0.15
472.455	0.15
472.811	0.14
473.167	0.15
473.523	0.14
473.879	0.13
474.235	0.13
474.59	0.13
474.946	0.13
475.302	0.13
475.657	0.13
476.013	0.13
476.369	0.12
476.724	0.13
477.08	0.12
477.435	0.12
477.791	0.13
478.146	0.13
478.501	0.13
478.857	0.13
479.212	0.12
479.567	0.12
479.922	0.11
480.277	0.11
480.632	0.11
480.987	0.12
481.342	0.11
481.697	0.11
482.052	0.11
482.407	0.11
482.762	0.1
483.116	0.11
483.471	0.1
483.826	0.1
484.18	0.1
484.535	0.1
484.89	0.1
485.244	0.1
485.598	0.1
485.953	0.1
486.307	0.1
486.661	0.11
487.016	0.09
487.37	0.1
487.724	0.09
488.078	0.1
488.432	0.1
488.786	0.1
489.14	0.09
489.494	0.09
489.848	0.09
490.202	0.09
490.556	0.09
490.91	0.09
491.263	0.08
491.617	0.09
491.971	0.09
492.324	0.09
492.678	0.09
493.031	0.09
493.385	0.09
493.738	0.09
494.091	0.09
494.445	0.09
494.798	0.08
495.151	0.08
495.504	0.08
495.857	0.08
496.21	0.08
496.564	0.08
496.916	0.09
497.269	0.07
497.622	0.08
497.975	0.07
498.328	0.08
498.681	0.08
499.033	0.07
499.386	0.08
499.739	0.08
500.091	0.08
500.444	0.08
500.796	0.08
501.149	0.07
501.501	0.08
501.854	0.08
502.206	0.08
502.558	0.08
502.91	0.07
503.263	0.08
503.615	0.07
503.967	0.07
504.319	0.08
504.671	0.07
505.023	0.07
505.375	0.07
505.726	0.07
506.078	0.08
506.43	0.07
506.782	0.07
507.133	0.07
507.485	0.08
507.837	0.08
508.188	0.07
508.54	0.07
508.891	0.08
509.243	0.07
509.594	0.08
509.945	0.07
510.296	0.07
510.648	0.07
510.999	0.07
511.35	0.07
511.701	0.07
512.052	0.08
512.403	0.07
512.754	0.07
513.105	0.06
513.456	0.07
513.807	0.07
514.157	0.07
514.508	0.08
514.859	0.07
515.209	0.06
515.56	0.07
515.91	0.06
516.261	0.07
516.611	0.07
516.962	0.07
517.312	0.06
517.662	0.07
518.013	0.08
518.363	0.07
518.713	0.07
519.063	0.07
519.413	0.08
519.763	0.07
520.113	0.07
520.463	0.07
520.813	0.08
521.163	0.07
521.512	0.07
521.862	0.07
522.212	0.07
522.562	0.07
522.911	0.07
523.261	0.07
523.61	0.07
523.96	0.07
524.309	0.07
524.658	0.07
525.008	0.07
525.357	0.06
525.706	0.07
526.056	0.08
526.405	0.07
526.754	0.07
527.103	0.07
527.452	0.07
527.801	0.07
528.15	0.08
528.499	0.07
528.847	0.07
529.196	0.08
529.545	0.07
529.893	0.08
530.242	0.07
530.591	0.08
530.939	0.08
531.288	0.08
531.636	0.08
531.985	0.07
532.333	0.07
532.681	0.08
533.029	0.08
533.378	0.08
533.726	0.08
534.074	0.08
534.422	0.07
534.77	0.08
535.118	0.08
535.466	0.08
535.814	0.07
536.162	0.08
536.509	0.08
536.857	0.07
537.205	0.08
537.552	0.08
537.9	0.08
538.248	0.07
538.595	0.07
538.943	0.07
539.29	0.08
539.637	0.07
539.985	0.07
540.332	0.07
540.679	0.08
541.026	0.07
541.373	0.08
541.721	0.07
542.068	0.07
542.415	0.07
542.762	0.07
543.108	0.06
543.455	0.06
543.802	0.06
544.149	0.06
544.496	0.06
544.842	0.06
545.189	0.06
545.535	0.06
545.882	0.06
546.228	0.06
546.575	0.06
546.921	0.06
547.267	0.06
547.614	0.07
547.96	0.07
548.306	0.06
548.652	0.06
548.998	0.07
549.344	0.06
549.69	0.06
550.036	0.07
550.382	0.07
550.728	0.06
551.074	0.06
551.42	0.07
551.765	0.07
552.111	0.07
552.457	0.07
552.802	0.07
553.148	0.06
553.493	0.06
553.839	0.07
554.184	0.07
554.529	0.06
554.875	0.07
555.22	0.07
555.565	0.06
555.91	0.06
556.255	0.07
556.6	0.07
556.945	0.06
557.29	0.06
557.635	0.07
557.98	0.07
558.325	0.07
558.67	0.07
559.014	0.07
559.359	0.07
559.704	0.07
560.048	0.06
560.393	0.07
560.737	0.07
561.082	0.08
561.426	0.06
561.77	0.07
562.115	0.06
562.459	0.06
562.803	0.06
563.147	0.06
563.491	0.07
563.835	0.07
564.179	0.07
564.523	0.07
564.867	0.07
565.211	0.06
565.555	0.07
565.899	0.07
566.242	0.06
566.586	0.06
566.93	0.07
567.273	0.07
567.617	0.07
567.96	0.07
568.304	0.07
568.647	0.06
568.99	0.07
569.334	0.08
569.677	0.07
570.02	0.07
570.363	0.07
570.706	0.07
571.049	0.06
571.392	0.07
571.735	0.06
572.078	0.07
572.421	0.07
572.764	0.08
573.106	0.07
573.449	0.07
573.792	0.07
574.134	0.07
574.477	0.07
574.819	0.07
575.162	0.07
575.504	0.06
575.847	0.07
576.189	0.07
576.531	0.06
576.873	0.07
577.215	0.08
577.558	0.07
577.9	0.06
578.242	0.07
578.584	0.06
578.926	0.07
579.267	0.07
579.609	0.06
579.951	0.06
580.293	0.07
580.634	0.07
580.976	0.07
581.318	0.07
581.659	0.06
582.001	0.07
582.342	0.07
582.683	0.07
583.025	0.06
583.366	0.06
583.707	0.07
584.049	0.06
584.39	0.07
584.731	0.06
585.072	0.06
585.413	0.07
585.754	0.07
586.095	0.07
586.435	0.07
586.776	0.07
587.117	0.06
587.458	0.07
587.798	0.06
588.139	0.06
588.48	0.06
588.82	0.06
589.161	0.07
589.501	0.06
589.841	0.06
590.182	0.06
590.522	0.07
590.862	0.06
591.202	0.07
591.542	0.06
591.882	0.06
592.222	0.07
592.562	0.07
592.902	0.06
593.242	0.06
593.582	0.07
593.922	0.06
594.261	0.06
594.601	0.06
594.941	0.06
595.28	0.07
595.62	0.06
595.959	0.06
596.299	0.06
596.638	0.06
596.977	0.07
597.317	0.07
597.656	0.07
597.995	0.06
598.334	0.08
598.673	0.06
599.012	0.07
599.351	0.07
599.69	0.07
600.029	0.07
600.368	0.08
600.707	0.07
601.046	0.07
601.384	0.07
601.723	0.07
602.061	0.06
602.4	0.08
602.738	0.07
603.077	0.07
603.415	0.07
603.754	0.07
604.092	0.07
604.43	0.06
604.768	0.07
605.107	0.07
605.445	0.06
605.783	0.07
606.121	0.06
606.459	0.07
606.796	0.07
607.134	0.06
607.472	0.06
607.81	0.07
608.148	0.06
608.485	0.07
608.823	0.06
609.16	0.06
609.498	0.06
609.835	0.06
610.173	0.06
610.51	0.06
610.847	0.07
611.185	0.07
611.522	0.07
611.859	0.07
612.196	0.07
612.533	0.07
612.87	0.08
613.207	0.08
613.544	0.08
613.881	0.08
614.217	0.08
614.554	0.07
614.891	0.08
615.228	0.07
615.564	0.07
615.901	0.08
616.237	0.08
616.574	0.08
616.91	0.09
617.246	0.08
617.583	0.08
617.919	0.08
618.255	0.09
618.591	0.08
618.927	0.08
619.263	0.08
619.599	0.08
619.935	0.08
620.271	0.07
620.607	0.08
620.943	0.08
621.279	0.08
621.614	0.08
621.95	0.08
622.286	0.08
622.621	0.07
622.957	0.08
623.292	0.07
623.627	0.07
623.963	0.07
624.298	0.08
624.633	0.07
624.968	0.07
625.304	0.07
625.639	0.06
625.974	0.07
626.309	0.06
626.644	0.07
626.979	0.08
627.313	0.07
627.648	0.07
627.983	0.07
628.318	0.06
628.652	0.06
628.987	0.06
629.321	0.07
629.656	0.06
629.99	0.06
630.325	0.07
630.659	0.06
630.993	0.07
631.327	0.06
631.662	0.06
631.996	0.06
632.33	0.06
632.664	0.06
632.998	0.06
633.332	0.06
633.666	0.06
633.999	0.06
634.333	0.06
634.667	0.06
635.001	0.06
635.334	0.06
635.668	0.06
636.001	0.06
636.335	0.06
636.668	0.07
637.001	0.06
637.335	0.06
637.668	0.06
638.001	0.06
638.334	0.05
638.668	0.05
639.001	0.06
639.334	0.05
639.667	0.06
639.999	0.06
640.332	0.06
640.665	0.05
640.998	0.06
641.331	0.06
641.663	0.05
641.996	0.06
642.328	0.06
642.661	0.07
642.993	0.05
643.326	0.06
643.658	0.05
643.99	0.05
644.323	0.05
644.655	0.06
644.987	0.06
645.319	0.06
645.651	0.06
645.983	0.05
646.315	0.05
646.647	0.06
646.979	0.06
647.31	0.06
647.642	0.06
647.974	0.06
648.305	0.06
648.637	0.06
648.968	0.06
649.3	0.06
649.631	0.06
649.963	0.06
650.294	0.07
650.625	0.06
650.957	0.07
651.288	0.06
651.619	0.06
651.95	0.07
652.281	0.07
652.612	0.06
652.943	0.07
653.274	0.07
653.604	0.06
653.935	0.06
654.266	0.06
654.596	0.06
654.927	0.06
655.258	0.07
655.588	0.07
655.918	0.06
656.249	0.05
656.579	0.06
656.909	0.06
657.24	0.06
657.57	0.06
657.9	0.06
658.23	0.06
658.56	0.07
658.89	0.07
659.22	0.06
659.55	0.06
659.88	0.07
660.209	0.07
660.539	0.07
660.869	0.07
661.198	0.07
661.528	0.06
661.857	0.07
662.187	0.08
662.516	0.07
662.846	0.06
663.175	0.07
663.504	0.07
663.833	0.07
664.163	0.07
664.492	0.06
664.821	0.07
665.15	0.06
665.479	0.07
665.807	0.06
666.136	0.07
666.465	0.06
666.794	0.07
667.122	0.06
667.451	0.06
667.78	0.06
668.108	0.07
668.437	0.06
668.765	0.07
669.093	0.06
669.422	0.07
669.75	0.06
670.078	0.07
670.406	0.06
670.734	0.06
671.062	0.07
671.39	0.06
671.718	0.06
672.046	0.06
672.374	0.06
672.702	0.06
673.029	0.05
673.357	0.07
673.685	0.07
674.012	0.06
674.34	0.06
674.667	0.07
674.995	0.07
675.322	0.07
675.649	0.06
675.977	0.07
676.304	0.07
676.631	0.06
676.958	0.07
677.285	0.06
677.612	0.06
677.939	0.07
678.266	0.07
678.593	0.06
678.92	0.07
679.246	0.06
679.573	0.06
679.9	0.06
680.226	0.06
680.553	0.06
680.879	0.06
681.206	0.06
681.532	0.06
681.858	0.06
682.184	0.06
682.511	0.06
682.837	0.05
683.163	0.07
683.489	0.07
683.815	0.06
684.141	0.06
684.467	0.06
684.793	0.05
685.118	0.06
685.444	0.06
685.77	0.06
686.095	0.06
686.421	0.06
686.746	0.06
687.072	0.06
687.397	0.05
687.723	0.07
688.048	0.07
688.373	0.06
688.698	0.06
689.023	0.07
689.349	0.06
689.674	0.07
689.999	0.06
690.323	0.06
690.648	0.06
690.973	0.05
691.298	0.06
691.623	0.06
691.947	0.06
692.272	0.06
692.596	0.06
692.921	0.06
693.245	0.06
693.57	0.07
693.894	0.07
694.218	0.07
694.543	0.06
694.867	0.06
695.191	0.05
695.515	0.06
695.839	0.06
696.163	0.06
696.487	0.06
696.811	0.06
697.135	0.06
697.458	0.06
697.782	0.06
698.106	0.06
698.429	0.07
698.753	0.06
699.076	0.06
699.4	0.06
699.723	0.06
700.046	0.06
700.37	0.05
700.693	0.06
701.016	0.05
701.339	0.06
701.662	0.06
701.985	0.07
702.308	0.06
702.631	0.06
702.954	0.06
703.277	0.07
703.599	0.06
703.922	0.05
704.245	0.06
704.567	0.06
704.89	0.05
705.212	0.05
705.535	0.05
705.857	0.05
706.179	0.05
706.502	0.05
706.824	0.04
707.146	0.05
707.468	0.05
707.79	0.05
708.112	0.06
708.434	0.06
708.756	0.06
709.078	0.05
709.399	0.05
709.721	0.05
710.043	0.05
710.364	0.06
710.686	0.06
711.007	0.06
711.329	0.06
711.65	0.05
711.972	0.06
712.293	0.06
712.614	0.06
712.935	0.06
713.256	0.06
713.577	0.07
713.898	0.06
714.219	0.05
714.54	0.05
714.861	0.05
715.182	0.05
715.503	0.05
715.823	0.05
716.144	0.05
716.464	0.04
716.785	0.05
717.105	0.04
717.426	0.05
717.746	0.05
718.066	0.04
718.387	0.04
718.707	0.04
719.027	0.06
719.347	0.04
719.667	0.04
719.987	0.04
720.307	0.04
720.627	0.05
720.947	0.04
721.266	0.04
721.586	0.04
721.906	0.05
722.225	0.04
722.545	0.05
722.864	0.04
723.184	0.06
723.503	0.04
723.823	0.05
724.142	0.04
724.461	0.04
724.78	0.05
725.099	0.04
725.418	0.04
725.737	0.05
726.056	0.05
726.375	0.05
726.694	0.04
727.013	0.05
727.331	0.04
727.65	0.04
727.969	0.05
728.287	0.05
728.606	0.05
728.924	0.04
729.242	0.05
729.561	0.05
729.879	0.04
730.197	0.05
730.515	0.04
730.834	0.05
731.152	0.05
731.47	0.05
731.788	0.05
732.105	0.04
732.423	0.05
732.741	0.05
733.059	0.04
733.376	0.05
733.694	0.05
734.012	0.05
734.329	0.06
734.647	0.04
734.964	0.05
735.281	0.05
735.599	0.05
735.916	0.05
736.233	0.05
736.55	0.05
736.867	0.05
737.184	0.05
737.501	0.04
737.818	0.05
738.135	0.05
738.452	0.05
738.768	0.05
739.085	0.05
739.402	0.03
739.718	0.05
740.035	0.05
740.351	0.05
740.668	0.06
740.984	0.04
741.3	0.05
741.617	0.04
741.933	0.05
742.249	0.05
742.565	0.05
742.881	0.06
743.197	0.05
743.513	0.04
743.829	0.05
744.144	0.04
744.46	0.04
744.776	0.05
745.091	0.04
745.407	0.04
745.722	0.04
746.038	0.04
746.353	0.03
746.669	0.05
746.984	0.03
747.299	0.04
747.614	0.05
747.93	0.04
748.245	0.04
748.56	0.03
748.875	0.04
749.189	0.04
749.504	0.04
749.819	0.05
750.134	0.05
750.448	0.04
750.763	0.04
751.078	0.04
751.392	0.04
751.707	0.05
752.021	0.05
752.335	0.05
752.65	0.05
752.964	0.05
753.278	0.05
753.592	0.05
753.906	0.05
754.22	0.05
754.534	0.04
754.848	0.05
755.162	0.05
755.476	0.05
755.789	0.05
756.103	0.05
756.417	0.05
756.73	0.05
757.044	0.05
757.357	0.05
757.671	0.05
757.984	0.05
758.297	0.05
758.61	0.06
758.924	0.06
759.237	0.05
759.55	0.05
759.863	0.05
760.176	0.05
760.488	0.05
760.801	0.04
761.114	0.05
761.427	0.05
761.739	0.05
762.052	0.04
762.365	0.05
762.677	0.05
762.99	0.04
763.302	0.04
763.614	0.05
763.926	0.05
764.239	0.05
764.551	0.04
764.863	0.04
765.175	0.05
765.487	0.05
765.799	0.04
766.111	0.04
766.423	0.04
766.734	0.05
767.046	0.04
767.358	0.04
767.669	0.05
767.981	0.04
768.292	0.04
768.604	0.05
768.915	0.04
769.226	0.04
769.537	0.02
769.849	0.04
770.16	0.04
770.471	0.03
770.782	0.04
771.093	0.04
771.404	0.03
771.715	0.04
772.025	0.03
772.336	0.04
772.647	0.03
772.957	0.04
773.268	0.04
773.578	0.03
773.889	0.04
774.199	0.05
774.51	0.04
774.82	0.04
775.13	0.04
775.44	0.04
775.75	0.04
776.06	0.05
776.37	0.03
776.68	0.05
776.99	0.04
777.3	0.04
777.61	0.05
777.92	0.04
778.229	0.04
778.539	0.04
778.848	0.04
779.158	0.05
779.467	0.05
779.777	0.04
780.086	0.05
780.395	0.04
780.704	0.05
781.013	0.03
781.323	0.03
781.632	0.04
781.941	0.04
782.249	0.04
782.558	0.03
782.867	0.05
783.176	0.03
783.485	0.03
783.793	0.04
784.102	0.04
784.41	0.03
784.719	0.04
785.027	0.03
785.335	0.03
785.644	0.04
785.952	0.04
786.26	0.04
786.568	0.03
786.876	0.03
787.184	0.04
787.492	0.04
787.8	0.04
788.108	0.04
788.416	0.03
788.723	0.04
789.031	0.03
789.338	0.03
789.646	0.03
789.953	0.05
790.261	0.05
790.568	0.04
790.876	0.04
791.183	0.04
791.49	0.04
791.797	0.04
792.104	0.04
792.411	0.05
792.718	0.04
793.025	0.04
793.332	0.04
793.639	0.05
793.945	0.05
794.252	0.05
794.559	0.05
794.865	0.05
795.172	0.05
795.478	0.04
795.784	0.04
796.091	0.05
796.397	0.06
796.703	0.05
797.009	0.06
797.315	0.05
797.622	0.05
797.927	0.04
798.233	0.05
798.539	0.06
798.845	0.06
799.151	0.06
799.456	0.05
799.762	0.05
800.068	0.05
800.373	0.06
800.679	0.05
800.984	0.05
801.289	0.05
801.595	0.06
801.9	0.05
802.205	0.05
802.51	0.05
802.815	0.06
803.12	0.05
803.425	0.05
803.73	0.04
804.035	0.05
804.339	0.04
804.644	0.04
804.949	0.04
805.253	0.04
805.558	0.05
805.862	0.04
806.167	0.04
806.471	0.04
806.775	0.05
807.08	0.05
807.384	0.04
807.688	0.04
807.992	0.04
808.296	0.04
808.6	0.05
808.904	0.05
809.207	0.05
809.511	0.05
809.815	0.05
810.119	0.05
810.422	0.06
810.726	0.06
811.029	0.06
811.332	0.05
811.636	0.07
811.939	0.06
812.242	0.06
812.546	0.06
812.849	0.06
813.152	0.07
813.455	0.07
813.758	0.07
814.06	0.05
814.363	0.06
814.666	0.06
814.969	0.06
815.271	0.06
815.574	0.05
815.877	0.05
816.179	0.05
816.481	0.05
816.784	0.06
817.086	0.05
817.388	0.04
817.69	0.04
817.993	0.05
818.295	0.04
818.597	0.05
818.899	0.04
819.2	0.04
819.502	0.04
819.804	0.04
820.106	0.04
820.407	0.03
820.709	0.04
821.01	0.04
821.312	0.04
821.613	0.03
821.915	0.03
822.216	0.03
822.517	0.02
822.818	0.03
823.119	0.03
823.42	0.03
823.721	0.03
824.022	0.02
824.323	0.03
824.624	0.03
824.925	0.04
825.226	0.04
825.526	0.03
825.827	0.03
826.127	0.03
826.428	0.03
826.728	0.03
827.028	0.03
827.329	0.03
827.629	0.03
827.929	0.03
828.229	0.04
828.529	0.04
828.829	0.04
829.129	0.03
829.429	0.03
829.729	0.03
830.029	0.03
830.328	0.03
830.628	0.02
830.927	0.01
831.227	0.03
831.526	0.03
831.826	0.03
832.125	0.03
832.424	0.02
832.724	0.03
833.023	0.03
833.322	0.03
833.621	0.02
833.92	0.02
834.219	0.02
834.518	0.02
834.816	0.01
835.115	0.02
835.414	0.01
835.712	0.01
836.011	0.01
836.309	0.01
836.608	0.01
836.906	0.01
837.205	-0.01
837.503	0.01
837.801	-0
838.099	0
838.397	-0.01
838.695	-0.01
838.993	-0
839.291	-0.01
839.589	-0.01
839.887	-0.01
840.184	-0.01
840.482	-0.01
840.78	-0
841.077	-0.01
841.375	-0.01
841.672	-0.01
841.969	-0.01
842.267	-0.01
842.564	-0.01
842.861	-0.01
843.158	-0.01
843.455	-0.03
843.752	-0.03
844.049	-0.02
844.346	-0.03
844.643	-0.04
844.94	-0.03
845.236	-0.02
845.533	-0.03
845.83	-0.03
846.126	-0.03
846.423	-0.03
846.719	-0.05
847.015	-0.04
847.312	-0.04
847.608	-0.05
847.904	-0.05
848.2	-0.05
848.496	-0.05
848.792	-0.04
849.088	-0.04
849.384	-0.04
849.68	-0.05
849.975	-0.04
850.271	-0.05
850.567	-0.05
850.862	-0.05
851.158	-0.05
851.453	-0.05
851.748	-0.06
852.044	-0.06
852.339	-0.05
852.634	-0.07
852.929	-0.05
853.224	-0.07
853.519	-0.06
853.814	-0.06
854.109	-0.07
854.404	-0.06
854.699	-0.07
854.994	-0.07
855.288	-0.06
855.583	-0.06
855.877	-0.07
856.172	-0.07
856.466	-0.08
856.76	-0.08
857.055	-0.07
857.349	-0.08
857.643	-0.1
857.937	-0.09
858.231	-0.1
858.525	-0.1
858.819	-0.1
859.113	-0.12
859.407	-0.12
859.701	-0.12
859.994	-0.11
860.288	-0.1
860.581	-0.11
860.875	-0.11
861.168	-0.11
861.462	-0.11
861.755	-0.1
862.048	-0.12
862.341	-0.11
862.634	-0.11
862.928	-0.11
863.221	-0.11
863.513	-0.11
863.806	-0.12
864.099	-0.12
864.392	-0.12
864.685	-0.11
864.977	-0.11
865.27	-0.12
865.562	-0.12
865.855	-0.12
866.147	-0.12
866.44	-0.12
866.732	-0.12
867.024	-0.11
867.316	-0.13
867.608	-0.13
867.9	-0.13
868.192	-0.13
868.484	-0.13
868.776	-0.13
869.068	-0.14
869.359	-0.12
869.651	-0.14
869.943	-0.16
870.234	-0.14
870.526	-0.15
870.817	-0.15
871.108	-0.13
871.4	-0.14
871.691	-0.15
871.982	-0.15
872.273	-0.17
872.564	-0.16
872.855	-0.15
873.146	-0.17
873.437	-0.16
873.728	-0.18
874.019	-0.16
874.309	-0.17
874.6	-0.16
874.89	-0.16
875.181	-0.17
875.471	-0.16
875.762	-0.16
876.052	-0.16
876.342	-0.15
876.632	-0.17
876.922	-0.17
877.213	-0.17
877.503	-0.19
877.792	-0.17
878.082	-0.18
878.372	-0.16
878.662	-0.19
878.952	-0.19
879.241	-0.17
879.531	-0.17
879.82	-0.17
880.11	-0.18
880.399	-0.17
880.688	-0.15
880.978	-0.15
881.267	-0.15
