Data from 12-12-AQDScycling_Absorbance__653__00653.txt Node

Date: Tue Dec 12 13:39:59 EST 2023
User: kyuminlee
Spectrometer: FLMS00943
Trigger mode: 0
Integration Time (sec): 1.000000E-1
Scans to average: 1
Electric dark correction enabled: true
Nonlinearity correction enabled: false
Boxcar width: 0
XAxis mode: Wavelengths
Number of Pixels in Spectrum: 2048
>>>>>Begin Spectral Data<<<<<
179.651	0.66
180.037	0.66
180.424	0.66
180.81	0.56
181.197	0.12
181.583	-0
181.97	-0.55
182.356	-0
182.743	-0
183.129	-0.11
183.515	0.53
183.901	-2.22
184.288	0.06
184.674	-0
185.06	-1.25
185.446	-0.35
185.832	-0.59
186.218	1.01
186.604	-0.24
186.99	-0.5
187.376	-0
187.762	0.04
188.148	0.6
188.534	-0.2
188.92	0.05
189.305	0.01
189.691	0.08
190.077	0.21
190.463	0.26
190.848	0.06
191.234	0.06
191.619	-0.01
192.005	0.03
192.391	0.13
192.776	0.09
193.161	0.12
193.547	0.19
193.932	0.03
194.318	0.13
194.703	0.03
195.088	0.04
195.473	0.23
195.859	0.15
196.244	0.15
196.629	0.34
197.014	0.27
197.399	0.13
197.784	0.13
198.169	0.16
198.554	0.29
198.939	0.21
199.324	0.11
199.709	0.05
200.094	0.14
200.478	0.01
200.863	0.23
201.248	0.1
201.633	0.2
202.017	0.1
202.402	0.03
202.787	0.25
203.171	0.06
203.556	0.21
203.94	0.19
204.325	0.27
204.709	0.19
205.093	0.09
205.478	0.11
205.862	0.06
206.246	0.13
206.631	-0.01
207.015	0.19
207.399	0.11
207.783	0.11
208.167	0.15
208.551	0.27
208.935	0.14
209.319	0.18
209.703	0.29
210.087	0.2
210.471	0.18
210.855	0.12
211.239	0.28
211.623	0.34
212.007	0.15
212.39	0.36
212.774	0.19
213.158	0.15
213.541	0.27
213.925	0.3
214.309	0.38
214.692	0.24
215.076	0.19
215.459	0.2
215.842	0.08
216.226	0.27
216.609	0.33
216.993	0.17
217.376	0.33
217.759	0.18
218.142	0.4
218.525	0.45
218.909	0.33
219.292	0.37
219.675	0.64
220.058	0.33
220.441	0.52
220.824	0.45
221.207	0.61
221.59	0.47
221.973	0.47
222.355	0.59
222.738	0.78
223.121	0.58
223.504	0.5
223.886	0.71
224.269	0.61
224.652	0.75
225.034	0.8
225.417	0.72
225.799	0.8
226.182	0.81
226.564	0.72
226.947	0.78
227.329	0.77
227.711	0.99
228.094	1.19
228.476	1.01
228.858	0.76
229.24	0.9
229.623	0.81
230.005	0.84
230.387	0.86
230.769	0.83
231.151	0.86
231.533	0.95
231.915	0.94
232.297	0.99
232.679	0.99
233.061	0.96
233.442	1.04
233.824	0.99
234.206	1.04
234.588	1.01
234.969	1.17
235.351	0.97
235.733	1.12
236.114	1.3
236.496	1.04
236.877	1.02
237.259	1.02
237.64	1.11
238.022	1.1
238.403	1.07
238.784	1.02
239.165	1.1
239.547	1.08
239.928	1.04
240.309	1.11
240.69	1.01
241.071	1.44
241.452	1.26
241.834	1.1
242.215	1.36
242.595	1.16
242.976	1.16
243.357	1.08
243.738	1.01
244.119	1.22
244.5	1.13
244.881	1.38
245.261	1.24
245.642	1.13
246.023	1.13
246.403	1.16
246.784	1.21
247.164	1.28
247.545	1.24
247.925	1.37
248.306	1.13
248.686	1.31
249.067	1.32
249.447	1.41
249.827	1.56
250.207	1.46
250.588	1.32
250.968	1.41
251.348	1.34
251.728	1.39
252.108	1.3
252.488	1.4
252.868	1.44
253.248	1.37
253.628	1.31
254.008	1.56
254.388	1.26
254.768	1.37
255.147	1.53
255.527	1.42
255.907	1.35
256.287	1.44
256.666	1.28
257.046	1.38
257.425	1.51
257.805	1.29
258.184	1.29
258.564	1.41
258.943	1.33
259.323	1.36
259.702	1.47
260.081	1.47
260.461	1.53
260.84	1.46
261.219	1.64
261.598	1.54
261.977	1.5
262.356	1.46
262.736	1.5
263.115	1.62
263.494	1.48
263.873	1.49
264.251	1.43
264.63	1.58
265.009	1.38
265.388	1.43
265.767	1.25
266.145	1.39
266.524	1.41
266.903	1.43
267.281	1.4
267.66	1.53
268.039	1.48
268.417	1.45
268.796	1.44
269.174	1.46
269.552	1.32
269.931	1.58
270.309	1.44
270.687	1.47
271.066	1.49
271.444	1.38
271.822	1.64
272.2	1.39
272.578	1.45
272.956	1.4
273.334	1.43
273.712	1.44
274.09	1.58
274.468	1.55
274.846	1.15
275.224	1.39
275.602	1.45
275.98	1.83
276.357	1.48
276.735	1.34
277.113	1.35
277.49	1.42
277.868	1.38
278.246	1.44
278.623	1.24
279.001	1.33
279.378	1.44
279.756	1.51
280.133	1.59
280.51	1.38
280.888	1.42
281.265	1.27
281.642	1.4
282.019	1.66
282.396	1.64
282.773	1.57
283.151	1.48
283.528	1.47
283.905	1.44
284.282	1.48
284.659	1.46
285.035	1.29
285.412	1.32
285.789	1.52
286.166	1.42
286.543	1.44
286.919	1.54
287.296	1.43
287.673	1.65
288.049	1.52
288.426	1.49
288.802	1.63
289.179	1.52
289.555	1.54
289.932	1.38
290.308	1.41
290.684	1.36
291.061	1.33
291.437	1.44
291.813	1.49
292.189	1.39
292.565	1.29
292.942	1.43
293.318	1.33
293.694	1.43
294.07	1.29
294.446	1.58
294.822	1.6
295.197	1.44
295.573	1.42
295.949	1.48
296.325	1.61
296.701	1.53
297.076	1.55
297.452	1.56
297.828	1.38
298.203	1.56
298.579	1.46
298.954	1.36
299.33	1.46
299.705	1.4
300.081	1.41
300.456	1.49
300.831	1.37
301.206	1.46
301.582	1.64
301.957	1.41
302.332	1.5
302.707	1.47
303.082	1.37
303.457	1.38
303.832	1.42
304.207	1.39
304.582	1.39
304.957	1.38
305.332	1.5
305.707	1.34
306.082	1.48
306.456	1.44
306.831	1.3
307.206	1.42
307.58	1.3
307.955	1.43
308.33	1.32
308.704	1.33
309.079	1.34
309.453	1.46
309.828	1.34
310.202	1.31
310.576	1.3
310.951	1.27
311.325	1.33
311.699	1.33
312.073	1.37
312.447	1.3
312.821	1.28
313.196	1.32
313.57	1.27
313.944	1.29
314.317	1.28
314.691	1.37
315.065	1.48
315.439	1.3
315.813	1.49
316.187	1.22
316.56	1.43
316.934	1.44
317.308	1.38
317.681	1.34
318.055	1.35
318.428	1.35
318.802	1.41
319.175	1.39
319.549	1.28
319.922	1.29
320.295	1.35
320.669	1.4
321.042	1.36
321.415	1.51
321.788	1.39
322.162	1.32
322.535	1.46
322.908	1.48
323.281	1.38
323.654	1.37
324.027	1.43
324.4	1.43
324.773	1.41
325.145	1.41
325.518	1.35
325.891	1.3
326.264	1.48
326.636	1.29
327.009	1.32
327.382	1.36
327.754	1.51
328.127	1.38
328.499	1.47
328.872	1.37
329.244	1.41
329.616	1.38
329.989	1.37
330.361	1.46
330.733	1.31
331.106	1.37
331.478	1.59
331.85	1.47
332.222	1.43
332.594	1.47
332.966	1.49
333.338	1.46
333.71	1.5
334.082	1.56
334.454	1.37
334.826	1.35
335.197	1.39
335.569	1.4
335.941	1.41
336.312	1.35
336.684	1.47
337.056	1.37
337.427	1.45
337.799	1.44
338.17	1.39
338.542	1.4
338.913	1.39
339.284	1.42
339.656	1.44
340.027	1.42
340.398	1.45
340.769	1.38
341.141	1.59
341.512	1.42
341.883	1.5
342.254	1.46
342.625	1.49
342.996	1.47
343.367	1.45
343.738	1.51
344.108	1.4
344.479	1.48
344.85	1.28
345.221	1.5
345.591	1.41
345.962	1.43
346.333	1.41
346.703	1.33
347.074	1.26
347.444	1.32
347.815	1.4
348.185	1.3
348.556	1.25
348.926	1.37
349.296	1.33
349.666	1.3
350.037	1.26
350.407	1.26
350.777	1.3
351.147	1.38
351.517	1.27
351.887	1.29
352.257	1.37
352.627	1.29
352.997	1.32
353.367	1.38
353.737	1.31
354.106	1.4
354.476	1.3
354.846	1.35
355.216	1.37
355.585	1.42
355.955	1.37
356.324	1.45
356.694	1.34
357.063	1.34
357.433	1.28
357.802	1.4
358.171	1.42
358.541	1.4
358.91	1.3
359.279	1.42
359.648	1.36
360.017	1.37
360.387	1.53
360.756	1.28
361.125	1.43
361.494	1.47
361.863	1.37
362.231	1.33
362.6	1.45
362.969	1.36
363.338	1.33
363.707	1.32
364.075	1.39
364.444	1.27
364.813	1.42
365.181	1.37
365.55	1.47
365.918	1.42
366.287	1.47
366.655	1.48
367.024	1.45
367.392	1.51
367.76	1.3
368.128	1.44
368.497	1.46
368.865	1.37
369.233	1.37
369.601	1.44
369.969	1.54
370.337	1.4
370.705	1.45
371.073	1.39
371.441	1.27
371.809	1.41
372.177	1.37
372.544	1.45
372.912	1.43
373.28	1.48
373.647	1.48
374.015	1.5
374.383	1.76
374.75	1.54
375.118	1.49
375.485	1.43
375.853	1.41
376.22	1.46
376.587	1.39
376.955	1.4
377.322	1.57
377.689	1.48
378.056	1.37
378.423	1.39
378.79	1.57
379.157	1.52
379.524	1.45
379.891	1.31
380.258	1.44
380.625	1.46
380.992	1.63
381.359	1.53
381.726	1.62
382.092	1.43
382.459	1.39
382.826	1.55
383.192	1.5
383.559	1.48
383.925	1.58
384.292	1.42
384.658	1.88
385.025	1.66
385.391	1.79
385.757	1.57
386.123	1.55
386.49	1.53
386.856	1.46
387.222	1.6
387.588	1.51
387.954	1.89
388.32	1.81
388.686	1.7
389.052	1.49
389.418	1.59
389.784	1.49
390.15	1.6
390.515	1.43
390.881	1.53
391.247	1.51
391.613	1.65
391.978	1.55
392.344	1.64
392.709	1.6
393.075	1.53
393.44	1.62
393.806	1.55
394.171	1.45
394.536	1.51
394.902	1.55
395.267	1.43
395.632	1.51
395.997	1.47
396.362	1.45
396.727	1.57
397.092	1.52
397.457	1.52
397.822	1.48
398.187	1.61
398.552	1.46
398.917	1.68
399.282	1.38
399.646	1.43
400.011	1.56
400.376	1.57
400.74	1.53
401.105	1.47
401.47	1.44
401.834	1.44
402.199	1.37
402.563	1.48
402.927	1.64
403.292	1.61
403.656	1.53
404.02	1.49
404.384	1.56
404.749	1.46
405.113	1.54
405.477	1.44
405.841	1.47
406.205	1.53
406.569	1.44
406.933	1.41
407.296	1.56
407.66	1.48
408.024	1.38
408.388	1.48
408.752	1.38
409.115	1.5
409.479	1.61
409.842	1.45
410.206	1.37
410.569	1.39
410.933	1.46
411.296	1.43
411.66	1.46
412.023	1.31
412.386	1.31
412.749	1.31
413.113	1.42
413.476	1.4
413.839	1.36
414.202	1.37
414.565	1.32
414.928	1.24
415.291	1.29
415.654	1.32
416.017	1.46
416.38	1.25
416.742	1.27
417.105	1.33
417.468	1.27
417.83	1.32
418.193	1.37
418.556	1.34
418.918	1.3
419.281	1.29
419.643	1.31
420.005	1.4
420.368	1.28
420.73	1.24
421.092	1.37
421.455	1.3
421.817	1.22
422.179	1.24
422.541	1.29
422.903	1.43
423.265	1.33
423.627	1.31
423.989	1.24
424.351	1.23
424.713	1.29
425.075	1.22
425.436	1.2
425.798	1.2
426.16	1.28
426.521	1.25
426.883	1.28
427.245	1.28
427.606	1.27
427.967	1.18
428.329	1.23
428.69	1.29
429.052	1.2
429.413	1.27
429.774	1.24
430.135	1.28
430.497	1.33
430.858	1.21
431.219	1.24
431.58	1.19
431.941	1.29
432.302	1.15
432.663	1.22
433.024	1.25
433.384	1.2
433.745	1.22
434.106	1.31
434.467	1.19
434.827	1.2
435.188	1.16
435.548	1.2
435.909	1.18
436.269	1.21
436.63	1.15
436.99	1.17
437.351	1.1
437.711	1.15
438.071	1.14
438.431	1.12
438.792	1.17
439.152	1.11
439.512	1.13
439.872	1.09
440.232	1.19
440.592	1.15
440.952	1.13
441.312	1.09
441.671	1.12
442.031	1.11
442.391	1.07
442.751	1.08
443.11	1.05
443.47	1.06
443.83	1.06
444.189	1.03
444.549	1.04
444.908	1.03
445.267	1.04
445.627	1.03
445.986	1.04
446.345	0.99
446.705	1.01
447.064	1.04
447.423	1
447.782	0.97
448.141	0.99
448.5	0.95
448.859	0.96
449.218	0.95
449.577	0.97
449.936	0.96
450.295	0.97
450.653	0.96
451.012	0.94
451.371	0.95
451.729	0.93
452.088	0.95
452.447	0.93
452.805	0.92
453.163	0.91
453.522	0.9
453.88	0.9
454.239	0.9
454.597	0.86
454.955	0.85
455.313	0.86
455.671	0.86
456.029	0.84
456.388	0.84
456.746	0.81
457.104	0.81
457.461	0.8
457.819	0.8
458.177	0.79
458.535	0.78
458.893	0.77
459.25	0.78
459.608	0.76
459.966	0.75
460.323	0.74
460.681	0.71
461.038	0.71
461.396	0.7
461.753	0.69
462.111	0.71
462.468	0.68
462.825	0.68
463.182	0.68
463.54	0.66
463.897	0.67
464.254	0.65
464.611	0.65
464.968	0.63
465.325	0.63
465.682	0.62
466.039	0.61
466.395	0.6
466.752	0.6
467.109	0.59
467.466	0.59
467.822	0.58
468.179	0.56
468.535	0.56
468.892	0.54
469.248	0.54
469.605	0.53
469.961	0.53
470.318	0.54
470.674	0.52
471.03	0.51
471.386	0.51
471.743	0.5
472.099	0.49
472.455	0.48
472.811	0.48
473.167	0.47
473.523	0.46
473.879	0.47
474.235	0.46
474.59	0.44
474.946	0.44
475.302	0.44
475.657	0.42
476.013	0.41
476.369	0.41
476.724	0.4
477.08	0.4
477.435	0.4
477.791	0.39
478.146	0.39
478.501	0.39
478.857	0.38
479.212	0.37
479.567	0.36
479.922	0.35
480.277	0.36
480.632	0.35
480.987	0.35
481.342	0.34
481.697	0.33
482.052	0.34
482.407	0.33
482.762	0.33
483.116	0.32
483.471	0.31
483.826	0.31
484.18	0.31
484.535	0.3
484.89	0.3
485.244	0.29
485.598	0.29
485.953	0.29
486.307	0.29
486.661	0.29
487.016	0.28
487.37	0.28
487.724	0.27
488.078	0.27
488.432	0.27
488.786	0.26
489.14	0.26
489.494	0.25
489.848	0.26
490.202	0.25
490.556	0.25
490.91	0.25
491.263	0.24
491.617	0.24
491.971	0.24
492.324	0.24
492.678	0.24
493.031	0.24
493.385	0.23
493.738	0.23
494.091	0.23
494.445	0.23
494.798	0.22
495.151	0.22
495.504	0.22
495.857	0.22
496.21	0.22
496.564	0.22
496.916	0.22
497.269	0.2
497.622	0.21
497.975	0.2
498.328	0.21
498.681	0.2
499.033	0.2
499.386	0.2
499.739	0.19
500.091	0.19
500.444	0.2
500.796	0.19
501.149	0.19
501.501	0.2
501.854	0.19
502.206	0.19
502.558	0.2
502.91	0.19
503.263	0.19
503.615	0.19
503.967	0.19
504.319	0.19
504.671	0.19
505.023	0.19
505.375	0.19
505.726	0.19
506.078	0.18
506.43	0.18
506.782	0.18
507.133	0.18
507.485	0.19
507.837	0.19
508.188	0.18
508.54	0.18
508.891	0.19
509.243	0.18
509.594	0.18
509.945	0.18
510.296	0.18
510.648	0.17
510.999	0.18
511.35	0.18
511.701	0.18
512.052	0.18
512.403	0.19
512.754	0.18
513.105	0.18
513.456	0.17
513.807	0.17
514.157	0.18
514.508	0.17
514.859	0.16
515.209	0.17
515.56	0.18
515.91	0.17
516.261	0.18
516.611	0.17
516.962	0.17
517.312	0.18
517.662	0.18
518.013	0.18
518.363	0.18
518.713	0.18
519.063	0.18
519.413	0.18
519.763	0.17
520.113	0.18
520.463	0.18
520.813	0.18
521.163	0.18
521.512	0.17
521.862	0.18
522.212	0.17
522.562	0.17
522.911	0.18
523.261	0.17
523.61	0.18
523.96	0.18
524.309	0.18
524.658	0.18
525.008	0.18
525.357	0.17
525.706	0.18
526.056	0.17
526.405	0.18
526.754	0.17
527.103	0.18
527.452	0.18
527.801	0.17
528.15	0.18
528.499	0.18
528.847	0.18
529.196	0.18
529.545	0.18
529.893	0.19
530.242	0.18
530.591	0.19
530.939	0.19
531.288	0.19
531.636	0.19
531.985	0.19
532.333	0.19
532.681	0.19
533.029	0.19
533.378	0.18
533.726	0.19
534.074	0.19
534.422	0.19
534.77	0.19
535.118	0.19
535.466	0.18
535.814	0.19
536.162	0.19
536.509	0.19
536.857	0.18
537.205	0.19
537.552	0.19
537.9	0.19
538.248	0.19
538.595	0.19
538.943	0.19
539.29	0.18
539.637	0.19
539.985	0.19
540.332	0.19
540.679	0.19
541.026	0.18
541.373	0.19
541.721	0.19
542.068	0.19
542.415	0.18
542.762	0.18
543.108	0.18
543.455	0.18
543.802	0.18
544.149	0.18
544.496	0.18
544.842	0.18
545.189	0.17
545.535	0.18
545.882	0.19
546.228	0.17
546.575	0.17
546.921	0.17
547.267	0.17
547.614	0.18
547.96	0.18
548.306	0.17
548.652	0.18
548.998	0.18
549.344	0.18
549.69	0.18
550.036	0.18
550.382	0.18
550.728	0.18
551.074	0.18
551.42	0.19
551.765	0.19
552.111	0.19
552.457	0.19
552.802	0.18
553.148	0.19
553.493	0.18
553.839	0.19
554.184	0.19
554.529	0.18
554.875	0.19
555.22	0.19
555.565	0.19
555.91	0.19
556.255	0.19
556.6	0.19
556.945	0.18
557.29	0.19
557.635	0.19
557.98	0.19
558.325	0.19
558.67	0.19
559.014	0.18
559.359	0.19
559.704	0.19
560.048	0.18
560.393	0.18
560.737	0.17
561.082	0.18
561.426	0.18
561.77	0.19
562.115	0.19
562.459	0.19
562.803	0.18
563.147	0.19
563.491	0.19
563.835	0.21
564.179	0.19
564.523	0.19
564.867	0.19
565.211	0.19
565.555	0.19
565.899	0.2
566.242	0.19
566.586	0.18
566.93	0.18
567.273	0.2
567.617	0.19
567.96	0.2
568.304	0.19
568.647	0.19
568.99	0.19
569.334	0.2
569.677	0.19
570.02	0.19
570.363	0.19
570.706	0.19
571.049	0.19
571.392	0.19
571.735	0.19
572.078	0.19
572.421	0.21
572.764	0.19
573.106	0.19
573.449	0.18
573.792	0.2
574.134	0.19
574.477	0.19
574.819	0.19
575.162	0.18
575.504	0.18
575.847	0.19
576.189	0.19
576.531	0.19
576.873	0.19
577.215	0.19
577.558	0.19
577.9	0.19
578.242	0.19
578.584	0.2
578.926	0.18
579.267	0.19
579.609	0.19
579.951	0.19
580.293	0.19
580.634	0.19
580.976	0.2
581.318	0.19
581.659	0.18
582.001	0.19
582.342	0.19
582.683	0.19
583.025	0.18
583.366	0.18
583.707	0.19
584.049	0.18
584.39	0.19
584.731	0.18
585.072	0.18
585.413	0.19
585.754	0.19
586.095	0.19
586.435	0.19
586.776	0.18
587.117	0.18
587.458	0.18
587.798	0.19
588.139	0.19
588.48	0.18
588.82	0.19
589.161	0.18
589.501	0.18
589.841	0.19
590.182	0.18
590.522	0.18
590.862	0.18
591.202	0.18
591.542	0.18
591.882	0.18
592.222	0.18
592.562	0.18
592.902	0.18
593.242	0.18
593.582	0.19
593.922	0.18
594.261	0.18
594.601	0.18
594.941	0.18
595.28	0.18
595.62	0.19
595.959	0.18
596.299	0.18
596.638	0.19
596.977	0.18
597.317	0.19
597.656	0.2
597.995	0.19
598.334	0.2
598.673	0.19
599.012	0.19
599.351	0.19
599.69	0.19
600.029	0.19
600.368	0.19
600.707	0.2
601.046	0.19
601.384	0.19
601.723	0.19
602.061	0.19
602.4	0.19
602.738	0.2
603.077	0.19
603.415	0.18
603.754	0.19
604.092	0.19
604.43	0.18
604.768	0.19
605.107	0.19
605.445	0.18
605.783	0.19
606.121	0.18
606.459	0.18
606.796	0.19
607.134	0.17
607.472	0.18
607.81	0.19
608.148	0.18
608.485	0.18
608.823	0.18
609.16	0.18
609.498	0.18
609.835	0.18
610.173	0.18
610.51	0.18
610.847	0.18
611.185	0.18
611.522	0.19
611.859	0.19
612.196	0.18
612.533	0.19
612.87	0.19
613.207	0.19
613.544	0.18
613.881	0.19
614.217	0.19
614.554	0.19
614.891	0.19
615.228	0.19
615.564	0.19
615.901	0.19
616.237	0.19
616.574	0.19
616.91	0.2
617.246	0.19
617.583	0.19
617.919	0.19
618.255	0.18
618.591	0.19
618.927	0.19
619.263	0.19
619.599	0.19
619.935	0.19
620.271	0.19
620.607	0.18
620.943	0.18
621.279	0.19
621.614	0.18
621.95	0.19
622.286	0.18
622.621	0.18
622.957	0.18
623.292	0.18
623.627	0.18
623.963	0.18
624.298	0.19
624.633	0.18
624.968	0.17
625.304	0.18
625.639	0.19
625.974	0.17
626.309	0.17
626.644	0.17
626.979	0.18
627.313	0.18
627.648	0.17
627.983	0.18
628.318	0.17
628.652	0.17
628.987	0.18
629.321	0.17
629.656	0.17
629.99	0.16
630.325	0.17
630.659	0.16
630.993	0.17
631.327	0.17
631.662	0.15
631.996	0.16
632.33	0.16
632.664	0.16
632.998	0.16
633.332	0.16
633.666	0.16
633.999	0.16
634.333	0.16
634.667	0.16
635.001	0.16
635.334	0.16
635.668	0.16
636.001	0.16
636.335	0.16
636.668	0.17
637.001	0.15
637.335	0.16
637.668	0.16
638.001	0.16
638.334	0.16
638.668	0.16
639.001	0.16
639.334	0.16
639.667	0.16
639.999	0.16
640.332	0.15
640.665	0.16
640.998	0.16
641.331	0.16
641.663	0.15
641.996	0.16
642.328	0.16
642.661	0.16
642.993	0.15
643.326	0.16
643.658	0.16
643.99	0.15
644.323	0.15
644.655	0.16
644.987	0.16
645.319	0.16
645.651	0.15
645.983	0.16
646.315	0.15
646.647	0.16
646.979	0.16
647.31	0.16
647.642	0.16
647.974	0.15
648.305	0.16
648.637	0.15
648.968	0.16
649.3	0.15
649.631	0.16
649.963	0.15
650.294	0.16
650.625	0.15
650.957	0.16
651.288	0.16
651.619	0.16
651.95	0.16
652.281	0.15
652.612	0.16
652.943	0.16
653.274	0.17
653.604	0.16
653.935	0.16
654.266	0.16
654.596	0.15
654.927	0.15
655.258	0.15
655.588	0.15
655.918	0.15
656.249	0.13
656.579	0.15
656.909	0.14
657.24	0.15
657.57	0.15
657.9	0.15
658.23	0.15
658.56	0.15
658.89	0.15
659.22	0.14
659.55	0.15
659.88	0.15
660.209	0.15
660.539	0.16
660.869	0.15
661.198	0.15
661.528	0.15
661.857	0.15
662.187	0.15
662.516	0.15
662.846	0.14
663.175	0.14
663.504	0.14
663.833	0.14
664.163	0.15
664.492	0.14
664.821	0.14
665.15	0.14
665.479	0.14
665.807	0.14
666.136	0.14
666.465	0.15
666.794	0.14
667.122	0.15
667.451	0.14
667.78	0.15
668.108	0.15
668.437	0.14
668.765	0.14
669.093	0.15
669.422	0.15
669.75	0.15
670.078	0.15
670.406	0.15
670.734	0.15
671.062	0.14
671.39	0.14
671.718	0.15
672.046	0.14
672.374	0.13
672.702	0.13
673.029	0.13
673.357	0.14
673.685	0.14
674.012	0.14
674.34	0.13
674.667	0.14
674.995	0.14
675.322	0.14
675.649	0.13
675.977	0.14
676.304	0.13
676.631	0.13
676.958	0.14
677.285	0.13
677.612	0.13
677.939	0.13
678.266	0.14
678.593	0.13
678.92	0.14
679.246	0.13
679.573	0.13
679.9	0.13
680.226	0.13
680.553	0.12
680.879	0.13
681.206	0.13
681.532	0.13
681.858	0.13
682.184	0.13
682.511	0.14
682.837	0.13
683.163	0.13
683.489	0.13
683.815	0.13
684.141	0.13
684.467	0.13
684.793	0.12
685.118	0.13
685.444	0.13
685.77	0.13
686.095	0.13
686.421	0.13
686.746	0.13
687.072	0.13
687.397	0.12
687.723	0.14
688.048	0.12
688.373	0.13
688.698	0.13
689.023	0.12
689.349	0.12
689.674	0.13
689.999	0.12
690.323	0.12
690.648	0.11
690.973	0.12
691.298	0.12
691.623	0.12
691.947	0.12
692.272	0.12
692.596	0.12
692.921	0.12
693.245	0.12
693.57	0.12
693.894	0.12
694.218	0.13
694.543	0.12
694.867	0.12
695.191	0.12
695.515	0.12
695.839	0.12
696.163	0.13
696.487	0.13
696.811	0.12
697.135	0.12
697.458	0.13
697.782	0.12
698.106	0.12
698.429	0.13
698.753	0.11
699.076	0.12
699.4	0.12
699.723	0.12
700.046	0.11
700.37	0.12
700.693	0.12
701.016	0.11
701.339	0.12
701.662	0.12
701.985	0.12
702.308	0.11
702.631	0.12
702.954	0.12
703.277	0.12
703.599	0.11
703.922	0.11
704.245	0.11
704.567	0.1
704.89	0.1
705.212	0.12
705.535	0.11
705.857	0.1
706.179	0.1
706.502	0.1
706.824	0.11
707.146	0.1
707.468	0.11
707.79	0.11
708.112	0.11
708.434	0.11
708.756	0.11
709.078	0.11
709.399	0.11
709.721	0.1
710.043	0.11
710.364	0.11
710.686	0.11
711.007	0.11
711.329	0.12
711.65	0.12
711.972	0.11
712.293	0.11
712.614	0.11
712.935	0.11
713.256	0.11
713.577	0.11
713.898	0.1
714.219	0.11
714.54	0.11
714.861	0.1
715.182	0.1
715.503	0.1
715.823	0.1
716.144	0.09
716.464	0.09
716.785	0.1
717.105	0.09
717.426	0.1
717.746	0.1
718.066	0.09
718.387	0.09
718.707	0.09
719.027	0.1
719.347	0.09
719.667	0.1
719.987	0.09
720.307	0.09
720.627	0.09
720.947	0.09
721.266	0.09
721.586	0.09
721.906	0.1
722.225	0.09
722.545	0.09
722.864	0.09
723.184	0.09
723.503	0.09
723.823	0.1
724.142	0.09
724.461	0.09
724.78	0.1
725.099	0.1
725.418	0.09
725.737	0.08
726.056	0.1
726.375	0.09
726.694	0.09
727.013	0.09
727.331	0.08
727.65	0.09
727.969	0.09
728.287	0.09
728.606	0.09
728.924	0.09
729.242	0.09
729.561	0.09
729.879	0.1
730.197	0.09
730.515	0.08
730.834	0.09
731.152	0.09
731.47	0.09
731.788	0.09
732.105	0.09
732.423	0.09
732.741	0.09
733.059	0.09
733.376	0.1
733.694	0.09
734.012	0.09
734.329	0.1
734.647	0.09
734.964	0.1
735.281	0.1
735.599	0.09
735.916	0.09
736.233	0.09
736.55	0.1
736.867	0.09
737.184	0.1
737.501	0.09
737.818	0.09
738.135	0.09
738.452	0.08
738.768	0.09
739.085	0.08
739.402	0.07
739.718	0.09
740.035	0.08
740.351	0.09
740.668	0.09
740.984	0.08
741.3	0.08
741.617	0.09
741.933	0.09
742.249	0.09
742.565	0.09
742.881	0.09
743.197	0.09
743.513	0.08
743.829	0.08
744.144	0.08
744.46	0.08
744.776	0.09
745.091	0.08
745.407	0.08
745.722	0.07
746.038	0.07
746.353	0.07
746.669	0.08
746.984	0.07
747.299	0.08
747.614	0.07
747.93	0.08
748.245	0.08
748.56	0.06
748.875	0.07
749.189	0.06
749.504	0.07
749.819	0.07
750.134	0.07
750.448	0.07
750.763	0.07
751.078	0.07
751.392	0.07
751.707	0.08
752.021	0.09
752.335	0.08
752.65	0.08
752.964	0.08
753.278	0.08
753.592	0.08
753.906	0.07
754.22	0.08
754.534	0.08
754.848	0.08
755.162	0.08
755.476	0.08
755.789	0.08
756.103	0.08
756.417	0.08
756.73	0.08
757.044	0.08
757.357	0.08
757.671	0.08
757.984	0.08
758.297	0.08
758.61	0.08
758.924	0.08
759.237	0.07
759.55	0.08
759.863	0.08
760.176	0.07
760.488	0.08
760.801	0.07
761.114	0.07
761.427	0.06
761.739	0.08
762.052	0.07
762.365	0.07
762.677	0.07
762.99	0.06
763.302	0.07
763.614	0.07
763.926	0.08
764.239	0.07
764.551	0.06
764.863	0.07
765.175	0.08
765.487	0.07
765.799	0.07
766.111	0.06
766.423	0.07
766.734	0.07
767.046	0.06
767.358	0.07
767.669	0.07
767.981	0.07
768.292	0.07
768.604	0.07
768.915	0.06
769.226	0.07
769.537	0.06
769.849	0.07
770.16	0.06
770.471	0.06
770.782	0.06
771.093	0.07
771.404	0.05
771.715	0.06
772.025	0.06
772.336	0.06
772.647	0.05
772.957	0.07
773.268	0.07
773.578	0.06
773.889	0.07
774.199	0.07
774.51	0.07
774.82	0.07
775.13	0.08
775.44	0.07
775.75	0.07
776.06	0.08
776.37	0.07
776.68	0.08
776.99	0.07
777.3	0.07
777.61	0.08
777.92	0.07
778.229	0.07
778.539	0.06
778.848	0.07
779.158	0.07
779.467	0.07
779.777	0.06
780.086	0.07
780.395	0.06
780.704	0.06
781.013	0.06
781.323	0.05
781.632	0.06
781.941	0.06
782.249	0.06
782.558	0.06
782.867	0.06
783.176	0.06
783.485	0.06
783.793	0.06
784.102	0.06
784.41	0.06
784.719	0.05
785.027	0.06
785.335	0.06
785.644	0.06
785.952	0.06
786.26	0.06
786.568	0.05
786.876	0.05
787.184	0.06
787.492	0.06
787.8	0.05
788.108	0.06
788.416	0.06
788.723	0.06
789.031	0.06
789.338	0.06
789.646	0.06
789.953	0.06
790.261	0.06
790.568	0.06
790.876	0.06
791.183	0.06
791.49	0.05
791.797	0.06
792.104	0.05
792.411	0.07
792.718	0.05
793.025	0.06
793.332	0.06
793.639	0.07
793.945	0.07
794.252	0.06
794.559	0.06
794.865	0.07
795.172	0.07
795.478	0.06
795.784	0.07
796.091	0.06
796.397	0.07
796.703	0.07
797.009	0.07
797.315	0.07
797.622	0.07
797.927	0.06
798.233	0.07
798.539	0.07
798.845	0.07
799.151	0.07
799.456	0.07
799.762	0.06
800.068	0.08
800.373	0.08
800.679	0.07
800.984	0.07
801.289	0.06
801.595	0.07
801.9	0.06
802.205	0.06
802.51	0.07
802.815	0.07
803.12	0.07
803.425	0.06
803.73	0.07
804.035	0.06
804.339	0.07
804.644	0.06
804.949	0.07
805.253	0.07
805.558	0.06
805.862	0.06
806.167	0.06
806.471	0.05
806.775	0.06
807.08	0.07
807.384	0.06
807.688	0.06
807.992	0.06
808.296	0.06
808.6	0.06
808.904	0.07
809.207	0.06
809.511	0.07
809.815	0.07
810.119	0.06
810.422	0.06
810.726	0.07
811.029	0.07
811.332	0.07
811.636	0.08
811.939	0.07
812.242	0.07
812.546	0.07
812.849	0.07
813.152	0.08
813.455	0.08
813.758	0.08
814.06	0.07
814.363	0.07
814.666	0.08
814.969	0.08
815.271	0.07
815.574	0.07
815.877	0.07
816.179	0.07
816.481	0.07
816.784	0.07
817.086	0.07
817.388	0.06
817.69	0.06
817.993	0.06
818.295	0.05
818.597	0.06
818.899	0.05
819.2	0.05
819.502	0.05
819.804	0.05
820.106	0.05
820.407	0.04
820.709	0.05
821.01	0.05
821.312	0.06
821.613	0.04
821.915	0.05
822.216	0.05
822.517	0.04
822.818	0.05
823.119	0.05
823.42	0.05
823.721	0.04
824.022	0.04
824.323	0.04
824.624	0.04
824.925	0.05
825.226	0.05
825.526	0.04
825.827	0.05
826.127	0.04
826.428	0.05
826.728	0.04
827.028	0.04
827.329	0.04
827.629	0.03
827.929	0.05
828.229	0.04
828.529	0.04
828.829	0.04
829.129	0.05
829.429	0.04
829.729	0.04
830.029	0.04
830.328	0.04
830.628	0.04
830.927	0.03
831.227	0.04
831.526	0.04
831.826	0.04
832.125	0.04
832.424	0.03
832.724	0.04
833.023	0.04
833.322	0.04
833.621	0.04
833.92	0.03
834.219	0.03
834.518	0.03
834.816	0.02
835.115	0.03
835.414	0.03
835.712	0.03
836.011	0.03
836.309	0.02
836.608	0.02
836.906	0.01
837.205	0.01
837.503	0.01
837.801	0.02
838.099	0.01
838.397	-0
838.695	0.01
838.993	0
839.291	-0
839.589	-0
839.887	-0
840.184	-0.01
840.482	-0
840.78	0
841.077	-0
841.375	-0.01
841.672	-0
841.969	-0.01
842.267	-0.01
842.564	-0.01
842.861	0
843.158	-0.01
843.455	-0.02
843.752	-0.02
844.049	-0.01
844.346	-0.01
844.643	-0.02
844.94	-0.02
845.236	-0
845.533	-0.01
845.83	-0.02
846.126	-0.02
846.423	-0.02
846.719	-0.03
847.015	-0.03
847.312	-0.03
847.608	-0.02
847.904	-0.03
848.2	-0.03
848.496	-0.03
848.792	-0.03
849.088	-0.02
849.384	-0.03
849.68	-0.04
849.975	-0.03
850.271	-0.04
850.567	-0.04
850.862	-0.04
851.158	-0.03
851.453	-0.04
851.748	-0.05
852.044	-0.04
852.339	-0.04
852.634	-0.05
852.929	-0.05
853.224	-0.05
853.519	-0.06
853.814	-0.04
854.109	-0.05
854.404	-0.05
854.699	-0.05
854.994	-0.05
855.288	-0.04
855.583	-0.05
855.877	-0.06
856.172	-0.06
856.466	-0.06
856.76	-0.06
857.055	-0.06
857.349	-0.07
857.643	-0.07
857.937	-0.08
858.231	-0.08
858.525	-0.09
858.819	-0.09
859.113	-0.1
859.407	-0.1
859.701	-0.09
859.994	-0.1
860.288	-0.09
860.581	-0.1
860.875	-0.1
861.168	-0.1
861.462	-0.1
861.755	-0.1
862.048	-0.1
862.341	-0.1
862.634	-0.1
862.928	-0.1
863.221	-0.1
863.513	-0.12
863.806	-0.1
864.099	-0.11
864.392	-0.1
864.685	-0.11
864.977	-0.1
865.27	-0.12
865.562	-0.11
865.855	-0.11
866.147	-0.11
866.44	-0.11
866.732	-0.12
867.024	-0.12
867.316	-0.12
867.608	-0.12
867.9	-0.12
868.192	-0.12
868.484	-0.11
868.776	-0.12
869.068	-0.13
869.359	-0.12
869.651	-0.12
869.943	-0.14
870.234	-0.14
870.526	-0.14
870.817	-0.14
871.108	-0.13
871.4	-0.13
871.691	-0.14
871.982	-0.15
872.273	-0.16
872.564	-0.15
872.855	-0.15
873.146	-0.15
873.437	-0.16
873.728	-0.16
874.019	-0.15
874.309	-0.15
874.6	-0.16
874.89	-0.16
875.181	-0.17
875.471	-0.15
875.762	-0.16
876.052	-0.16
876.342	-0.15
876.632	-0.16
876.922	-0.16
877.213	-0.16
877.503	-0.18
877.792	-0.16
878.082	-0.16
878.372	-0.16
878.662	-0.18
878.952	-0.17
879.241	-0.16
879.531	-0.16
879.82	-0.16
880.11	-0.16
880.399	-0.15
880.688	-0.15
880.978	-0.15
881.267	-0.15
