Data from 12-12-AQDScycling_Absorbance__359__00359.txt Node

Date: Tue Dec 12 12:26:29 EST 2023
User: kyuminlee
Spectrometer: FLMS00943
Trigger mode: 0
Integration Time (sec): 1.000000E-1
Scans to average: 1
Electric dark correction enabled: true
Nonlinearity correction enabled: false
Boxcar width: 0
XAxis mode: Wavelengths
Number of Pixels in Spectrum: 2048
>>>>>Begin Spectral Data<<<<<
179.651	0.67
180.037	0.67
180.424	0.67
180.81	0.03
181.197	0.21
181.583	-0.34
181.97	-0.25
182.356	-0
182.743	-0
183.129	0.06
183.515	0.45
183.901	-0.6
184.288	0.23
184.674	0.66
185.06	-0.9
185.446	-0
185.832	-1.23
186.218	-0
186.604	-0
186.99	-0
187.376	-0
187.762	0.25
188.148	0.94
188.534	-0.34
188.92	0.15
189.305	0.07
189.691	0.22
190.077	0.18
190.463	0.23
190.848	0.05
191.234	0.03
191.619	0.04
192.005	-0.04
192.391	0.11
192.776	0.08
193.161	0.21
193.547	0.23
193.932	0.16
194.318	0.07
194.703	0.14
195.088	0.12
195.473	0.11
195.859	0.15
196.244	0.09
196.629	-0.03
197.014	0.13
197.399	0.23
197.784	0.27
198.169	0.09
198.554	0.31
198.939	0.12
199.324	0.23
199.709	0.01
200.094	0.13
200.478	0.06
200.863	0.31
201.248	0.09
201.633	0.16
202.017	0.14
202.402	0.18
202.787	0.12
203.171	0.13
203.556	0.08
203.94	0.23
204.325	0.2
204.709	0.2
205.093	0.09
205.478	0.01
205.862	0.07
206.246	0.14
206.631	0.19
207.015	0.12
207.399	0.17
207.783	0.17
208.167	0.11
208.551	0.26
208.935	0.14
209.319	0.07
209.703	0.12
210.087	0.13
210.471	0.13
210.855	0.15
211.239	0.18
211.623	0.31
212.007	0.33
212.39	0.32
212.774	0.19
213.158	0.07
213.541	0.39
213.925	0.21
214.309	0.17
214.692	0.37
215.076	0.23
215.459	0.23
215.842	0.21
216.226	0.29
216.609	0.22
216.993	0.1
217.376	0.47
217.759	0.33
218.142	0.32
218.525	0.55
218.909	0.29
219.292	0.28
219.675	0.31
220.058	0.46
220.441	0.53
220.824	0.38
221.207	0.5
221.59	0.5
221.973	0.51
222.355	0.51
222.738	0.73
223.121	0.57
223.504	0.54
223.886	0.74
224.269	0.59
224.652	0.61
225.034	0.68
225.417	0.71
225.799	0.82
226.182	0.76
226.564	0.87
226.947	0.73
227.329	0.81
227.711	0.97
228.094	1.17
228.476	0.87
228.858	0.79
229.24	0.87
229.623	0.78
230.005	0.9
230.387	0.8
230.769	0.8
231.151	0.97
231.533	0.9
231.915	0.95
232.297	1
232.679	0.96
233.061	0.94
233.442	0.99
233.824	0.95
234.206	1.03
234.588	0.97
234.969	1.18
235.351	1
235.733	1.15
236.114	1.28
236.496	1.02
236.877	1.01
237.259	1.01
237.64	1.04
238.022	1.02
238.403	0.94
238.784	0.98
239.165	0.98
239.547	1.1
239.928	1.02
240.309	0.97
240.69	0.99
241.071	1
241.452	1.14
241.834	1.07
242.215	1.06
242.595	1.07
242.976	1.21
243.357	1.04
243.738	1.04
244.119	1.33
244.5	1.19
244.881	1.24
245.261	1.14
245.642	1.15
246.023	1.08
246.403	1.16
246.784	1.32
247.164	1.19
247.545	1.17
247.925	1.35
248.306	1.14
248.686	1.26
249.067	1.24
249.447	1.49
249.827	1.64
250.207	1.28
250.588	1.21
250.968	1.45
251.348	1.32
251.728	1.45
252.108	1.28
252.488	1.27
252.868	1.33
253.248	1.33
253.628	1.29
254.008	1.47
254.388	1.27
254.768	1.27
255.147	1.37
255.527	1.57
255.907	1.37
256.287	1.27
256.666	1.52
257.046	1.62
257.425	1.54
257.805	1.26
258.184	1.42
258.564	1.36
258.943	1.4
259.323	1.37
259.702	1.42
260.081	1.49
260.461	1.42
260.84	1.4
261.219	1.53
261.598	1.43
261.977	1.35
262.356	1.41
262.736	1.45
263.115	1.46
263.494	1.41
263.873	1.57
264.251	1.35
264.63	1.45
265.009	1.52
265.388	1.43
265.767	1.42
266.145	1.38
266.524	1.4
266.903	1.4
267.281	1.42
267.66	1.45
268.039	1.49
268.417	1.34
268.796	1.36
269.174	1.46
269.552	1.37
269.931	1.42
270.309	1.28
270.687	1.63
271.066	1.7
271.444	1.33
271.822	1.47
272.2	1.41
272.578	1.34
272.956	1.39
273.334	1.35
273.712	1.4
274.09	1.35
274.468	1.36
274.846	1.34
275.224	1.39
275.602	1.41
275.98	1.45
276.357	1.34
276.735	1.44
277.113	1.46
277.49	1.42
277.868	1.29
278.246	1.42
278.623	1.36
279.001	1.25
279.378	1.32
279.756	1.4
280.133	1.63
280.51	1.34
280.888	1.52
281.265	1.31
281.642	1.42
282.019	1.58
282.396	1.52
282.773	1.47
283.151	1.76
283.528	1.4
283.905	1.42
284.282	1.7
284.659	1.49
285.035	1.35
285.412	1.27
285.789	1.4
286.166	1.39
286.543	1.43
286.919	1.41
287.296	1.53
287.673	1.79
288.049	1.48
288.426	1.57
288.802	1.44
289.179	1.46
289.555	1.72
289.932	1.43
290.308	1.38
290.684	1.44
291.061	1.28
291.437	1.42
291.813	1.34
292.189	1.34
292.565	1.32
292.942	1.29
293.318	1.44
293.694	1.39
294.07	1.35
294.446	1.43
294.822	1.44
295.197	1.34
295.573	1.4
295.949	1.34
296.325	1.4
296.701	1.44
297.076	1.42
297.452	1.42
297.828	1.29
298.203	1.43
298.579	1.36
298.954	1.28
299.33	1.3
299.705	1.35
300.081	1.26
300.456	1.29
300.831	1.27
301.206	1.24
301.582	1.33
301.957	1.18
302.332	1.27
302.707	1.14
303.082	1.15
303.457	1.13
303.832	1.12
304.207	1.07
304.582	1.06
304.957	1.08
305.332	1.07
305.707	1.02
306.082	1.02
306.456	1
306.831	0.94
307.206	0.95
307.58	0.95
307.955	0.93
308.33	0.91
308.704	0.91
309.079	0.82
309.453	0.86
309.828	0.83
310.202	0.81
310.576	0.81
310.951	0.8
311.325	0.75
311.699	0.74
312.073	0.74
312.447	0.74
312.821	0.72
313.196	0.73
313.57	0.68
313.944	0.66
314.317	0.64
314.691	0.68
315.065	0.68
315.439	0.66
315.813	0.65
316.187	0.65
316.56	0.66
316.934	0.65
317.308	0.61
317.681	0.63
318.055	0.62
318.428	0.62
318.802	0.62
319.175	0.59
319.549	0.6
319.922	0.58
320.295	0.58
320.669	0.58
321.042	0.59
321.415	0.58
321.788	0.58
322.162	0.54
322.535	0.57
322.908	0.56
323.281	0.54
323.654	0.57
324.027	0.54
324.4	0.55
324.773	0.55
325.145	0.56
325.518	0.55
325.891	0.56
326.264	0.55
326.636	0.55
327.009	0.56
327.382	0.57
327.754	0.57
328.127	0.56
328.499	0.59
328.872	0.57
329.244	0.58
329.616	0.56
329.989	0.59
330.361	0.61
330.733	0.57
331.106	0.59
331.478	0.61
331.85	0.6
332.222	0.63
332.594	0.64
332.966	0.62
333.338	0.69
333.71	0.65
334.082	0.67
334.454	0.65
334.826	0.7
335.197	0.68
335.569	0.68
335.941	0.68
336.312	0.72
336.684	0.72
337.056	0.72
337.427	0.76
337.799	0.75
338.17	0.77
338.542	0.77
338.913	0.78
339.284	0.78
339.656	0.79
340.027	0.84
340.398	0.84
340.769	0.83
341.141	0.88
341.512	0.85
341.883	0.86
342.254	0.87
342.625	0.89
342.996	0.89
343.367	0.9
343.738	0.93
344.108	0.91
344.479	0.96
344.85	0.9
345.221	1.01
345.591	0.98
345.962	1
346.333	1.02
346.703	0.95
347.074	1
347.444	1.01
347.815	1.1
348.185	1.04
348.556	1.04
348.926	1.07
349.296	1.18
349.666	1.15
350.037	1.09
350.407	1.12
350.777	1.11
351.147	1.14
351.517	1.19
351.887	1.23
352.257	1.26
352.627	1.25
352.997	1.2
353.367	1.33
353.737	1.33
354.106	1.38
354.476	1.28
354.846	1.36
355.216	1.41
355.585	1.39
355.955	1.32
356.324	1.42
356.694	1.41
357.063	1.36
357.433	1.38
357.802	1.37
358.171	1.49
358.541	1.38
358.91	1.42
359.279	1.55
359.648	1.37
360.017	1.5
360.387	1.54
360.756	1.39
361.125	1.56
361.494	1.6
361.863	1.48
362.231	1.56
362.6	1.48
362.969	1.55
363.338	1.49
363.707	1.91
364.075	1.67
364.444	1.37
364.813	1.53
365.181	1.49
365.55	1.59
365.918	1.84
366.287	1.48
366.655	1.59
367.024	1.58
367.392	1.46
367.76	1.63
368.128	1.54
368.497	1.42
368.865	1.52
369.233	1.48
369.601	1.45
369.969	1.55
370.337	1.5
370.705	1.54
371.073	1.49
371.441	1.42
371.809	1.61
372.177	1.49
372.544	1.47
372.912	1.62
373.28	1.5
373.647	1.56
374.015	1.57
374.383	1.6
374.75	1.67
375.118	1.65
375.485	1.6
375.853	1.64
376.22	1.53
376.587	1.45
376.955	1.6
377.322	1.66
377.689	1.61
378.056	1.43
378.423	1.42
378.79	1.74
379.157	1.55
379.524	1.62
379.891	1.45
380.258	1.58
380.625	1.57
380.992	1.43
381.359	1.43
381.726	1.57
382.092	1.76
382.459	1.52
382.826	1.42
383.192	1.65
383.559	1.58
383.925	1.55
384.292	1.43
384.658	1.52
385.025	1.57
385.391	1.75
385.757	1.62
386.123	1.65
386.49	1.47
386.856	1.53
387.222	1.58
387.588	1.53
387.954	1.77
388.32	1.69
388.686	1.53
389.052	1.63
389.418	1.71
389.784	1.46
390.15	1.62
390.515	1.38
390.881	1.62
391.247	1.51
391.613	1.72
391.978	1.48
392.344	1.63
392.709	1.53
393.075	1.59
393.44	1.57
393.806	1.54
394.171	1.49
394.536	1.48
394.902	1.52
395.267	1.5
395.632	1.42
395.997	1.41
396.362	1.46
396.727	1.42
397.092	1.63
397.457	1.44
397.822	1.49
398.187	1.59
398.552	1.56
398.917	1.64
399.282	1.44
399.646	1.59
400.011	1.77
400.376	1.55
400.74	1.42
401.105	1.5
401.47	1.74
401.834	1.52
402.199	1.6
402.563	1.49
402.927	1.53
403.292	1.7
403.656	1.54
404.02	1.5
404.384	1.68
404.749	1.48
405.113	1.65
405.477	1.84
405.841	1.63
406.205	1.49
406.569	1.52
406.933	1.58
407.296	1.51
407.66	1.57
408.024	1.59
408.388	1.56
408.752	1.52
409.115	1.67
409.479	1.55
409.842	1.45
410.206	1.4
410.569	1.46
410.933	1.59
411.296	1.42
411.66	1.59
412.023	1.47
412.386	1.52
412.749	1.43
413.113	1.67
413.476	1.53
413.839	1.65
414.202	1.39
414.565	1.47
414.928	1.45
415.291	1.39
415.654	1.43
416.017	1.58
416.38	1.58
416.742	1.4
417.105	1.31
417.468	1.7
417.83	1.53
418.193	1.7
418.556	1.49
418.918	1.48
419.281	1.63
419.643	1.52
420.005	1.55
420.368	1.52
420.73	1.44
421.092	1.59
421.455	1.65
421.817	1.38
422.179	1.59
422.541	1.54
422.903	1.58
423.265	1.64
423.627	1.74
423.989	1.55
424.351	1.41
424.713	1.53
425.075	1.45
425.436	1.59
425.798	1.44
426.16	1.57
426.521	1.55
426.883	1.69
427.245	1.6
427.606	1.41
427.967	1.35
428.329	1.57
428.69	1.52
429.052	1.45
429.413	1.59
429.774	1.5
430.135	1.61
430.497	1.51
430.858	1.57
431.219	1.49
431.58	1.43
431.941	1.54
432.302	1.55
432.663	1.6
433.024	1.57
433.384	1.61
433.745	1.46
434.106	1.51
434.467	1.65
434.827	1.44
435.188	1.51
435.548	1.78
435.909	1.53
436.269	1.56
436.63	1.46
436.99	1.61
437.351	1.4
437.711	1.57
438.071	1.53
438.431	1.42
438.792	1.52
439.152	1.5
439.512	1.53
439.872	1.43
440.232	1.53
440.592	1.54
440.952	1.55
441.312	1.45
441.671	1.49
442.031	1.52
442.391	1.45
442.751	1.52
443.11	1.52
443.47	1.37
443.83	1.41
444.189	1.4
444.549	1.38
444.908	1.42
445.267	1.42
445.627	1.48
445.986	1.4
446.345	1.35
446.705	1.4
447.064	1.42
447.423	1.38
447.782	1.35
448.141	1.34
448.5	1.34
448.859	1.36
449.218	1.32
449.577	1.39
449.936	1.38
450.295	1.35
450.653	1.36
451.012	1.37
451.371	1.35
451.729	1.27
452.088	1.32
452.447	1.34
452.805	1.33
453.163	1.32
453.522	1.28
453.88	1.29
454.239	1.3
454.597	1.25
454.955	1.22
455.313	1.24
455.671	1.25
456.029	1.24
456.388	1.17
456.746	1.19
457.104	1.17
457.461	1.16
457.819	1.14
458.177	1.14
458.535	1.11
458.893	1.08
459.25	1.1
459.608	1.08
459.966	1.06
460.323	1.03
460.681	1.05
461.038	1.03
461.396	1.01
461.753	0.99
462.111	1
462.468	0.96
462.825	0.94
463.182	0.94
463.54	0.91
463.897	0.92
464.254	0.91
464.611	0.89
464.968	0.88
465.325	0.87
465.682	0.85
466.039	0.84
466.395	0.82
466.752	0.82
467.109	0.8
467.466	0.8
467.822	0.78
468.179	0.75
468.535	0.75
468.892	0.75
469.248	0.72
469.605	0.69
469.961	0.69
470.318	0.71
470.674	0.67
471.03	0.68
471.386	0.67
471.743	0.66
472.099	0.62
472.455	0.62
472.811	0.61
473.167	0.6
473.523	0.57
473.879	0.58
474.235	0.56
474.59	0.55
474.946	0.53
475.302	0.53
475.657	0.52
476.013	0.51
476.369	0.5
476.724	0.5
477.08	0.49
477.435	0.48
477.791	0.45
478.146	0.47
478.501	0.44
478.857	0.44
479.212	0.43
479.567	0.42
479.922	0.41
480.277	0.41
480.632	0.39
480.987	0.39
481.342	0.37
481.697	0.37
482.052	0.36
482.407	0.35
482.762	0.34
483.116	0.33
483.471	0.32
483.826	0.31
484.18	0.31
484.535	0.3
484.89	0.3
485.244	0.29
485.598	0.29
485.953	0.28
486.307	0.27
486.661	0.27
487.016	0.26
487.37	0.25
487.724	0.25
488.078	0.24
488.432	0.24
488.786	0.23
489.14	0.23
489.494	0.22
489.848	0.22
490.202	0.21
490.556	0.2
490.91	0.2
491.263	0.2
491.617	0.19
491.971	0.19
492.324	0.18
492.678	0.18
493.031	0.18
493.385	0.18
493.738	0.17
494.091	0.17
494.445	0.16
494.798	0.16
495.151	0.15
495.504	0.16
495.857	0.14
496.21	0.14
496.564	0.14
496.916	0.14
497.269	0.13
497.622	0.14
497.975	0.13
498.328	0.13
498.681	0.12
499.033	0.12
499.386	0.12
499.739	0.12
500.091	0.11
500.444	0.11
500.796	0.11
501.149	0.1
501.501	0.1
501.854	0.1
502.206	0.09
502.558	0.1
502.91	0.1
503.263	0.09
503.615	0.09
503.967	0.09
504.319	0.09
504.671	0.09
505.023	0.08
505.375	0.08
505.726	0.07
506.078	0.08
506.43	0.07
506.782	0.07
507.133	0.07
507.485	0.07
507.837	0.07
508.188	0.07
508.54	0.07
508.891	0.07
509.243	0.06
509.594	0.06
509.945	0.06
510.296	0.06
510.648	0.06
510.999	0.05
511.35	0.06
511.701	0.06
512.052	0.06
512.403	0.05
512.754	0.05
513.105	0.05
513.456	0.05
513.807	0.05
514.157	0.05
514.508	0.05
514.859	0.05
515.209	0.04
515.56	0.05
515.91	0.04
516.261	0.04
516.611	0.04
516.962	0.05
517.312	0.04
517.662	0.05
518.013	0.04
518.363	0.04
518.713	0.04
519.063	0.04
519.413	0.04
519.763	0.04
520.113	0.03
520.463	0.04
520.813	0.05
521.163	0.05
521.512	0.04
521.862	0.04
522.212	0.04
522.562	0.04
522.911	0.04
523.261	0.04
523.61	0.04
523.96	0.03
524.309	0.04
524.658	0.03
525.008	0.04
525.357	0.04
525.706	0.04
526.056	0.03
526.405	0.03
526.754	0.03
527.103	0.03
527.452	0.03
527.801	0.04
528.15	0.03
528.499	0.03
528.847	0.03
529.196	0.03
529.545	0.03
529.893	0.04
530.242	0.03
530.591	0.04
530.939	0.04
531.288	0.04
531.636	0.04
531.985	0.03
532.333	0.04
532.681	0.03
533.029	0.04
533.378	0.03
533.726	0.04
534.074	0.04
534.422	0.03
534.77	0.03
535.118	0.04
535.466	0.03
535.814	0.03
536.162	0.03
536.509	0.04
536.857	0.04
537.205	0.04
537.552	0.03
537.9	0.03
538.248	0.03
538.595	0.03
538.943	0.03
539.29	0.03
539.637	0.03
539.985	0.04
540.332	0.03
540.679	0.03
541.026	0.02
541.373	0.03
541.721	0.02
542.068	0.03
542.415	0.03
542.762	0.02
543.108	0.01
543.455	0.01
543.802	0.02
544.149	0.02
544.496	0.02
544.842	0.02
545.189	0.01
545.535	0.03
545.882	0.02
546.228	0.02
546.575	0.01
546.921	0
547.267	0.02
547.614	0.02
547.96	0.02
548.306	0.01
548.652	0.01
548.998	0.03
549.344	0.01
549.69	0.02
550.036	0.01
550.382	0.02
550.728	0.02
551.074	0.02
551.42	0.02
551.765	0.02
552.111	0.02
552.457	0.02
552.802	0.02
553.148	0.02
553.493	0.02
553.839	0.02
554.184	0.03
554.529	0.01
554.875	0.02
555.22	0.03
555.565	0.03
555.91	0.02
556.255	0.03
556.6	0.02
556.945	0.02
557.29	0.02
557.635	0.02
557.98	0.02
558.325	0.03
558.67	0.03
559.014	0.03
559.359	0.03
559.704	0.02
560.048	0.02
560.393	0.03
560.737	0.01
561.082	0.02
561.426	0.02
561.77	0.02
562.115	0.02
562.459	0.02
562.803	0.02
563.147	0.02
563.491	0.02
563.835	0.02
564.179	0.02
564.523	0.02
564.867	0.01
565.211	0.02
565.555	0.02
565.899	0.02
566.242	0.02
566.586	0.01
566.93	0.02
567.273	0.03
567.617	0.02
567.96	0.03
568.304	0.03
568.647	0.02
568.99	0.03
569.334	0.03
569.677	0.03
570.02	0.03
570.363	0.02
570.706	0.02
571.049	0.02
571.392	0.02
571.735	0.02
572.078	0.02
572.421	0.03
572.764	0.02
573.106	0.02
573.449	0.02
573.792	0.02
574.134	0.02
574.477	0.02
574.819	0.02
575.162	0.01
575.504	0.01
575.847	0.02
576.189	0.02
576.531	0.02
576.873	0.02
577.215	0.02
577.558	0.02
577.9	0.01
578.242	0.02
578.584	0.02
578.926	0.02
579.267	0.02
579.609	0.02
579.951	0.02
580.293	0.02
580.634	0.02
580.976	0.03
581.318	0.02
581.659	0.02
582.001	0.02
582.342	0.02
582.683	0.02
583.025	0.02
583.366	0.02
583.707	0.02
584.049	0.02
584.39	0.02
584.731	0.02
585.072	0.01
585.413	0.02
585.754	0.01
586.095	0.03
586.435	0.02
586.776	0.02
587.117	0.02
587.458	0.02
587.798	0.01
588.139	0.02
588.48	0.01
588.82	0.02
589.161	0.02
589.501	0.01
589.841	0.01
590.182	0.02
590.522	0.02
590.862	0.01
591.202	0.01
591.542	0.02
591.882	0.02
592.222	0.01
592.562	0.02
592.902	0.02
593.242	0.02
593.582	0.02
593.922	0.02
594.261	0.01
594.601	0.02
594.941	0.01
595.28	0.02
595.62	0.02
595.959	0.02
596.299	0.02
596.638	0.02
596.977	0.02
597.317	0.03
597.656	0.02
597.995	0.02
598.334	0.03
598.673	0.02
599.012	0.02
599.351	0.03
599.69	0.02
600.029	0.02
600.368	0.02
600.707	0.01
601.046	0.02
601.384	0.03
601.723	0.03
602.061	0.02
602.4	0.02
602.738	0.02
603.077	0.02
603.415	0.02
603.754	0.02
604.092	0.02
604.43	0.02
604.768	0.02
605.107	0.02
605.445	0.02
605.783	0.02
606.121	0.01
606.459	0.02
606.796	0.02
607.134	0.02
607.472	0.02
607.81	0.02
608.148	0.01
608.485	0.02
608.823	0.01
609.16	0.02
609.498	0.02
609.835	0.02
610.173	0.02
610.51	0.02
610.847	0.03
611.185	0.03
611.522	0.03
611.859	0.02
612.196	0.03
612.533	0.03
612.87	0.03
613.207	0.03
613.544	0.03
613.881	0.04
614.217	0.03
614.554	0.03
614.891	0.03
615.228	0.03
615.564	0.03
615.901	0.03
616.237	0.03
616.574	0.03
616.91	0.04
617.246	0.03
617.583	0.04
617.919	0.04
618.255	0.04
618.591	0.03
618.927	0.03
619.263	0.04
619.599	0.04
619.935	0.04
620.271	0.04
620.607	0.03
620.943	0.03
621.279	0.03
621.614	0.03
621.95	0.03
622.286	0.03
622.621	0.03
622.957	0.03
623.292	0.03
623.627	0.02
623.963	0.02
624.298	0.02
624.633	0.02
624.968	0.02
625.304	0.02
625.639	0.02
625.974	0.02
626.309	0.02
626.644	0.03
626.979	0.03
627.313	0.02
627.648	0.02
627.983	0.02
628.318	0.02
628.652	0.02
628.987	0.02
629.321	0.02
629.656	0.02
629.99	0.01
630.325	0.02
630.659	0.02
630.993	0.02
631.327	0.02
631.662	0.02
631.996	0.02
632.33	0.02
632.664	0.02
632.998	0.02
633.332	0.01
633.666	0.02
633.999	0.02
634.333	0.02
634.667	0.01
635.001	0.01
635.334	0.02
635.668	0.02
636.001	0.02
636.335	0.02
636.668	0.02
637.001	0.01
637.335	0.02
637.668	0.02
638.001	0.01
638.334	0.02
638.668	0.01
639.001	0.02
639.334	0.01
639.667	0.01
639.999	0.01
640.332	0.01
640.665	0
640.998	0.01
641.331	0.01
641.663	0.01
641.996	0.01
642.328	0.01
642.661	0.01
642.993	0.02
643.326	0.02
643.658	0.01
643.99	0.01
644.323	0.01
644.655	0.01
644.987	0.02
645.319	0.02
645.651	0.02
645.983	0.01
646.315	0.01
646.647	0.02
646.979	0.02
647.31	0.03
647.642	0.01
647.974	0.01
648.305	0.02
648.637	0.02
648.968	0.02
649.3	0.03
649.631	0.02
649.963	0.02
650.294	0.03
650.625	0.02
650.957	0.03
651.288	0.02
651.619	0.03
651.95	0.03
652.281	0.03
652.612	0.02
652.943	0.03
653.274	0.04
653.604	0.02
653.935	0.03
654.266	0.03
654.596	0.03
654.927	0.03
655.258	0.03
655.588	0.03
655.918	0.03
656.249	0.01
656.579	0.02
656.909	0.03
657.24	0.02
657.57	0.04
657.9	0.03
658.23	0.03
658.56	0.03
658.89	0.04
659.22	0.03
659.55	0.04
659.88	0.03
660.209	0.03
660.539	0.04
660.869	0.04
661.198	0.04
661.528	0.03
661.857	0.04
662.187	0.04
662.516	0.04
662.846	0.03
663.175	0.03
663.504	0.04
663.833	0.03
664.163	0.04
664.492	0.03
664.821	0.03
665.15	0.03
665.479	0.03
665.807	0.03
666.136	0.03
666.465	0.02
666.794	0.03
667.122	0.03
667.451	0.02
667.78	0.03
668.108	0.03
668.437	0.02
668.765	0.03
669.093	0.03
669.422	0.03
669.75	0.03
670.078	0.03
670.406	0.03
670.734	0.03
671.062	0.03
671.39	0.03
671.718	0.03
672.046	0.03
672.374	0.03
672.702	0.03
673.029	0.03
673.357	0.04
673.685	0.04
674.012	0.03
674.34	0.03
674.667	0.03
674.995	0.04
675.322	0.04
675.649	0.03
675.977	0.03
676.304	0.04
676.631	0.04
676.958	0.04
677.285	0.03
677.612	0.03
677.939	0.03
678.266	0.03
678.593	0.03
678.92	0.04
679.246	0.04
679.573	0.03
679.9	0.04
680.226	0.03
680.553	0.03
680.879	0.03
681.206	0.03
681.532	0.03
681.858	0.03
682.184	0.02
682.511	0.03
682.837	0.03
683.163	0.03
683.489	0.03
683.815	0.02
684.141	0.03
684.467	0.03
684.793	0.02
685.118	0.03
685.444	0.03
685.77	0.03
686.095	0.03
686.421	0.03
686.746	0.03
687.072	0.03
687.397	0.03
687.723	0.03
688.048	0.04
688.373	0.03
688.698	0.04
689.023	0.04
689.349	0.04
689.674	0.04
689.999	0.03
690.323	0.03
690.648	0.03
690.973	0.03
691.298	0.03
691.623	0.03
691.947	0.03
692.272	0.03
692.596	0.03
692.921	0.03
693.245	0.03
693.57	0.03
693.894	0.04
694.218	0.03
694.543	0.03
694.867	0.03
695.191	0.02
695.515	0.03
695.839	0.03
696.163	0.03
696.487	0.03
696.811	0.03
697.135	0.03
697.458	0.04
697.782	0.03
698.106	0.03
698.429	0.03
698.753	0.03
699.076	0.03
699.4	0.03
699.723	0.03
700.046	0.02
700.37	0.03
700.693	0.03
701.016	0.03
701.339	0.03
701.662	0.04
701.985	0.04
702.308	0.03
702.631	0.03
702.954	0.03
703.277	0.03
703.599	0.03
703.922	0.02
704.245	0.03
704.567	0.02
704.89	0.02
705.212	0.03
705.535	0.02
705.857	0.02
706.179	0.02
706.502	0.02
706.824	0.02
707.146	0.02
707.468	0.02
707.79	0.02
708.112	0.03
708.434	0.02
708.756	0.03
709.078	0.03
709.399	0.03
709.721	0.03
710.043	0.03
710.364	0.03
710.686	0.03
711.007	0.03
711.329	0.03
711.65	0.03
711.972	0.03
712.293	0.04
712.614	0.03
712.935	0.03
713.256	0.03
713.577	0.04
713.898	0.03
714.219	0.03
714.54	0.03
714.861	0.02
715.182	0.02
715.503	0.02
715.823	0.03
716.144	0.02
716.464	0.02
716.785	0.02
717.105	0.02
717.426	0.03
717.746	0.03
718.066	0.02
718.387	0.01
718.707	0.02
719.027	0.02
719.347	0.02
719.667	0.02
719.987	0.01
720.307	0.02
720.627	0.02
720.947	0.02
721.266	0.02
721.586	0.02
721.906	0.02
722.225	0.01
722.545	0.02
722.864	0.02
723.184	0.03
723.503	0.02
723.823	0.02
724.142	0.01
724.461	0.01
724.78	0.01
725.099	0.02
725.418	0.02
725.737	0.02
726.056	0.02
726.375	0.02
726.694	0.02
727.013	0.02
727.331	0.01
727.65	0.02
727.969	0.03
728.287	0.02
728.606	0.03
728.924	0.02
729.242	0.02
729.561	0.02
729.879	0.02
730.197	0.03
730.515	0.03
730.834	0.02
731.152	0.02
731.47	0.02
731.788	0.03
732.105	0.02
732.423	0.02
732.741	0.02
733.059	0.01
733.376	0.03
733.694	0.02
734.012	0.02
734.329	0.03
734.647	0.02
734.964	0.03
735.281	0.03
735.599	0.03
735.916	0.03
736.233	0.03
736.55	0.02
736.867	0.03
737.184	0.03
737.501	0.03
737.818	0.03
738.135	0.03
738.452	0.03
738.768	0.03
739.085	0.03
739.402	0.02
739.718	0.03
740.035	0.02
740.351	0.03
740.668	0.03
740.984	0.03
741.3	0.02
741.617	0.03
741.933	0.03
742.249	0.03
742.565	0.03
742.881	0.04
743.197	0.03
743.513	0.02
743.829	0.02
744.144	0.03
744.46	0.02
744.776	0.03
745.091	0.03
745.407	0.03
745.722	0.02
746.038	0.03
746.353	0.01
746.669	0.03
746.984	0.02
747.299	0.02
747.614	0.03
747.93	0.03
748.245	0.03
748.56	0.02
748.875	0.02
749.189	0.03
749.504	0.03
749.819	0.03
750.134	0.03
750.448	0.03
750.763	0.03
751.078	0.02
751.392	0.02
751.707	0.04
752.021	0.04
752.335	0.04
752.65	0.03
752.964	0.03
753.278	0.03
753.592	0.03
753.906	0.04
754.22	0.03
754.534	0.03
754.848	0.03
755.162	0.04
755.476	0.03
755.789	0.03
756.103	0.03
756.417	0.04
756.73	0.03
757.044	0.04
757.357	0.03
757.671	0.04
757.984	0.04
758.297	0.04
758.61	0.04
758.924	0.04
759.237	0.04
759.55	0.03
759.863	0.03
760.176	0.03
760.488	0.03
760.801	0.03
761.114	0.03
761.427	0.02
761.739	0.03
762.052	0.03
762.365	0.03
762.677	0.03
762.99	0.02
763.302	0.03
763.614	0.03
763.926	0.03
764.239	0.03
764.551	0.02
764.863	0.03
765.175	0.03
765.487	0.03
765.799	0.02
766.111	0.02
766.423	0.03
766.734	0.03
767.046	0.02
767.358	0.03
767.669	0.03
767.981	0.03
768.292	0.03
768.604	0.03
768.915	0.03
769.226	0.03
769.537	0.02
769.849	0.03
770.16	0.02
770.471	0.02
770.782	0.03
771.093	0.03
771.404	0.01
771.715	0.02
772.025	0.03
772.336	0.03
772.647	0.02
772.957	0.02
773.268	0.02
773.578	0.02
773.889	0.03
774.199	0.03
774.51	0.02
774.82	0.03
775.13	0.03
775.44	0.02
775.75	0.03
776.06	0.03
776.37	0.02
776.68	0.03
776.99	0.03
777.3	0.02
777.61	0.03
777.92	0.03
778.229	0.02
778.539	0.03
778.848	0.03
779.158	0.03
779.467	0.03
779.777	0.03
780.086	0.04
780.395	0.02
780.704	0.03
781.013	0.03
781.323	0.03
781.632	0.03
781.941	0.04
782.249	0.03
782.558	0.02
782.867	0.03
783.176	0.02
783.485	0.02
783.793	0.03
784.102	0.03
784.41	0.03
784.719	0.03
785.027	0.02
785.335	0.02
785.644	0.02
785.952	0.03
786.26	0.03
786.568	0.03
786.876	0.03
787.184	0.03
787.492	0.03
787.8	0.03
788.108	0.02
788.416	0.02
788.723	0.02
789.031	0.02
789.338	0.02
789.646	0.02
789.953	0.03
790.261	0.03
790.568	0.02
790.876	0.02
791.183	0.03
791.49	0.02
791.797	0.03
792.104	0.02
792.411	0.04
792.718	0.02
793.025	0.03
793.332	0.03
793.639	0.04
793.945	0.04
794.252	0.04
794.559	0.04
794.865	0.04
795.172	0.04
795.478	0.03
795.784	0.03
796.091	0.04
796.397	0.04
796.703	0.04
797.009	0.04
797.315	0.04
797.622	0.05
797.927	0.03
798.233	0.04
798.539	0.04
798.845	0.04
799.151	0.04
799.456	0.04
799.762	0.03
800.068	0.04
800.373	0.04
800.679	0.04
800.984	0.03
801.289	0.03
801.595	0.04
801.9	0.04
802.205	0.03
802.51	0.04
802.815	0.03
803.12	0.04
803.425	0.03
803.73	0.04
804.035	0.04
804.339	0.03
804.644	0.03
804.949	0.03
805.253	0.04
805.558	0.03
805.862	0.03
806.167	0.04
806.471	0.03
806.775	0.03
807.08	0.03
807.384	0.04
807.688	0.04
807.992	0.04
808.296	0.03
808.6	0.04
808.904	0.04
809.207	0.04
809.511	0.04
809.815	0.05
810.119	0.04
810.422	0.05
810.726	0.05
811.029	0.06
811.332	0.05
811.636	0.05
811.939	0.04
812.242	0.05
812.546	0.05
812.849	0.06
813.152	0.05
813.455	0.05
813.758	0.05
814.06	0.05
814.363	0.05
814.666	0.06
814.969	0.05
815.271	0.05
815.574	0.04
815.877	0.04
816.179	0.04
816.481	0.04
816.784	0.05
817.086	0.04
817.388	0.03
817.69	0.03
817.993	0.03
818.295	0.04
818.597	0.04
818.899	0.02
819.2	0.02
819.502	0.03
819.804	0.03
820.106	0.03
820.407	0.02
820.709	0.03
821.01	0.04
821.312	0.04
821.613	0.03
821.915	0.03
822.216	0.03
822.517	0.02
822.818	0.02
823.119	0.03
823.42	0.03
823.721	0.02
824.022	0.02
824.323	0.03
824.624	0.03
824.925	0.03
825.226	0.04
825.526	0.03
825.827	0.02
826.127	0.03
826.428	0.03
826.728	0.03
827.028	0.02
827.329	0.03
827.629	0.02
827.929	0.02
828.229	0.02
828.529	0.03
828.829	0.03
829.129	0.02
829.429	0.02
829.729	0.02
830.029	0.03
830.328	0.02
830.628	0.02
830.927	0.02
831.227	0.02
831.526	0.02
831.826	0.01
832.125	0.02
832.424	0.02
832.724	0.02
833.023	0.01
833.322	0.02
833.621	0.01
833.92	0
834.219	0.01
834.518	0.02
834.816	0
835.115	0.01
835.414	0.01
835.712	0
836.011	0.01
836.309	0.01
836.608	0
836.906	0
837.205	-0
837.503	0
837.801	-0
838.099	-0.01
838.397	-0.01
838.695	-0.01
838.993	-0.01
839.291	-0.01
839.589	-0.01
839.887	-0
840.184	-0.01
840.482	-0.02
840.78	-0.01
841.077	-0.01
841.375	-0.02
841.672	-0.01
841.969	-0.01
842.267	-0.01
842.564	-0.02
842.861	-0.01
843.158	-0.02
843.455	-0.04
843.752	-0.03
844.049	-0.03
844.346	-0.03
844.643	-0.03
844.94	-0.04
845.236	-0.02
845.533	-0.04
845.83	-0.04
846.126	-0.04
846.423	-0.04
846.719	-0.05
847.015	-0.04
847.312	-0.04
847.608	-0.05
847.904	-0.06
848.2	-0.06
848.496	-0.05
848.792	-0.05
849.088	-0.04
849.384	-0.05
849.68	-0.06
849.975	-0.05
850.271	-0.06
850.567	-0.07
850.862	-0.06
851.158	-0.07
851.453	-0.07
851.748	-0.07
852.044	-0.07
852.339	-0.07
852.634	-0.09
852.929	-0.07
853.224	-0.08
853.519	-0.08
853.814	-0.07
854.109	-0.09
854.404	-0.09
854.699	-0.08
854.994	-0.07
855.288	-0.07
855.583	-0.07
855.877	-0.08
856.172	-0.07
856.466	-0.08
856.76	-0.09
857.055	-0.08
857.349	-0.09
857.643	-0.1
857.937	-0.1
858.231	-0.1
858.525	-0.1
858.819	-0.11
859.113	-0.11
859.407	-0.11
859.701	-0.11
859.994	-0.12
860.288	-0.1
860.581	-0.11
860.875	-0.1
861.168	-0.11
861.462	-0.12
861.755	-0.1
862.048	-0.11
862.341	-0.11
862.634	-0.11
862.928	-0.11
863.221	-0.12
863.513	-0.12
863.806	-0.12
864.099	-0.12
864.392	-0.12
864.685	-0.11
864.977	-0.12
865.27	-0.12
865.562	-0.13
865.855	-0.12
866.147	-0.13
866.44	-0.12
866.732	-0.12
867.024	-0.14
867.316	-0.13
867.608	-0.14
867.9	-0.13
868.192	-0.14
868.484	-0.14
868.776	-0.14
869.068	-0.14
869.359	-0.14
869.651	-0.15
869.943	-0.16
870.234	-0.15
870.526	-0.16
870.817	-0.16
871.108	-0.15
871.4	-0.15
871.691	-0.16
871.982	-0.17
872.273	-0.18
872.564	-0.17
872.855	-0.17
873.146	-0.17
873.437	-0.17
873.728	-0.17
874.019	-0.17
874.309	-0.18
874.6	-0.17
874.89	-0.17
875.181	-0.17
875.471	-0.17
875.762	-0.16
876.052	-0.17
876.342	-0.16
876.632	-0.17
876.922	-0.18
877.213	-0.18
877.503	-0.19
877.792	-0.18
878.082	-0.18
878.372	-0.16
878.662	-0.2
878.952	-0.17
879.241	-0.18
879.531	-0.17
879.82	-0.18
880.11	-0.17
880.399	-0.18
880.688	-0.16
880.978	-0.16
881.267	-0.16
