Data from 12-12-AQDScycling_Absorbance__767__00767.txt Node

Date: Tue Dec 12 14:08:29 EST 2023
User: kyuminlee
Spectrometer: FLMS00943
Trigger mode: 0
Integration Time (sec): 1.000000E-1
Scans to average: 1
Electric dark correction enabled: true
Nonlinearity correction enabled: false
Boxcar width: 0
XAxis mode: Wavelengths
Number of Pixels in Spectrum: 2048
>>>>>Begin Spectral Data<<<<<
179.651	-0
180.037	-0
180.424	-0
180.81	0.25
181.197	0.19
181.583	-0
181.97	-0.33
182.356	-0
182.743	-0
183.129	-0
183.515	-0
183.901	-2.63
184.288	-0
184.674	-0
185.06	-0.36
185.446	-0.44
185.832	-1.24
186.218	0.23
186.604	1.27
186.99	-0
187.376	-0
187.762	-0.36
188.148	0.84
188.534	0.01
188.92	0.13
189.305	0.06
189.691	0.17
190.077	0.1
190.463	0.25
190.848	0.18
191.234	0.03
191.619	0.09
192.005	0.17
192.391	0.13
192.776	0.17
193.161	0.23
193.547	0.19
193.932	0.19
194.318	0.05
194.703	0.1
195.088	0.15
195.473	0.08
195.859	0.17
196.244	0.18
196.629	0.12
197.014	0.05
197.399	0.12
197.784	0.02
198.169	0.16
198.554	0.26
198.939	0.02
199.324	0.12
199.709	0.09
200.094	0.05
200.478	0.06
200.863	0.21
201.248	0.21
201.633	0.29
202.017	0.05
202.402	0.18
202.787	0.17
203.171	0.19
203.556	0.15
203.94	0.15
204.325	0.25
204.709	0.17
205.093	0.03
205.478	-0.01
205.862	0.32
206.246	0.2
206.631	0.24
207.015	0.19
207.399	0.15
207.783	0.16
208.167	0.15
208.551	0.27
208.935	0.14
209.319	0.1
209.703	0.19
210.087	0.15
210.471	0.13
210.855	0.19
211.239	0.38
211.623	0.29
212.007	0.24
212.39	0.38
212.774	0.33
213.158	0.1
213.541	0.44
213.925	0.26
214.309	0.33
214.692	0.37
215.076	0.3
215.459	0.35
215.842	0.13
216.226	0.34
216.609	0.23
216.993	0.27
217.376	0.37
217.759	0.18
218.142	0.3
218.525	0.39
218.909	0.32
219.292	0.24
219.675	0.22
220.058	0.42
220.441	0.45
220.824	0.44
221.207	0.51
221.59	0.64
221.973	0.62
222.355	0.66
222.738	0.6
223.121	0.64
223.504	0.63
223.886	0.54
224.269	0.72
224.652	0.64
225.034	0.93
225.417	0.82
225.799	0.89
226.182	1.07
226.564	0.85
226.947	0.79
227.329	0.75
227.711	1.01
228.094	0.94
228.476	0.85
228.858	0.86
229.24	0.81
229.623	0.96
230.005	0.94
230.387	0.84
230.769	0.82
231.151	1.02
231.533	0.92
231.915	1.02
232.297	0.98
232.679	0.98
233.061	1.12
233.442	1.11
233.824	1.19
234.206	1.18
234.588	1.11
234.969	1.16
235.351	1.04
235.733	0.99
236.114	1.15
236.496	1.03
236.877	1.13
237.259	1.18
237.64	1.11
238.022	1.12
238.403	1.04
238.784	1.05
239.165	0.95
239.547	1.12
239.928	0.95
240.309	1.12
240.69	1.15
241.071	1.13
241.452	1.08
241.834	1.07
242.215	1.07
242.595	1
242.976	1.24
243.357	1.14
243.738	1.05
244.119	1.2
244.5	1.1
244.881	1.3
245.261	1.19
245.642	1.3
246.023	1.2
246.403	1.21
246.784	1.29
247.164	1.26
247.545	1.23
247.925	1.33
248.306	1.22
248.686	1.56
249.067	1.38
249.447	1.59
249.827	1.52
250.207	1.48
250.588	1.32
250.968	1.33
251.348	1.46
251.728	1.4
252.108	1.39
252.488	1.43
252.868	1.43
253.248	1.33
253.628	1.42
254.008	1.58
254.388	1.4
254.768	1.51
255.147	1.47
255.527	1.48
255.907	1.4
256.287	1.39
256.666	1.48
257.046	1.56
257.425	1.61
257.805	1.38
258.184	1.44
258.564	1.33
258.943	1.39
259.323	1.46
259.702	1.56
260.081	1.62
260.461	1.43
260.84	1.48
261.219	1.63
261.598	1.46
261.977	1.53
262.356	1.51
262.736	1.52
263.115	1.68
263.494	1.29
263.873	1.49
264.251	1.48
264.63	1.5
265.009	1.43
265.388	1.51
265.767	1.33
266.145	1.42
266.524	1.47
266.903	1.44
267.281	1.38
267.66	1.49
268.039	1.6
268.417	1.44
268.796	1.59
269.174	1.52
269.552	1.34
269.931	1.52
270.309	1.33
270.687	1.56
271.066	1.66
271.444	1.4
271.822	1.53
272.2	1.47
272.578	1.36
272.956	1.4
273.334	1.36
273.712	1.4
274.09	1.36
274.468	1.55
274.846	1.27
275.224	1.39
275.602	1.57
275.98	1.54
276.357	1.45
276.735	1.4
277.113	1.38
277.49	1.44
277.868	1.23
278.246	1.56
278.623	1.34
279.001	1.38
279.378	1.5
279.756	1.42
280.133	1.48
280.51	1.48
280.888	1.52
281.265	1.32
281.642	1.52
282.019	1.6
282.396	1.51
282.773	1.37
283.151	1.53
283.528	1.51
283.905	1.35
284.282	1.61
284.659	1.39
285.035	1.28
285.412	1.46
285.789	1.46
286.166	1.57
286.543	1.52
286.919	1.47
287.296	1.4
287.673	1.87
288.049	1.49
288.426	1.67
288.802	1.6
289.179	1.49
289.555	1.63
289.932	1.52
290.308	1.32
290.684	1.29
291.061	1.37
291.437	1.52
291.813	1.3
292.189	1.25
292.565	1.41
292.942	1.36
293.318	1.48
293.694	1.52
294.07	1.41
294.446	1.46
294.822	1.51
295.197	1.49
295.573	1.64
295.949	1.45
296.325	1.5
296.701	1.52
297.076	1.67
297.452	1.52
297.828	1.51
298.203	1.59
298.579	1.46
298.954	1.47
299.33	1.46
299.705	1.37
300.081	1.57
300.456	1.43
300.831	1.5
301.206	1.44
301.582	1.52
301.957	1.47
302.332	1.56
302.707	1.35
303.082	1.32
303.457	1.54
303.832	1.45
304.207	1.36
304.582	1.35
304.957	1.34
305.332	1.43
305.707	1.34
306.082	1.38
306.456	1.57
306.831	1.35
307.206	1.43
307.58	1.37
307.955	1.37
308.33	1.35
308.704	1.35
309.079	1.38
309.453	1.46
309.828	1.43
310.202	1.32
310.576	1.37
310.951	1.35
311.325	1.37
311.699	1.37
312.073	1.28
312.447	1.32
312.821	1.33
313.196	1.31
313.57	1.29
313.944	1.28
314.317	1.31
314.691	1.33
315.065	1.33
315.439	1.45
315.813	1.32
316.187	1.29
316.56	1.47
316.934	1.43
317.308	1.27
317.681	1.32
318.055	1.34
318.428	1.28
318.802	1.47
319.175	1.37
319.549	1.37
319.922	1.37
320.295	1.34
320.669	1.4
321.042	1.39
321.415	1.42
321.788	1.45
322.162	1.36
322.535	1.42
322.908	1.37
323.281	1.31
323.654	1.47
324.027	1.3
324.4	1.37
324.773	1.34
325.145	1.37
325.518	1.37
325.891	1.44
326.264	1.57
326.636	1.36
327.009	1.37
327.382	1.37
327.754	1.6
328.127	1.39
328.499	1.38
328.872	1.41
329.244	1.4
329.616	1.38
329.989	1.36
330.361	1.43
330.733	1.35
331.106	1.31
331.478	1.48
331.85	1.4
332.222	1.44
332.594	1.33
332.966	1.46
333.338	1.61
333.71	1.49
334.082	1.51
334.454	1.52
334.826	1.48
335.197	1.58
335.569	1.38
335.941	1.38
336.312	1.39
336.684	1.35
337.056	1.4
337.427	1.51
337.799	1.48
338.17	1.44
338.542	1.39
338.913	1.47
339.284	1.53
339.656	1.38
340.027	1.48
340.398	1.44
340.769	1.45
341.141	1.58
341.512	1.35
341.883	1.5
342.254	1.39
342.625	1.47
342.996	1.39
343.367	1.4
343.738	1.4
344.108	1.43
344.479	1.57
344.85	1.35
345.221	1.44
345.591	1.44
345.962	1.44
346.333	1.45
346.703	1.33
347.074	1.27
347.444	1.22
347.815	1.34
348.185	1.35
348.556	1.36
348.926	1.34
349.296	1.38
349.666	1.29
350.037	1.24
350.407	1.21
350.777	1.38
351.147	1.38
351.517	1.28
351.887	1.26
352.257	1.33
352.627	1.36
352.997	1.23
353.367	1.33
353.737	1.42
354.106	1.4
354.476	1.33
354.846	1.39
355.216	1.46
355.585	1.43
355.955	1.41
356.324	1.47
356.694	1.52
357.063	1.48
357.433	1.35
357.802	1.4
358.171	1.49
358.541	1.41
358.91	1.4
359.279	1.45
359.648	1.4
360.017	1.46
360.387	1.47
360.756	1.35
361.125	1.44
361.494	1.51
361.863	1.26
362.231	1.35
362.6	1.47
362.969	1.47
363.338	1.45
363.707	1.49
364.075	1.53
364.444	1.41
364.813	1.36
365.181	1.53
365.55	1.45
365.918	1.5
366.287	1.36
366.655	1.52
367.024	1.5
367.392	1.39
367.76	1.46
368.128	1.48
368.497	1.39
368.865	1.41
369.233	1.41
369.601	1.39
369.969	1.52
370.337	1.38
370.705	1.42
371.073	1.55
371.441	1.54
371.809	1.38
372.177	1.44
372.544	1.57
372.912	1.58
373.28	1.47
373.647	1.52
374.015	1.65
374.383	1.66
374.75	1.6
375.118	1.44
375.485	1.48
375.853	1.52
376.22	1.41
376.587	1.43
376.955	1.58
377.322	1.52
377.689	1.5
378.056	1.42
378.423	1.52
378.79	1.39
379.157	1.65
379.524	1.56
379.891	1.49
380.258	1.62
380.625	1.45
380.992	1.51
381.359	1.68
381.726	1.87
382.092	1.48
382.459	1.61
382.826	1.5
383.192	1.59
383.559	1.59
383.925	1.59
384.292	1.49
384.658	1.7
385.025	1.63
385.391	1.68
385.757	1.44
386.123	1.55
386.49	1.44
386.856	1.49
387.222	1.59
387.588	1.55
387.954	1.73
388.32	1.62
388.686	1.59
389.052	1.48
389.418	1.7
389.784	1.57
390.15	1.68
390.515	1.37
390.881	1.74
391.247	1.45
391.613	1.7
391.978	1.48
392.344	1.62
392.709	1.64
393.075	1.63
393.44	1.51
393.806	1.59
394.171	1.45
394.536	1.47
394.902	1.64
395.267	1.67
395.632	1.41
395.997	1.51
396.362	1.4
396.727	1.69
397.092	1.52
397.457	1.6
397.822	1.58
398.187	1.61
398.552	1.57
398.917	1.76
399.282	1.42
399.646	1.52
400.011	1.54
400.376	1.38
400.74	1.53
401.105	1.51
401.47	1.64
401.834	1.47
402.199	1.53
402.563	1.46
402.927	1.65
403.292	1.54
403.656	1.47
404.02	1.59
404.384	1.6
404.749	1.4
405.113	1.59
405.477	1.58
405.841	1.44
406.205	1.54
406.569	1.48
406.933	1.47
407.296	1.53
407.66	1.54
408.024	1.39
408.388	1.55
408.752	1.54
409.115	1.6
409.479	1.55
409.842	1.54
410.206	1.42
410.569	1.37
410.933	1.41
411.296	1.3
411.66	1.48
412.023	1.35
412.386	1.42
412.749	1.38
413.113	1.44
413.476	1.34
413.839	1.37
414.202	1.32
414.565	1.34
414.928	1.32
415.291	1.34
415.654	1.31
416.017	1.41
416.38	1.33
416.742	1.4
417.105	1.4
417.468	1.31
417.83	1.54
418.193	1.33
418.556	1.4
418.918	1.26
419.281	1.33
419.643	1.42
420.005	1.28
420.368	1.27
420.73	1.3
421.092	1.41
421.455	1.48
421.817	1.28
422.179	1.26
422.541	1.29
422.903	1.48
423.265	1.37
423.627	1.28
423.989	1.3
424.351	1.3
424.713	1.27
425.075	1.24
425.436	1.33
425.798	1.38
426.16	1.29
426.521	1.31
426.883	1.3
427.245	1.23
427.606	1.21
427.967	1.21
428.329	1.23
428.69	1.34
429.052	1.26
429.413	1.31
429.774	1.3
430.135	1.33
430.497	1.28
430.858	1.26
431.219	1.31
431.58	1.29
431.941	1.23
432.302	1.21
432.663	1.2
433.024	1.3
433.384	1.26
433.745	1.19
434.106	1.3
434.467	1.24
434.827	1.22
435.188	1.23
435.548	1.26
435.909	1.26
436.269	1.28
436.63	1.2
436.99	1.22
437.351	1.16
437.711	1.22
438.071	1.22
438.431	1.18
438.792	1.21
439.152	1.21
439.512	1.15
439.872	1.17
440.232	1.2
440.592	1.21
440.952	1.14
441.312	1.11
441.671	1.09
442.031	1.12
442.391	1.1
442.751	1.15
443.11	1.11
443.47	1.1
443.83	1.05
444.189	1.07
444.549	1.1
444.908	1.06
445.267	1.08
445.627	1.08
445.986	1.06
446.345	1
446.705	1.05
447.064	1.05
447.423	1.03
447.782	1.04
448.141	1
448.5	0.96
448.859	0.99
449.218	0.99
449.577	1.02
449.936	0.99
450.295	0.97
450.653	0.97
451.012	1
451.371	0.96
451.729	0.98
452.088	0.98
452.447	0.98
452.805	0.96
453.163	0.95
453.522	0.91
453.88	0.93
454.239	0.92
454.597	0.91
454.955	0.87
455.313	0.89
455.671	0.88
456.029	0.86
456.388	0.85
456.746	0.88
457.104	0.85
457.461	0.84
457.819	0.83
458.177	0.81
458.535	0.8
458.893	0.8
459.25	0.8
459.608	0.78
459.966	0.76
460.323	0.76
460.681	0.74
461.038	0.75
461.396	0.74
461.753	0.72
462.111	0.72
462.468	0.7
462.825	0.69
463.182	0.69
463.54	0.68
463.897	0.68
464.254	0.66
464.611	0.65
464.968	0.65
465.325	0.66
465.682	0.64
466.039	0.63
466.395	0.62
466.752	0.62
467.109	0.61
467.466	0.6
467.822	0.61
468.179	0.59
468.535	0.58
468.892	0.57
469.248	0.55
469.605	0.55
469.961	0.55
470.318	0.54
470.674	0.54
471.03	0.54
471.386	0.52
471.743	0.51
472.099	0.51
472.455	0.5
472.811	0.49
473.167	0.48
473.523	0.46
473.879	0.48
474.235	0.46
474.59	0.46
474.946	0.45
475.302	0.45
475.657	0.43
476.013	0.43
476.369	0.42
476.724	0.42
477.08	0.42
477.435	0.41
477.791	0.41
478.146	0.4
478.501	0.4
478.857	0.39
479.212	0.38
479.567	0.39
479.922	0.37
480.277	0.37
480.632	0.36
480.987	0.36
481.342	0.35
481.697	0.34
482.052	0.34
482.407	0.34
482.762	0.33
483.116	0.32
483.471	0.32
483.826	0.31
484.18	0.31
484.535	0.31
484.89	0.3
485.244	0.3
485.598	0.3
485.953	0.3
486.307	0.29
486.661	0.3
487.016	0.28
487.37	0.28
487.724	0.28
488.078	0.27
488.432	0.27
488.786	0.27
489.14	0.26
489.494	0.26
489.848	0.26
490.202	0.25
490.556	0.26
490.91	0.25
491.263	0.24
491.617	0.24
491.971	0.24
492.324	0.23
492.678	0.24
493.031	0.24
493.385	0.24
493.738	0.23
494.091	0.23
494.445	0.23
494.798	0.23
495.151	0.22
495.504	0.23
495.857	0.22
496.21	0.22
496.564	0.22
496.916	0.22
497.269	0.21
497.622	0.21
497.975	0.21
498.328	0.21
498.681	0.21
499.033	0.2
499.386	0.2
499.739	0.19
500.091	0.19
500.444	0.19
500.796	0.2
501.149	0.2
501.501	0.2
501.854	0.19
502.206	0.19
502.558	0.19
502.91	0.19
503.263	0.18
503.615	0.19
503.967	0.18
504.319	0.19
504.671	0.19
505.023	0.18
505.375	0.18
505.726	0.19
506.078	0.18
506.43	0.18
506.782	0.18
507.133	0.19
507.485	0.19
507.837	0.19
508.188	0.19
508.54	0.19
508.891	0.19
509.243	0.18
509.594	0.18
509.945	0.18
510.296	0.18
510.648	0.18
510.999	0.18
511.35	0.17
511.701	0.18
512.052	0.18
512.403	0.18
512.754	0.18
513.105	0.18
513.456	0.17
513.807	0.17
514.157	0.18
514.508	0.18
514.859	0.17
515.209	0.17
515.56	0.17
515.91	0.18
516.261	0.18
516.611	0.17
516.962	0.17
517.312	0.18
517.662	0.18
518.013	0.17
518.363	0.17
518.713	0.17
519.063	0.18
519.413	0.17
519.763	0.17
520.113	0.18
520.463	0.18
520.813	0.18
521.163	0.18
521.512	0.17
521.862	0.18
522.212	0.18
522.562	0.18
522.911	0.18
523.261	0.18
523.61	0.17
523.96	0.18
524.309	0.18
524.658	0.18
525.008	0.18
525.357	0.18
525.706	0.18
526.056	0.18
526.405	0.18
526.754	0.18
527.103	0.17
527.452	0.17
527.801	0.18
528.15	0.18
528.499	0.18
528.847	0.18
529.196	0.18
529.545	0.19
529.893	0.19
530.242	0.19
530.591	0.19
530.939	0.19
531.288	0.19
531.636	0.19
531.985	0.19
532.333	0.18
532.681	0.18
533.029	0.19
533.378	0.19
533.726	0.18
534.074	0.19
534.422	0.18
534.77	0.19
535.118	0.18
535.466	0.18
535.814	0.18
536.162	0.19
536.509	0.2
536.857	0.19
537.205	0.19
537.552	0.19
537.9	0.19
538.248	0.19
538.595	0.18
538.943	0.2
539.29	0.19
539.637	0.18
539.985	0.19
540.332	0.19
540.679	0.19
541.026	0.19
541.373	0.19
541.721	0.18
542.068	0.18
542.415	0.19
542.762	0.18
543.108	0.18
543.455	0.18
543.802	0.18
544.149	0.18
544.496	0.18
544.842	0.18
545.189	0.18
545.535	0.18
545.882	0.18
546.228	0.18
546.575	0.17
546.921	0.17
547.267	0.17
547.614	0.17
547.96	0.18
548.306	0.17
548.652	0.18
548.998	0.18
549.344	0.18
549.69	0.18
550.036	0.18
550.382	0.18
550.728	0.18
551.074	0.19
551.42	0.18
551.765	0.18
552.111	0.19
552.457	0.19
552.802	0.19
553.148	0.18
553.493	0.18
553.839	0.19
554.184	0.18
554.529	0.18
554.875	0.19
555.22	0.19
555.565	0.19
555.91	0.19
556.255	0.18
556.6	0.19
556.945	0.18
557.29	0.19
557.635	0.19
557.98	0.19
558.325	0.19
558.67	0.19
559.014	0.19
559.359	0.19
559.704	0.19
560.048	0.18
560.393	0.18
560.737	0.18
561.082	0.18
561.426	0.17
561.77	0.18
562.115	0.18
562.459	0.18
562.803	0.18
563.147	0.19
563.491	0.19
563.835	0.19
564.179	0.18
564.523	0.18
564.867	0.18
565.211	0.18
565.555	0.19
565.899	0.19
566.242	0.19
566.586	0.18
566.93	0.19
567.273	0.19
567.617	0.18
567.96	0.19
568.304	0.19
568.647	0.19
568.99	0.19
569.334	0.2
569.677	0.19
570.02	0.19
570.363	0.19
570.706	0.19
571.049	0.19
571.392	0.2
571.735	0.19
572.078	0.19
572.421	0.2
572.764	0.2
573.106	0.2
573.449	0.19
573.792	0.19
574.134	0.19
574.477	0.19
574.819	0.19
575.162	0.19
575.504	0.18
575.847	0.19
576.189	0.19
576.531	0.19
576.873	0.18
577.215	0.19
577.558	0.19
577.9	0.18
578.242	0.19
578.584	0.18
578.926	0.19
579.267	0.18
579.609	0.19
579.951	0.19
580.293	0.19
580.634	0.19
580.976	0.19
581.318	0.18
581.659	0.18
582.001	0.19
582.342	0.18
582.683	0.18
583.025	0.18
583.366	0.18
583.707	0.19
584.049	0.18
584.39	0.18
584.731	0.18
585.072	0.18
585.413	0.19
585.754	0.19
586.095	0.19
586.435	0.18
586.776	0.19
587.117	0.18
587.458	0.18
587.798	0.18
588.139	0.19
588.48	0.18
588.82	0.18
589.161	0.18
589.501	0.18
589.841	0.18
590.182	0.18
590.522	0.18
590.862	0.19
591.202	0.19
591.542	0.18
591.882	0.18
592.222	0.19
592.562	0.18
592.902	0.18
593.242	0.18
593.582	0.18
593.922	0.18
594.261	0.18
594.601	0.18
594.941	0.18
595.28	0.18
595.62	0.18
595.959	0.17
596.299	0.18
596.638	0.18
596.977	0.19
597.317	0.19
597.656	0.18
597.995	0.18
598.334	0.19
598.673	0.19
599.012	0.18
599.351	0.19
599.69	0.19
600.029	0.19
600.368	0.19
600.707	0.2
601.046	0.19
601.384	0.19
601.723	0.19
602.061	0.18
602.4	0.19
602.738	0.19
603.077	0.19
603.415	0.18
603.754	0.19
604.092	0.19
604.43	0.18
604.768	0.18
605.107	0.19
605.445	0.18
605.783	0.18
606.121	0.18
606.459	0.19
606.796	0.18
607.134	0.17
607.472	0.18
607.81	0.18
608.148	0.17
608.485	0.18
608.823	0.18
609.16	0.18
609.498	0.19
609.835	0.18
610.173	0.18
610.51	0.18
610.847	0.18
611.185	0.18
611.522	0.18
611.859	0.18
612.196	0.18
612.533	0.18
612.87	0.19
613.207	0.18
613.544	0.19
613.881	0.19
614.217	0.19
614.554	0.18
614.891	0.18
615.228	0.19
615.564	0.19
615.901	0.19
616.237	0.18
616.574	0.18
616.91	0.2
617.246	0.19
617.583	0.19
617.919	0.19
618.255	0.19
618.591	0.18
618.927	0.19
619.263	0.19
619.599	0.18
619.935	0.18
620.271	0.19
620.607	0.18
620.943	0.19
621.279	0.18
621.614	0.18
621.95	0.18
622.286	0.18
622.621	0.18
622.957	0.18
623.292	0.18
623.627	0.18
623.963	0.18
624.298	0.18
624.633	0.18
624.968	0.17
625.304	0.17
625.639	0.17
625.974	0.17
626.309	0.17
626.644	0.17
626.979	0.18
627.313	0.18
627.648	0.17
627.983	0.18
628.318	0.17
628.652	0.16
628.987	0.17
629.321	0.17
629.656	0.17
629.99	0.16
630.325	0.16
630.659	0.17
630.993	0.16
631.327	0.17
631.662	0.16
631.996	0.16
632.33	0.16
632.664	0.16
632.998	0.16
633.332	0.17
633.666	0.16
633.999	0.16
634.333	0.16
634.667	0.15
635.001	0.16
635.334	0.15
635.668	0.15
636.001	0.15
636.335	0.15
636.668	0.16
637.001	0.15
637.335	0.15
637.668	0.16
638.001	0.15
638.334	0.16
638.668	0.15
639.001	0.15
639.334	0.15
639.667	0.16
639.999	0.15
640.332	0.16
640.665	0.15
640.998	0.15
641.331	0.16
641.663	0.15
641.996	0.15
642.328	0.16
642.661	0.16
642.993	0.16
643.326	0.16
643.658	0.15
643.99	0.16
644.323	0.15
644.655	0.16
644.987	0.16
645.319	0.16
645.651	0.16
645.983	0.16
646.315	0.16
646.647	0.16
646.979	0.17
647.31	0.17
647.642	0.16
647.974	0.15
648.305	0.16
648.637	0.16
648.968	0.15
649.3	0.16
649.631	0.16
649.963	0.15
650.294	0.15
650.625	0.15
650.957	0.16
651.288	0.15
651.619	0.16
651.95	0.16
652.281	0.16
652.612	0.15
652.943	0.16
653.274	0.16
653.604	0.16
653.935	0.16
654.266	0.16
654.596	0.15
654.927	0.15
655.258	0.15
655.588	0.16
655.918	0.16
656.249	0.14
656.579	0.15
656.909	0.14
657.24	0.14
657.57	0.15
657.9	0.15
658.23	0.15
658.56	0.15
658.89	0.15
659.22	0.15
659.55	0.15
659.88	0.15
660.209	0.15
660.539	0.16
660.869	0.15
661.198	0.15
661.528	0.15
661.857	0.14
662.187	0.14
662.516	0.15
662.846	0.14
663.175	0.14
663.504	0.14
663.833	0.14
664.163	0.14
664.492	0.14
664.821	0.14
665.15	0.14
665.479	0.14
665.807	0.14
666.136	0.14
666.465	0.14
666.794	0.14
667.122	0.14
667.451	0.15
667.78	0.16
668.108	0.14
668.437	0.15
668.765	0.15
669.093	0.15
669.422	0.15
669.75	0.15
670.078	0.14
670.406	0.15
670.734	0.14
671.062	0.15
671.39	0.14
671.718	0.14
672.046	0.14
672.374	0.14
672.702	0.13
673.029	0.14
673.357	0.14
673.685	0.15
674.012	0.14
674.34	0.13
674.667	0.14
674.995	0.14
675.322	0.14
675.649	0.13
675.977	0.14
676.304	0.14
676.631	0.14
676.958	0.14
677.285	0.13
677.612	0.13
677.939	0.13
678.266	0.14
678.593	0.13
678.92	0.13
679.246	0.13
679.573	0.13
679.9	0.13
680.226	0.13
680.553	0.12
680.879	0.13
681.206	0.14
681.532	0.12
681.858	0.13
682.184	0.14
682.511	0.13
682.837	0.13
683.163	0.14
683.489	0.13
683.815	0.13
684.141	0.13
684.467	0.13
684.793	0.13
685.118	0.13
685.444	0.13
685.77	0.13
686.095	0.13
686.421	0.13
686.746	0.13
687.072	0.13
687.397	0.12
687.723	0.12
688.048	0.13
688.373	0.13
688.698	0.12
689.023	0.12
689.349	0.12
689.674	0.12
689.999	0.12
690.323	0.11
690.648	0.11
690.973	0.12
691.298	0.11
691.623	0.12
691.947	0.12
692.272	0.11
692.596	0.12
692.921	0.12
693.245	0.12
693.57	0.13
693.894	0.12
694.218	0.12
694.543	0.12
694.867	0.12
695.191	0.12
695.515	0.12
695.839	0.11
696.163	0.12
696.487	0.13
696.811	0.11
697.135	0.13
697.458	0.12
697.782	0.12
698.106	0.12
698.429	0.12
698.753	0.12
699.076	0.12
699.4	0.11
699.723	0.12
700.046	0.11
700.37	0.12
700.693	0.12
701.016	0.12
701.339	0.12
701.662	0.12
701.985	0.12
702.308	0.12
702.631	0.12
702.954	0.12
703.277	0.12
703.599	0.11
703.922	0.11
704.245	0.11
704.567	0.11
704.89	0.11
705.212	0.11
705.535	0.1
705.857	0.1
706.179	0.1
706.502	0.1
706.824	0.1
707.146	0.1
707.468	0.11
707.79	0.1
708.112	0.11
708.434	0.11
708.756	0.11
709.078	0.12
709.399	0.1
709.721	0.11
710.043	0.11
710.364	0.11
710.686	0.11
711.007	0.11
711.329	0.11
711.65	0.11
711.972	0.11
712.293	0.11
712.614	0.11
712.935	0.12
713.256	0.11
713.577	0.12
713.898	0.11
714.219	0.11
714.54	0.1
714.861	0.1
715.182	0.11
715.503	0.1
715.823	0.1
716.144	0.1
716.464	0.1
716.785	0.09
717.105	0.1
717.426	0.1
717.746	0.09
718.066	0.09
718.387	0.09
718.707	0.09
719.027	0.09
719.347	0.08
719.667	0.1
719.987	0.09
720.307	0.08
720.627	0.09
720.947	0.09
721.266	0.09
721.586	0.08
721.906	0.09
722.225	0.09
722.545	0.09
722.864	0.09
723.184	0.1
723.503	0.1
723.823	0.1
724.142	0.09
724.461	0.09
724.78	0.09
725.099	0.09
725.418	0.1
725.737	0.09
726.056	0.1
726.375	0.1
726.694	0.09
727.013	0.09
727.331	0.09
727.65	0.09
727.969	0.09
728.287	0.1
728.606	0.09
728.924	0.09
729.242	0.09
729.561	0.09
729.879	0.09
730.197	0.09
730.515	0.08
730.834	0.08
731.152	0.08
731.47	0.08
731.788	0.08
732.105	0.08
732.423	0.09
732.741	0.09
733.059	0.08
733.376	0.09
733.694	0.09
734.012	0.08
734.329	0.09
734.647	0.08
734.964	0.09
735.281	0.1
735.599	0.09
735.916	0.1
736.233	0.09
736.55	0.09
736.867	0.09
737.184	0.1
737.501	0.08
737.818	0.09
738.135	0.09
738.452	0.09
738.768	0.09
739.085	0.09
739.402	0.08
739.718	0.09
740.035	0.09
740.351	0.09
740.668	0.09
740.984	0.09
741.3	0.08
741.617	0.09
741.933	0.08
742.249	0.09
742.565	0.09
742.881	0.1
743.197	0.09
743.513	0.08
743.829	0.08
744.144	0.08
744.46	0.08
744.776	0.08
745.091	0.08
745.407	0.08
745.722	0.08
746.038	0.08
746.353	0.07
746.669	0.08
746.984	0.08
747.299	0.08
747.614	0.09
747.93	0.08
748.245	0.08
748.56	0.07
748.875	0.06
749.189	0.07
749.504	0.07
749.819	0.08
750.134	0.07
750.448	0.07
750.763	0.08
751.078	0.06
751.392	0.07
751.707	0.08
752.021	0.08
752.335	0.08
752.65	0.08
752.964	0.08
753.278	0.08
753.592	0.08
753.906	0.06
754.22	0.08
754.534	0.08
754.848	0.07
755.162	0.07
755.476	0.08
755.789	0.08
756.103	0.06
756.417	0.08
756.73	0.07
757.044	0.07
757.357	0.07
757.671	0.07
757.984	0.08
758.297	0.08
758.61	0.08
758.924	0.07
759.237	0.08
759.55	0.08
759.863	0.07
760.176	0.08
760.488	0.07
760.801	0.07
761.114	0.07
761.427	0.07
761.739	0.07
762.052	0.07
762.365	0.07
762.677	0.07
762.99	0.06
763.302	0.07
763.614	0.07
763.926	0.07
764.239	0.07
764.551	0.07
764.863	0.07
765.175	0.08
765.487	0.07
765.799	0.06
766.111	0.06
766.423	0.07
766.734	0.07
767.046	0.06
767.358	0.07
767.669	0.07
767.981	0.07
768.292	0.06
768.604	0.07
768.915	0.07
769.226	0.07
769.537	0.06
769.849	0.07
770.16	0.07
770.471	0.06
770.782	0.06
771.093	0.06
771.404	0.05
771.715	0.06
772.025	0.06
772.336	0.07
772.647	0.06
772.957	0.06
773.268	0.06
773.578	0.07
773.889	0.07
774.199	0.07
774.51	0.07
774.82	0.07
775.13	0.07
775.44	0.07
775.75	0.07
776.06	0.07
776.37	0.07
776.68	0.07
776.99	0.06
777.3	0.06
777.61	0.08
777.92	0.07
778.229	0.07
778.539	0.07
778.848	0.07
779.158	0.07
779.467	0.08
779.777	0.07
780.086	0.07
780.395	0.06
780.704	0.06
781.013	0.05
781.323	0.06
781.632	0.06
781.941	0.06
782.249	0.06
782.558	0.06
782.867	0.07
783.176	0.05
783.485	0.06
783.793	0.06
784.102	0.06
784.41	0.06
784.719	0.06
785.027	0.06
785.335	0.06
785.644	0.06
785.952	0.05
786.26	0.06
786.568	0.05
786.876	0.05
787.184	0.06
787.492	0.07
787.8	0.06
788.108	0.06
788.416	0.06
788.723	0.07
789.031	0.05
789.338	0.06
789.646	0.06
789.953	0.06
790.261	0.07
790.568	0.07
790.876	0.06
791.183	0.07
791.49	0.06
791.797	0.06
792.104	0.06
792.411	0.06
792.718	0.06
793.025	0.07
793.332	0.07
793.639	0.07
793.945	0.07
794.252	0.08
794.559	0.07
794.865	0.07
795.172	0.06
795.478	0.06
795.784	0.07
796.091	0.07
796.397	0.07
796.703	0.06
797.009	0.07
797.315	0.07
797.622	0.07
797.927	0.07
798.233	0.06
798.539	0.07
798.845	0.07
799.151	0.07
799.456	0.07
799.762	0.07
800.068	0.07
800.373	0.08
800.679	0.07
800.984	0.07
801.289	0.06
801.595	0.07
801.9	0.07
802.205	0.07
802.51	0.07
802.815	0.07
803.12	0.07
803.425	0.07
803.73	0.07
804.035	0.07
804.339	0.06
804.644	0.07
804.949	0.06
805.253	0.06
805.558	0.06
805.862	0.06
806.167	0.06
806.471	0.06
806.775	0.06
807.08	0.06
807.384	0.05
807.688	0.06
807.992	0.06
808.296	0.06
808.6	0.07
808.904	0.07
809.207	0.05
809.511	0.07
809.815	0.07
810.119	0.05
810.422	0.06
810.726	0.07
811.029	0.08
811.332	0.07
811.636	0.07
811.939	0.06
812.242	0.07
812.546	0.07
812.849	0.07
813.152	0.08
813.455	0.07
813.758	0.07
814.06	0.07
814.363	0.07
814.666	0.07
814.969	0.07
815.271	0.07
815.574	0.06
815.877	0.07
816.179	0.07
816.481	0.06
816.784	0.06
817.086	0.06
817.388	0.06
817.69	0.06
817.993	0.05
818.295	0.06
818.597	0.06
818.899	0.05
819.2	0.06
819.502	0.05
819.804	0.05
820.106	0.04
820.407	0.04
820.709	0.05
821.01	0.05
821.312	0.06
821.613	0.05
821.915	0.05
822.216	0.05
822.517	0.04
822.818	0.05
823.119	0.05
823.42	0.05
823.721	0.04
824.022	0.05
824.323	0.05
824.624	0.05
824.925	0.05
825.226	0.06
825.526	0.04
825.827	0.04
826.127	0.05
826.428	0.05
826.728	0.04
827.028	0.04
827.329	0.04
827.629	0.03
827.929	0.04
828.229	0.04
828.529	0.05
828.829	0.05
829.129	0.04
829.429	0.04
829.729	0.04
830.029	0.03
830.328	0.04
830.628	0.03
830.927	0.04
831.227	0.03
831.526	0.04
831.826	0.04
832.125	0.04
832.424	0.03
832.724	0.03
833.023	0.04
833.322	0.04
833.621	0.03
833.92	0.02
834.219	0.03
834.518	0.03
834.816	0.02
835.115	0.03
835.414	0.02
835.712	0.03
836.011	0.02
836.309	0.03
836.608	0.02
836.906	0.02
837.205	0
837.503	0.01
837.801	0.01
838.099	0.01
838.397	-0
838.695	-0
838.993	0
839.291	-0.01
839.589	-0
839.887	-0
840.184	-0.01
840.482	-0.01
840.78	0
841.077	-0.01
841.375	-0
841.672	0
841.969	-0.01
842.267	-0.01
842.564	-0.01
842.861	-0
843.158	-0.01
843.455	-0.02
843.752	-0.02
844.049	-0.01
844.346	-0.01
844.643	-0.02
844.94	-0.02
845.236	-0.01
845.533	-0.02
845.83	-0.01
846.126	-0.01
846.423	-0.02
846.719	-0.03
847.015	-0.02
847.312	-0.02
847.608	-0.03
847.904	-0.03
848.2	-0.03
848.496	-0.03
848.792	-0.03
849.088	-0.02
849.384	-0.03
849.68	-0.04
849.975	-0.02
850.271	-0.05
850.567	-0.04
850.862	-0.04
851.158	-0.05
851.453	-0.03
851.748	-0.05
852.044	-0.05
852.339	-0.05
852.634	-0.06
852.929	-0.05
853.224	-0.05
853.519	-0.05
853.814	-0.04
854.109	-0.05
854.404	-0.06
854.699	-0.05
854.994	-0.05
855.288	-0.06
855.583	-0.05
855.877	-0.06
856.172	-0.05
856.466	-0.06
856.76	-0.06
857.055	-0.06
857.349	-0.08
857.643	-0.07
857.937	-0.08
858.231	-0.08
858.525	-0.08
858.819	-0.08
859.113	-0.09
859.407	-0.09
859.701	-0.1
859.994	-0.1
860.288	-0.1
860.581	-0.09
860.875	-0.1
861.168	-0.1
861.462	-0.09
861.755	-0.09
862.048	-0.11
862.341	-0.1
862.634	-0.1
862.928	-0.1
863.221	-0.11
863.513	-0.11
863.806	-0.1
864.099	-0.11
864.392	-0.1
864.685	-0.1
864.977	-0.11
865.27	-0.11
865.562	-0.11
865.855	-0.11
866.147	-0.13
866.44	-0.09
866.732	-0.11
867.024	-0.12
867.316	-0.12
867.608	-0.12
867.9	-0.12
868.192	-0.12
868.484	-0.13
868.776	-0.13
869.068	-0.13
869.359	-0.12
869.651	-0.13
869.943	-0.14
870.234	-0.13
870.526	-0.14
870.817	-0.15
871.108	-0.12
871.4	-0.13
871.691	-0.14
871.982	-0.15
872.273	-0.15
872.564	-0.14
872.855	-0.14
873.146	-0.15
873.437	-0.14
873.728	-0.16
874.019	-0.15
874.309	-0.16
874.6	-0.16
874.89	-0.15
875.181	-0.16
875.471	-0.15
875.762	-0.15
876.052	-0.15
876.342	-0.15
876.632	-0.14
876.922	-0.16
877.213	-0.16
877.503	-0.17
877.792	-0.17
878.082	-0.17
878.372	-0.16
878.662	-0.19
878.952	-0.17
879.241	-0.17
879.531	-0.16
879.82	-0.17
880.11	-0.16
880.399	-0.17
880.688	-0.15
880.978	-0.15
881.267	-0.15
