Data from 12-12-AQDScycling_Absorbance__9__00009.txt Node

Date: Tue Dec 12 10:58:59 EST 2023
User: kyuminlee
Spectrometer: FLMS00943
Trigger mode: 0
Integration Time (sec): 1.000000E-1
Scans to average: 1
Electric dark correction enabled: true
Nonlinearity correction enabled: false
Boxcar width: 0
XAxis mode: Wavelengths
Number of Pixels in Spectrum: 2048
>>>>>Begin Spectral Data<<<<<
179.651	-0
180.037	-0
180.424	-0
180.81	-0
181.197	0.25
181.583	-0
181.97	-0.47
182.356	-0
182.743	-0
183.129	0.38
183.515	-0.03
183.901	-2.26
184.288	0.09
184.674	1.81
185.06	-0.66
185.446	-0
185.832	-1.05
186.218	0.41
186.604	-0
186.99	-0
187.376	0.19
187.762	0.08
188.148	0.04
188.534	-0.23
188.92	0.11
189.305	0.03
189.691	0.07
190.077	0.17
190.463	0.14
190.848	-0.06
191.234	0.22
191.619	0.09
192.005	0.11
192.391	0.12
192.776	0.15
193.161	0.03
193.547	0.23
193.932	0.17
194.318	-0.02
194.703	0.22
195.088	0.28
195.473	0.13
195.859	0.07
196.244	0.18
196.629	0.16
197.014	0.1
197.399	0.14
197.784	0.17
198.169	0.11
198.554	0.24
198.939	0.16
199.324	0.04
199.709	0.04
200.094	0.1
200.478	0.08
200.863	0.18
201.248	0.21
201.633	0.14
202.017	0.03
202.402	0.29
202.787	0.02
203.171	0.06
203.556	0.21
203.94	0.2
204.325	0.12
204.709	0.11
205.093	0.06
205.478	0.04
205.862	0.06
206.246	0.06
206.631	0.06
207.015	0.11
207.399	0.12
207.783	0.08
208.167	0.11
208.551	0.17
208.935	0.16
209.319	0.13
209.703	0.1
210.087	0.16
210.471	-0.02
210.855	0.12
211.239	0.23
211.623	0.2
212.007	0.19
212.39	0.51
212.774	0.23
213.158	0.03
213.541	0.25
213.925	0.26
214.309	0.3
214.692	0.29
215.076	0.15
215.459	0.16
215.842	0.25
216.226	0.15
216.609	0.31
216.993	0.13
217.376	0.57
217.759	0.2
218.142	0.21
218.525	0.43
218.909	0.3
219.292	0.29
219.675	0.39
220.058	0.41
220.441	0.42
220.824	0.43
221.207	0.38
221.59	0.58
221.973	0.54
222.355	0.59
222.738	0.63
223.121	0.63
223.504	0.54
223.886	0.72
224.269	0.69
224.652	0.64
225.034	0.7
225.417	0.68
225.799	0.99
226.182	0.77
226.564	0.84
226.947	0.71
227.329	0.73
227.711	0.97
228.094	0.88
228.476	1.06
228.858	0.81
229.24	0.84
229.623	0.99
230.005	0.81
230.387	0.83
230.769	0.88
231.151	1.01
231.533	0.93
231.915	0.92
232.297	1.21
232.679	0.84
233.061	0.96
233.442	1.02
233.824	0.97
234.206	1.08
234.588	1.01
234.969	1.03
235.351	1.01
235.733	1.09
236.114	1.09
236.496	1.08
236.877	1.09
237.259	1
237.64	1.1
238.022	0.93
238.403	1.07
238.784	0.93
239.165	0.96
239.547	1.17
239.928	1.2
240.309	1.1
240.69	0.98
241.071	1.12
241.452	1.06
241.834	1.01
242.215	1.08
242.595	1.05
242.976	1.1
243.357	1.24
243.738	1.05
244.119	1.32
244.5	1.03
244.881	1.34
245.261	1.07
245.642	1.16
246.023	1.11
246.403	1.15
246.784	1.24
247.164	1.17
247.545	1.21
247.925	1.26
248.306	1.19
248.686	1.48
249.067	1.17
249.447	1.36
249.827	1.62
250.207	1.52
250.588	1.28
250.968	1.4
251.348	1.31
251.728	1.32
252.108	1.32
252.488	1.47
252.868	1.28
253.248	1.31
253.628	1.37
254.008	1.74
254.388	1.38
254.768	1.32
255.147	1.35
255.527	1.27
255.907	1.4
256.287	1.41
256.666	1.42
257.046	1.41
257.425	1.41
257.805	1.26
258.184	1.22
258.564	1.35
258.943	1.38
259.323	1.44
259.702	1.43
260.081	1.7
260.461	1.47
260.84	1.33
261.219	1.81
261.598	1.52
261.977	1.38
262.356	1.47
262.736	1.4
263.115	1.54
263.494	1.37
263.873	1.41
264.251	1.59
264.63	1.67
265.009	1.39
265.388	1.5
265.767	1.31
266.145	1.32
266.524	1.53
266.903	1.38
267.281	1.35
267.66	1.57
268.039	1.38
268.417	1.41
268.796	1.3
269.174	1.41
269.552	1.32
269.931	1.45
270.309	1.44
270.687	1.53
271.066	1.52
271.444	1.3
271.822	1.6
272.2	1.45
272.578	1.34
272.956	1.53
273.334	1.32
273.712	1.43
274.09	1.28
274.468	1.41
274.846	1.33
275.224	1.34
275.602	1.46
275.98	1.6
276.357	1.36
276.735	1.34
277.113	1.41
277.49	1.32
277.868	1.28
278.246	1.34
278.623	1.3
279.001	1.25
279.378	1.39
279.756	1.49
280.133	1.53
280.51	1.37
280.888	1.38
281.265	1.38
281.642	1.48
282.019	1.5
282.396	1.51
282.773	1.49
283.151	1.49
283.528	1.41
283.905	1.3
284.282	1.44
284.659	1.53
285.035	1.34
285.412	1.34
285.789	1.34
286.166	1.51
286.543	1.42
286.919	1.54
287.296	1.42
287.673	1.67
288.049	1.41
288.426	1.43
288.802	1.52
289.179	1.6
289.555	1.62
289.932	1.38
290.308	1.33
290.684	1.29
291.061	1.37
291.437	1.66
291.813	1.42
292.189	1.33
292.565	1.3
292.942	1.33
293.318	1.4
293.694	1.5
294.07	1.32
294.446	1.47
294.822	1.58
295.197	1.34
295.573	1.46
295.949	1.52
296.325	1.51
296.701	1.45
297.076	1.54
297.452	1.65
297.828	1.42
298.203	1.58
298.579	1.39
298.954	1.46
299.33	1.46
299.705	1.41
300.081	1.43
300.456	1.38
300.831	1.51
301.206	1.46
301.582	1.54
301.957	1.48
302.332	1.73
302.707	1.44
303.082	1.33
303.457	1.42
303.832	1.54
304.207	1.3
304.582	1.54
304.957	1.64
305.332	1.51
305.707	1.42
306.082	1.63
306.456	1.57
306.831	1.52
307.206	1.51
307.58	1.5
307.955	1.47
308.33	1.48
308.704	1.42
309.079	1.37
309.453	1.78
309.828	1.6
310.202	1.46
310.576	1.48
310.951	1.62
311.325	1.43
311.699	1.53
312.073	1.37
312.447	1.46
312.821	1.38
313.196	1.63
313.57	1.31
313.944	1.37
314.317	1.44
314.691	1.48
315.065	1.46
315.439	1.58
315.813	1.53
316.187	1.53
316.56	1.76
316.934	1.51
317.308	1.46
317.681	1.51
318.055	1.45
318.428	1.45
318.802	1.47
319.175	1.44
319.549	1.46
319.922	1.31
320.295	1.43
320.669	1.55
321.042	1.62
321.415	1.68
321.788	1.51
322.162	1.5
322.535	1.52
322.908	1.66
323.281	1.49
323.654	1.54
324.027	1.42
324.4	1.52
324.773	1.42
325.145	1.6
325.518	1.49
325.891	1.41
326.264	1.67
326.636	1.5
327.009	1.4
327.382	1.49
327.754	1.7
328.127	1.41
328.499	1.48
328.872	1.43
329.244	1.49
329.616	1.55
329.989	1.46
330.361	1.53
330.733	1.44
331.106	1.36
331.478	1.54
331.85	1.4
332.222	1.45
332.594	1.59
332.966	1.45
333.338	1.48
333.71	1.46
334.082	1.6
334.454	1.52
334.826	1.49
335.197	1.55
335.569	1.5
335.941	1.4
336.312	1.53
336.684	1.43
337.056	1.39
337.427	1.52
337.799	1.46
338.17	1.45
338.542	1.48
338.913	1.81
339.284	1.55
339.656	1.5
340.027	1.53
340.398	1.59
340.769	1.51
341.141	1.56
341.512	1.56
341.883	1.54
342.254	1.46
342.625	1.61
342.996	1.38
343.367	1.46
343.738	1.43
344.108	1.43
344.479	1.65
344.85	1.49
345.221	1.44
345.591	1.38
345.962	1.43
346.333	1.39
346.703	1.3
347.074	1.37
347.444	1.34
347.815	1.37
348.185	1.42
348.556	1.47
348.926	1.31
349.296	1.32
349.666	1.31
350.037	1.35
350.407	1.3
350.777	1.27
351.147	1.36
351.517	1.35
351.887	1.37
352.257	1.41
352.627	1.26
352.997	1.33
353.367	1.29
353.737	1.32
354.106	1.3
354.476	1.31
354.846	1.36
355.216	1.27
355.585	1.33
355.955	1.3
356.324	1.26
356.694	1.21
357.063	1.2
357.433	1.16
357.802	1.19
358.171	1.17
358.541	1.17
358.91	1.16
359.279	1.16
359.648	1.09
360.017	1.09
360.387	1.02
360.756	1.01
361.125	1.02
361.494	1
361.863	0.95
362.231	0.97
362.6	0.93
362.969	0.9
363.338	0.88
363.707	0.88
364.075	0.84
364.444	0.79
364.813	0.84
365.181	0.76
365.55	0.75
365.918	0.75
366.287	0.76
366.655	0.74
367.024	0.7
367.392	0.69
367.76	0.66
368.128	0.63
368.497	0.64
368.865	0.59
369.233	0.59
369.601	0.59
369.969	0.57
370.337	0.58
370.705	0.56
371.073	0.55
371.441	0.53
371.809	0.51
372.177	0.51
372.544	0.51
372.912	0.49
373.28	0.45
373.647	0.48
374.015	0.47
374.383	0.45
374.75	0.44
375.118	0.43
375.485	0.43
375.853	0.43
376.22	0.39
376.587	0.39
376.955	0.39
377.322	0.39
377.689	0.38
378.056	0.36
378.423	0.36
378.79	0.35
379.157	0.37
379.524	0.35
379.891	0.36
380.258	0.34
380.625	0.32
380.992	0.33
381.359	0.33
381.726	0.33
382.092	0.32
382.459	0.31
382.826	0.31
383.192	0.3
383.559	0.31
383.925	0.31
384.292	0.29
384.658	0.29
385.025	0.28
385.391	0.29
385.757	0.28
386.123	0.29
386.49	0.29
386.856	0.28
387.222	0.28
387.588	0.26
387.954	0.26
388.32	0.28
388.686	0.27
389.052	0.26
389.418	0.26
389.784	0.28
390.15	0.26
390.515	0.25
390.881	0.27
391.247	0.26
391.613	0.26
391.978	0.25
392.344	0.25
392.709	0.25
393.075	0.26
393.44	0.24
393.806	0.25
394.171	0.24
394.536	0.24
394.902	0.25
395.267	0.24
395.632	0.24
395.997	0.24
396.362	0.23
396.727	0.24
397.092	0.24
397.457	0.23
397.822	0.23
398.187	0.23
398.552	0.22
398.917	0.22
399.282	0.22
399.646	0.19
400.011	0.23
400.376	0.23
400.74	0.22
401.105	0.22
401.47	0.22
401.834	0.2
402.199	0.21
402.563	0.18
402.927	0.2
403.292	0.21
403.656	0.21
404.02	0.2
404.384	0.2
404.749	0.2
405.113	0.19
405.477	0.2
405.841	0.19
406.205	0.2
406.569	0.19
406.933	0.19
407.296	0.19
407.66	0.19
408.024	0.18
408.388	0.2
408.752	0.17
409.115	0.18
409.479	0.18
409.842	0.17
410.206	0.17
410.569	0.17
410.933	0.18
411.296	0.18
411.66	0.17
412.023	0.16
412.386	0.17
412.749	0.17
413.113	0.17
413.476	0.14
413.839	0.15
414.202	0.15
414.565	0.14
414.928	0.14
415.291	0.14
415.654	0.15
416.017	0.15
416.38	0.15
416.742	0.14
417.105	0.12
417.468	0.14
417.83	0.15
418.193	0.13
418.556	0.14
418.918	0.14
419.281	0.12
419.643	0.14
420.005	0.13
420.368	0.13
420.73	0.12
421.092	0.12
421.455	0.12
421.817	0.11
422.179	0.11
422.541	0.11
422.903	0.12
423.265	0.13
423.627	0.12
423.989	0.11
424.351	0.11
424.713	0.12
425.075	0.1
425.436	0.1
425.798	0.11
426.16	0.12
426.521	0.11
426.883	0.12
427.245	0.1
427.606	0.1
427.967	0.1
428.329	0.11
428.69	0.12
429.052	0.09
429.413	0.1
429.774	0.1
430.135	0.1
430.497	0.09
430.858	0.09
431.219	0.09
431.58	0.1
431.941	0.09
432.302	0.1
432.663	0.09
433.024	0.09
433.384	0.09
433.745	0.08
434.106	0.09
434.467	0.11
434.827	0.1
435.188	0.1
435.548	0.1
435.909	0.09
436.269	0.1
436.63	0.09
436.99	0.09
437.351	0.1
437.711	0.09
438.071	0.1
438.431	0.09
438.792	0.09
439.152	0.08
439.512	0.08
439.872	0.08
440.232	0.09
440.592	0.09
440.952	0.09
441.312	0.07
441.671	0.08
442.031	0.07
442.391	0.08
442.751	0.08
443.11	0.07
443.47	0.08
443.83	0.08
444.189	0.07
444.549	0.08
444.908	0.08
445.267	0.08
445.627	0.07
445.986	0.06
446.345	0.06
446.705	0.06
447.064	0.08
447.423	0.07
447.782	0.08
448.141	0.08
448.5	0.07
448.859	0.08
449.218	0.06
449.577	0.08
449.936	0.08
450.295	0.07
450.653	0.07
451.012	0.08
451.371	0.08
451.729	0.07
452.088	0.08
452.447	0.08
452.805	0.07
453.163	0.08
453.522	0.08
453.88	0.07
454.239	0.08
454.597	0.06
454.955	0.07
455.313	0.06
455.671	0.06
456.029	0.06
456.388	0.06
456.746	0.07
457.104	0.06
457.461	0.05
457.819	0.06
458.177	0.05
458.535	0.05
458.893	0.06
459.25	0.06
459.608	0.06
459.966	0.05
460.323	0.05
460.681	0.04
461.038	0.06
461.396	0.05
461.753	0.05
462.111	0.05
462.468	0.05
462.825	0.05
463.182	0.05
463.54	0.04
463.897	0.04
464.254	0.05
464.611	0.05
464.968	0.04
465.325	0.05
465.682	0.04
466.039	0.05
466.395	0.04
466.752	0.04
467.109	0.05
467.466	0.05
467.822	0.05
468.179	0.04
468.535	0.05
468.892	0.05
469.248	0.04
469.605	0.04
469.961	0.04
470.318	0.05
470.674	0.05
471.03	0.04
471.386	0.05
471.743	0.04
472.099	0.03
472.455	0.04
472.811	0.04
473.167	0.04
473.523	0.03
473.879	0.04
474.235	0.04
474.59	0.04
474.946	0.04
475.302	0.04
475.657	0.04
476.013	0.05
476.369	0.03
476.724	0.04
477.08	0.05
477.435	0.04
477.791	0.04
478.146	0.04
478.501	0.04
478.857	0.04
479.212	0.04
479.567	0.03
479.922	0.03
480.277	0.04
480.632	0.03
480.987	0.04
481.342	0.04
481.697	0.03
482.052	0.03
482.407	0.03
482.762	0.03
483.116	0.03
483.471	0.03
483.826	0.03
484.18	0.03
484.535	0.03
484.89	0.03
485.244	0.03
485.598	0.04
485.953	0.04
486.307	0.04
486.661	0.04
487.016	0.03
487.37	0.03
487.724	0.03
488.078	0.04
488.432	0.03
488.786	0.04
489.14	0.03
489.494	0.03
489.848	0.03
490.202	0.03
490.556	0.03
490.91	0.03
491.263	0.03
491.617	0.03
491.971	0.04
492.324	0.04
492.678	0.03
493.031	0.03
493.385	0.03
493.738	0.03
494.091	0.03
494.445	0.03
494.798	0.03
495.151	0.03
495.504	0.03
495.857	0.03
496.21	0.03
496.564	0.03
496.916	0.04
497.269	0.02
497.622	0.03
497.975	0.04
498.328	0.04
498.681	0.04
499.033	0.03
499.386	0.03
499.739	0.03
500.091	0.03
500.444	0.04
500.796	0.03
501.149	0.03
501.501	0.04
501.854	0.04
502.206	0.03
502.558	0.04
502.91	0.03
503.263	0.03
503.615	0.03
503.967	0.03
504.319	0.03
504.671	0.03
505.023	0.02
505.375	0.03
505.726	0.03
506.078	0.03
506.43	0.03
506.782	0.03
507.133	0.02
507.485	0.03
507.837	0.04
508.188	0.04
508.54	0.03
508.891	0.03
509.243	0.03
509.594	0.03
509.945	0.03
510.296	0.02
510.648	0.03
510.999	0.02
511.35	0.02
511.701	0.02
512.052	0.03
512.403	0.02
512.754	0.02
513.105	0.02
513.456	0.02
513.807	0.02
514.157	0.02
514.508	0.02
514.859	0.02
515.209	0.02
515.56	0.02
515.91	0.02
516.261	0.02
516.611	0.02
516.962	0.02
517.312	0.02
517.662	0.02
518.013	0.02
518.363	0.03
518.713	0.02
519.063	0.02
519.413	0.02
519.763	0.02
520.113	0.02
520.463	0.02
520.813	0.03
521.163	0.02
521.512	0.02
521.862	0.02
522.212	0.03
522.562	0.03
522.911	0.02
523.261	0.02
523.61	0.03
523.96	0.02
524.309	0.03
524.658	0.02
525.008	0.02
525.357	0.02
525.706	0.03
526.056	0.02
526.405	0.02
526.754	0.03
527.103	0.02
527.452	0.03
527.801	0.03
528.15	0.02
528.499	0.03
528.847	0.02
529.196	0.03
529.545	0.02
529.893	0.03
530.242	0.02
530.591	0.02
530.939	0.03
531.288	0.02
531.636	0.03
531.985	0.02
532.333	0.02
532.681	0.02
533.029	0.02
533.378	0.03
533.726	0.02
534.074	0.03
534.422	0.02
534.77	0.02
535.118	0.02
535.466	0.02
535.814	0.02
536.162	0.02
536.509	0.03
536.857	0.03
537.205	0.02
537.552	0.02
537.9	0.02
538.248	0.01
538.595	0.02
538.943	0.02
539.29	0.02
539.637	0.02
539.985	0.02
540.332	0.02
540.679	0.02
541.026	0.02
541.373	0.02
541.721	0.01
542.068	0.02
542.415	0.02
542.762	0.02
543.108	0.01
543.455	0.01
543.802	0.01
544.149	0.01
544.496	0.02
544.842	0.02
545.189	0.01
545.535	0.01
545.882	0.02
546.228	0.01
546.575	0.01
546.921	0.01
547.267	0.01
547.614	0.02
547.96	0.01
548.306	0.01
548.652	0.01
548.998	0.01
549.344	0.01
549.69	0.01
550.036	0.01
550.382	0.02
550.728	0.01
551.074	0.02
551.42	0.01
551.765	0.02
552.111	0.01
552.457	0.02
552.802	0.01
553.148	0.01
553.493	0.01
553.839	0.01
554.184	0.01
554.529	0.01
554.875	0.01
555.22	0.02
555.565	0.01
555.91	0.01
556.255	0.02
556.6	0.01
556.945	0
557.29	0
557.635	0.01
557.98	0.01
558.325	0.01
558.67	0.01
559.014	0.01
559.359	0.01
559.704	0.01
560.048	0
560.393	0.01
560.737	-0.01
561.082	0.01
561.426	-0.01
561.77	0
562.115	-0
562.459	0
562.803	0.01
563.147	0.01
563.491	0
563.835	0.01
564.179	0
564.523	0
564.867	0
565.211	-0
565.555	0.01
565.899	0.01
566.242	0.01
566.586	-0
566.93	0.01
567.273	0.01
567.617	0.01
567.96	0.01
568.304	0.01
568.647	-0
568.99	0.01
569.334	0.01
569.677	0
570.02	0.02
570.363	0.01
570.706	0.01
571.049	0.01
571.392	0.01
571.735	0.01
572.078	0.01
572.421	0.02
572.764	0.02
573.106	0.02
573.449	0.01
573.792	0.01
574.134	0.02
574.477	0.01
574.819	0.01
575.162	0.01
575.504	0.01
575.847	0.01
576.189	0.01
576.531	0.01
576.873	0.01
577.215	0.01
577.558	0.01
577.9	0.01
578.242	0.01
578.584	0
578.926	0
579.267	-0
579.609	-0
579.951	-0
580.293	-0
580.634	0
580.976	0.01
581.318	0.01
581.659	0.01
582.001	0.01
582.342	0.01
582.683	0.01
583.025	-0
583.366	0.01
583.707	0
584.049	0
584.39	0.01
584.731	0
585.072	-0
585.413	0
585.754	0
586.095	0
586.435	0
586.776	0.01
587.117	0
587.458	0
587.798	0.01
588.139	0
588.48	0
588.82	-0
589.161	-0
589.501	-0
589.841	-0
590.182	-0
590.522	-0.01
590.862	0
591.202	0
591.542	-0
591.882	0
592.222	0
592.562	-0
592.902	0
593.242	0
593.582	0
593.922	0.01
594.261	0
594.601	0.01
594.941	0
595.28	0.01
595.62	0.01
595.959	0.01
596.299	0
596.638	0
596.977	0
597.317	0.01
597.656	0.01
597.995	0.01
598.334	0.01
598.673	0
599.012	0
599.351	0.01
599.69	0.01
600.029	0.01
600.368	0.01
600.707	0.01
601.046	0.01
601.384	0.01
601.723	0.01
602.061	0
602.4	0.01
602.738	0.01
603.077	0.01
603.415	-0
603.754	0.01
604.092	0.01
604.43	0
604.768	0
605.107	0.01
605.445	0
605.783	0.01
606.121	0
606.459	0.01
606.796	0.01
607.134	0
607.472	0.01
607.81	0.01
608.148	0.01
608.485	0.01
608.823	0.01
609.16	0.01
609.498	0.01
609.835	0.01
610.173	0.01
610.51	0.01
610.847	0.02
611.185	0.02
611.522	0.02
611.859	0.02
612.196	0.02
612.533	0.02
612.87	0.03
613.207	0.02
613.544	0.02
613.881	0.03
614.217	0.02
614.554	0.02
614.891	0.02
615.228	0.01
615.564	0.02
615.901	0.02
616.237	0.02
616.574	0.02
616.91	0.02
617.246	0.02
617.583	0.02
617.919	0.02
618.255	0.03
618.591	0.02
618.927	0.02
619.263	0.02
619.599	0.02
619.935	0.02
620.271	0.02
620.607	0.02
620.943	0.02
621.279	0.02
621.614	0.02
621.95	0.03
622.286	0.01
622.621	0.02
622.957	0.02
623.292	0.02
623.627	0.01
623.963	0.01
624.298	0.01
624.633	0.01
624.968	0
625.304	0.01
625.639	0.01
625.974	0.01
626.309	0.01
626.644	0.02
626.979	0.02
627.313	0.01
627.648	0.02
627.983	0.02
628.318	0.02
628.652	0.01
628.987	0.01
629.321	0.02
629.656	0.01
629.99	0.01
630.325	0.01
630.659	0.01
630.993	0.01
631.327	0.01
631.662	0
631.996	0
632.33	0.01
632.664	0.01
632.998	0
633.332	-0
633.666	0
633.999	0
634.333	0
634.667	0.01
635.001	0
635.334	0.01
635.668	0
636.001	0.01
636.335	0
636.668	0.01
637.001	-0
637.335	0.01
637.668	0
638.001	-0
638.334	0.01
638.668	0
639.001	0.01
639.334	-0
639.667	0
639.999	0
640.332	0
640.665	0
640.998	0.01
641.331	0.01
641.663	0
641.996	0.01
642.328	0.01
642.661	0.01
642.993	0.01
643.326	0.01
643.658	0
643.99	0.01
644.323	0.01
644.655	0.01
644.987	0.01
645.319	0.01
645.651	0.01
645.983	0.01
646.315	0.01
646.647	0.02
646.979	0.02
647.31	0.02
647.642	0.02
647.974	0.01
648.305	0.02
648.637	0.02
648.968	0.02
649.3	0.02
649.631	0.02
649.963	0.01
650.294	0.02
650.625	0.01
650.957	0.02
651.288	0.02
651.619	0.02
651.95	0.01
652.281	0.01
652.612	0.02
652.943	0.02
653.274	0.02
653.604	0.01
653.935	0.01
654.266	0.02
654.596	0.01
654.927	0.01
655.258	0.02
655.588	0.02
655.918	0.02
656.249	0
656.579	0.02
656.909	0.02
657.24	0.02
657.57	0.02
657.9	0.02
658.23	0.02
658.56	0.03
658.89	0.03
659.22	0.02
659.55	0.02
659.88	0.03
660.209	0.03
660.539	0.03
660.869	0.03
661.198	0.03
661.528	0.02
661.857	0.02
662.187	0.03
662.516	0.02
662.846	0.02
663.175	0.02
663.504	0.02
663.833	0.01
664.163	0.03
664.492	0.02
664.821	0.02
665.15	0.02
665.479	0.02
665.807	0.01
666.136	0.02
666.465	0.02
666.794	0.02
667.122	0.02
667.451	0.02
667.78	0.02
668.108	0.02
668.437	0.01
668.765	0.02
669.093	0.02
669.422	0.02
669.75	0.02
670.078	0.02
670.406	0.02
670.734	0.03
671.062	0.02
671.39	0.02
671.718	0.02
672.046	0.02
672.374	0.02
672.702	0.02
673.029	0.02
673.357	0.03
673.685	0.03
674.012	0.02
674.34	0.02
674.667	0.03
674.995	0.03
675.322	0.02
675.649	0.02
675.977	0.02
676.304	0.02
676.631	0.02
676.958	0.02
677.285	0.01
677.612	0.01
677.939	0.01
678.266	0.02
678.593	0.01
678.92	0.01
679.246	0.01
679.573	0.01
679.9	0.01
680.226	0.01
680.553	0.01
680.879	0.01
681.206	0.01
681.532	0.01
681.858	0.01
682.184	0
682.511	0.01
682.837	0
683.163	0.01
683.489	0.01
683.815	0.01
684.141	0.01
684.467	0.01
684.793	0.01
685.118	0.01
685.444	0.01
685.77	0.01
686.095	0.02
686.421	0.01
686.746	0.02
687.072	0.02
687.397	0.01
687.723	0.02
688.048	0.02
688.373	0.01
688.698	0.01
689.023	0.02
689.349	0.01
689.674	0.01
689.999	0.01
690.323	0.01
690.648	0.01
690.973	0.01
691.298	0.01
691.623	0.01
691.947	0.01
692.272	0
692.596	0.01
692.921	0.01
693.245	0
693.57	0.01
693.894	0.02
694.218	0.01
694.543	0
694.867	0.01
695.191	-0
695.515	0.01
695.839	-0
696.163	0.01
696.487	0
696.811	0.01
697.135	0.01
697.458	0.01
697.782	0.01
698.106	0.01
698.429	0.01
698.753	0
699.076	0.01
699.4	0.01
699.723	0.01
700.046	0
700.37	0.02
700.693	0.02
701.016	0.01
701.339	0.01
701.662	0.02
701.985	0.02
702.308	0.01
702.631	0.01
702.954	0.02
703.277	0.01
703.599	0.01
703.922	0.01
704.245	0.01
704.567	-0
704.89	0.01
705.212	0
705.535	-0
705.857	-0.01
706.179	-0
706.502	-0.01
706.824	-0
707.146	-0
707.468	0
707.79	0
708.112	0.01
708.434	0
708.756	0
709.078	0.01
709.399	-0
709.721	-0
710.043	0
710.364	0
710.686	0
711.007	0
711.329	0.01
711.65	0
711.972	0.01
712.293	0.01
712.614	0.01
712.935	0.01
713.256	0.01
713.577	0.02
713.898	0.01
714.219	0.01
714.54	0.01
714.861	0.01
715.182	0.01
715.503	0.01
715.823	0.02
716.144	0.01
716.464	0.01
716.785	0
717.105	0.01
717.426	0.01
717.746	0.01
718.066	-0
718.387	0
718.707	-0
719.027	0.01
719.347	-0
719.667	-0
719.987	-0
720.307	-0
720.627	0
720.947	0
721.266	0
721.586	-0
721.906	0.01
722.225	-0
722.545	0.01
722.864	0
723.184	0.01
723.503	0.01
723.823	0.01
724.142	0
724.461	0.01
724.78	0.01
725.099	0.01
725.418	0.01
725.737	0.01
726.056	0.01
726.375	0.01
726.694	0.01
727.013	0.01
727.331	0.01
727.65	0
727.969	0.01
728.287	0.01
728.606	0.01
728.924	-0
729.242	0
729.561	0.01
729.879	0
730.197	0.01
730.515	0
730.834	0
731.152	0.01
731.47	0
731.788	0
732.105	0
732.423	0
732.741	0
733.059	0.01
733.376	0.01
733.694	-0
734.012	-0
734.329	0.01
734.647	0
734.964	0.01
735.281	0.01
735.599	0.01
735.916	0.01
736.233	0
736.55	0.02
736.867	0.01
737.184	0.01
737.501	0.01
737.818	0.01
738.135	0.02
738.452	0.01
738.768	0.01
739.085	0.01
739.402	0
739.718	0.01
740.035	0.01
740.351	0.01
740.668	0.02
740.984	-0
741.3	0.01
741.617	0.01
741.933	0.01
742.249	0.02
742.565	0.01
742.881	0.01
743.197	0.01
743.513	0
743.829	0.01
744.144	0
744.46	0.01
744.776	0.02
745.091	0
745.407	0.01
745.722	0.01
746.038	0.01
746.353	0
746.669	0.01
746.984	0
747.299	0.01
747.614	0.01
747.93	0.01
748.245	0.01
748.56	0.01
748.875	0
749.189	0.01
749.504	0.01
749.819	0.01
750.134	-0.01
750.448	0.01
750.763	0
751.078	-0
751.392	0
751.707	0.02
752.021	0.02
752.335	0.02
752.65	0.01
752.964	0.01
753.278	0.02
753.592	0.01
753.906	0.01
754.22	0.01
754.534	0.01
754.848	0.01
755.162	0.02
755.476	0.01
755.789	0.01
756.103	0.01
756.417	0.02
756.73	0.01
757.044	0.02
757.357	0.01
757.671	0.02
757.984	0.01
758.297	0.02
758.61	0.03
758.924	0.02
759.237	0.01
759.55	0.02
759.863	0.01
760.176	0.01
760.488	0.02
760.801	0.02
761.114	0.01
761.427	0.01
761.739	0.02
762.052	0.01
762.365	0.01
762.677	0.02
762.99	0.01
763.302	0.01
763.614	0.01
763.926	0.02
764.239	0.01
764.551	0.01
764.863	0.02
765.175	0.02
765.487	0.01
765.799	0.01
766.111	0.02
766.423	0.01
766.734	0.01
767.046	0.01
767.358	0.01
767.669	0.02
767.981	0.01
768.292	0.02
768.604	0.01
768.915	0.01
769.226	0.01
769.537	0
769.849	0.01
770.16	0.01
770.471	0
770.782	0.01
771.093	0.01
771.404	-0
771.715	0.01
772.025	0.01
772.336	-0
772.647	0
772.957	0
773.268	0.01
773.578	0
773.889	0.01
774.199	0.01
774.51	0.01
774.82	0.01
775.13	0.01
775.44	0.01
775.75	0.01
776.06	0.01
776.37	0.01
776.68	0.01
776.99	0.01
777.3	0.01
777.61	0.01
777.92	0.01
778.229	0
778.539	0.01
778.848	0.01
779.158	0.01
779.467	0.01
779.777	0
780.086	0.02
780.395	0
780.704	0.01
781.013	0
781.323	0.01
781.632	0.01
781.941	0.02
782.249	0.01
782.558	0.01
782.867	0.01
783.176	0.01
783.485	0
783.793	0.02
784.102	0.01
784.41	0.01
784.719	0.01
785.027	0.01
785.335	0.01
785.644	0.02
785.952	0.01
786.26	0.01
786.568	0
786.876	0.01
787.184	0.02
787.492	0.02
787.8	0.01
788.108	0.02
788.416	0.01
788.723	0.02
789.031	0.01
789.338	0.01
789.646	0.02
789.953	0.02
790.261	0.02
790.568	0.02
790.876	0.02
791.183	0.02
791.49	0.02
791.797	0.01
792.104	0.02
792.411	0.02
792.718	0.02
793.025	0.02
793.332	0.02
793.639	0.02
793.945	0.03
794.252	0.03
794.559	0.02
794.865	0.02
795.172	0.02
795.478	0.01
795.784	0.03
796.091	0.03
796.397	0.02
796.703	0.03
797.009	0.03
797.315	0.02
797.622	0.02
797.927	0.01
798.233	0.02
798.539	0.02
798.845	0.02
799.151	0.02
799.456	0.01
799.762	0.01
800.068	0.01
800.373	0.02
800.679	0.01
800.984	0.01
801.289	0.01
801.595	0.01
801.9	0.01
802.205	0.01
802.51	0.01
802.815	0.02
803.12	0.01
803.425	0.02
803.73	0.02
804.035	0.01
804.339	0.01
804.644	0.02
804.949	0.02
805.253	0.01
805.558	0.01
805.862	0.01
806.167	0.01
806.471	0.01
806.775	0.02
807.08	0.02
807.384	0.01
807.688	0.01
807.992	0.02
808.296	0.01
808.6	0.02
808.904	0.02
809.207	0.02
809.511	0.02
809.815	0.03
810.119	0.01
810.422	0.02
810.726	0.03
811.029	0.03
811.332	0.02
811.636	0.03
811.939	0.02
812.242	0.02
812.546	0.02
812.849	0.02
813.152	0.03
813.455	0.03
813.758	0.03
814.06	0.03
814.363	0.03
814.666	0.03
814.969	0.03
815.271	0.03
815.574	0.03
815.877	0.02
816.179	0.02
816.481	0.02
816.784	0.03
817.086	0.02
817.388	0.02
817.69	0.02
817.993	0.02
818.295	0.02
818.597	0.02
818.899	0.01
819.2	0.01
819.502	0.01
819.804	0.02
820.106	0.02
820.407	0.01
820.709	0.01
821.01	0.01
821.312	0.02
821.613	0
821.915	0.01
822.216	0
822.517	0
822.818	0
823.119	0.01
823.42	0
823.721	-0.01
824.022	0
824.323	0
824.624	0
824.925	0
825.226	0
825.526	0.01
825.827	-0
826.127	-0
826.428	0.01
826.728	0
827.028	0
827.329	0
827.629	-0
827.929	0
828.229	0
828.529	0
828.829	0.01
829.129	0
829.429	0.01
829.729	0
830.029	-0
830.328	-0
830.628	-0.01
830.927	-0
831.227	-0
831.526	0
831.826	-0.01
832.125	0
832.424	-0.01
832.724	0
833.023	-0.01
833.322	-0
833.621	-0
833.92	-0.01
834.219	-0.01
834.518	-0.01
834.816	-0.02
835.115	-0.01
835.414	-0.01
835.712	-0.01
836.011	-0.02
836.309	-0.02
836.608	-0.02
836.906	-0.02
837.205	-0.02
837.503	-0.02
837.801	-0.03
838.099	-0.03
838.397	-0.03
838.695	-0.03
838.993	-0.03
839.291	-0.04
839.589	-0.03
839.887	-0.04
840.184	-0.04
840.482	-0.05
840.78	-0.04
841.077	-0.05
841.375	-0.04
841.672	-0.04
841.969	-0.04
842.267	-0.04
842.564	-0.04
842.861	-0.04
843.158	-0.04
843.455	-0.05
843.752	-0.06
844.049	-0.06
844.346	-0.05
844.643	-0.05
844.94	-0.05
845.236	-0.05
845.533	-0.05
845.83	-0.05
846.126	-0.06
846.423	-0.06
846.719	-0.07
847.015	-0.06
847.312	-0.07
847.608	-0.06
847.904	-0.06
848.2	-0.08
848.496	-0.07
848.792	-0.07
849.088	-0.06
849.384	-0.08
849.68	-0.09
849.975	-0.08
850.271	-0.1
850.567	-0.1
850.862	-0.08
851.158	-0.09
851.453	-0.1
851.748	-0.1
852.044	-0.1
852.339	-0.1
852.634	-0.11
852.929	-0.1
853.224	-0.11
853.519	-0.1
853.814	-0.11
854.109	-0.11
854.404	-0.11
854.699	-0.11
854.994	-0.11
855.288	-0.11
855.583	-0.11
855.877	-0.12
856.172	-0.11
856.466	-0.11
856.76	-0.11
857.055	-0.12
857.349	-0.12
857.643	-0.13
857.937	-0.13
858.231	-0.13
858.525	-0.13
858.819	-0.13
859.113	-0.14
859.407	-0.14
859.701	-0.13
859.994	-0.14
860.288	-0.13
860.581	-0.13
860.875	-0.14
861.168	-0.14
861.462	-0.14
861.755	-0.14
862.048	-0.14
862.341	-0.13
862.634	-0.14
862.928	-0.13
863.221	-0.13
863.513	-0.14
863.806	-0.13
864.099	-0.13
864.392	-0.13
864.685	-0.12
864.977	-0.12
865.27	-0.13
865.562	-0.13
865.855	-0.12
866.147	-0.14
866.44	-0.13
866.732	-0.14
867.024	-0.15
867.316	-0.14
867.608	-0.15
867.9	-0.15
868.192	-0.15
868.484	-0.15
868.776	-0.15
869.068	-0.15
869.359	-0.15
869.651	-0.15
869.943	-0.17
870.234	-0.16
870.526	-0.16
870.817	-0.16
871.108	-0.15
871.4	-0.16
871.691	-0.17
871.982	-0.17
872.273	-0.17
872.564	-0.17
872.855	-0.16
873.146	-0.17
873.437	-0.17
873.728	-0.18
874.019	-0.17
874.309	-0.17
874.6	-0.17
874.89	-0.18
875.181	-0.18
875.471	-0.17
875.762	-0.17
876.052	-0.18
876.342	-0.16
876.632	-0.17
876.922	-0.18
877.213	-0.18
877.503	-0.18
877.792	-0.16
878.082	-0.18
878.372	-0.17
878.662	-0.19
878.952	-0.19
879.241	-0.19
879.531	-0.18
879.82	-0.18
880.11	-0.19
880.399	-0.19
880.688	-0.17
880.978	-0.17
881.267	-0.17
