Data from 12-12-AQDScycling_Absorbance__614__00614.txt Node

Date: Tue Dec 12 13:30:14 EST 2023
User: kyuminlee
Spectrometer: FLMS00943
Trigger mode: 0
Integration Time (sec): 1.000000E-1
Scans to average: 1
Electric dark correction enabled: true
Nonlinearity correction enabled: false
Boxcar width: 0
XAxis mode: Wavelengths
Number of Pixels in Spectrum: 2048
>>>>>Begin Spectral Data<<<<<
179.651	-0.32
180.037	-0.32
180.424	-0.32
180.81	0.69
181.197	0.02
181.583	-0
181.97	-0.27
182.356	-0
182.743	-0.58
183.129	-0
183.515	0.62
183.901	-1.59
184.288	0.32
184.674	-0
185.06	-0
185.446	-0.51
185.832	-0
186.218	0.04
186.604	-0.24
186.99	-0
187.376	1.12
187.762	0.4
188.148	0.23
188.534	-0.17
188.92	0.08
189.305	0.05
189.691	0.12
190.077	0.11
190.463	0.22
190.848	0.1
191.234	0.09
191.619	-0
192.005	0.14
192.391	0.18
192.776	0.06
193.161	0.13
193.547	0.05
193.932	0.02
194.318	-0.01
194.703	0.1
195.088	0.21
195.473	0.12
195.859	0.13
196.244	0.21
196.629	0.21
197.014	0.17
197.399	0.1
197.784	0.12
198.169	0.15
198.554	0.22
198.939	0.1
199.324	0.11
199.709	0.1
200.094	0.09
200.478	0.06
200.863	0.23
201.248	0.15
201.633	0.2
202.017	0.17
202.402	0.07
202.787	0.28
203.171	0.21
203.556	0.31
203.94	0.2
204.325	0.32
204.709	0.23
205.093	0.14
205.478	0.21
205.862	0.15
206.246	0.16
206.631	0.1
207.015	0.16
207.399	0.13
207.783	0.06
208.167	0.29
208.551	0.22
208.935	0.14
209.319	0.22
209.703	0.2
210.087	0.3
210.471	0.21
210.855	0.19
211.239	0.27
211.623	0.25
212.007	0.36
212.39	0.34
212.774	0.16
213.158	0.24
213.541	0.23
213.925	0.24
214.309	0.25
214.692	0.21
215.076	0.22
215.459	0.22
215.842	0.19
216.226	0.32
216.609	0.29
216.993	0.25
217.376	0.39
217.759	0.38
218.142	0.38
218.525	0.61
218.909	0.52
219.292	0.36
219.675	0.42
220.058	0.57
220.441	0.54
220.824	0.57
221.207	0.5
221.59	0.47
221.973	0.45
222.355	0.5
222.738	0.76
223.121	0.65
223.504	0.59
223.886	0.61
224.269	0.7
224.652	0.63
225.034	0.77
225.417	0.72
225.799	0.7
226.182	0.87
226.564	0.79
226.947	0.85
227.329	0.72
227.711	1.07
228.094	1.1
228.476	0.95
228.858	0.82
229.24	0.74
229.623	0.9
230.005	0.96
230.387	0.89
230.769	0.81
231.151	0.96
231.533	1.01
231.915	1.11
232.297	1.04
232.679	0.96
233.061	0.89
233.442	0.96
233.824	1
234.206	1.02
234.588	1.13
234.969	1.16
235.351	0.99
235.733	1
236.114	1.15
236.496	0.97
236.877	1.09
237.259	1.05
237.64	1.16
238.022	1.07
238.403	1.03
238.784	1.12
239.165	0.93
239.547	1.02
239.928	1.21
240.309	1.04
240.69	1.15
241.071	1.15
241.452	1.19
241.834	0.98
242.215	1.14
242.595	1.03
242.976	1.19
243.357	0.99
243.738	1.14
244.119	1.34
244.5	1.1
244.881	1.14
245.261	1.16
245.642	1.11
246.023	1.15
246.403	1.3
246.784	1.32
247.164	1.42
247.545	1.18
247.925	1.31
248.306	1.21
248.686	1.47
249.067	1.2
249.447	1.37
249.827	1.5
250.207	1.4
250.588	1.43
250.968	1.52
251.348	1.4
251.728	1.47
252.108	1.26
252.488	1.32
252.868	1.28
253.248	1.35
253.628	1.35
254.008	1.48
254.388	1.34
254.768	1.36
255.147	1.43
255.527	1.35
255.907	1.4
256.287	1.46
256.666	1.41
257.046	1.44
257.425	1.52
257.805	1.36
258.184	1.31
258.564	1.36
258.943	1.37
259.323	1.33
259.702	1.57
260.081	1.38
260.461	1.43
260.84	1.34
261.219	1.68
261.598	1.53
261.977	1.42
262.356	1.46
262.736	1.47
263.115	1.52
263.494	1.34
263.873	1.43
264.251	1.37
264.63	1.5
265.009	1.4
265.388	1.45
265.767	1.29
266.145	1.5
266.524	1.43
266.903	1.47
267.281	1.32
267.66	1.64
268.039	1.68
268.417	1.37
268.796	1.46
269.174	1.44
269.552	1.4
269.931	1.67
270.309	1.59
270.687	1.55
271.066	1.55
271.444	1.41
271.822	1.54
272.2	1.48
272.578	1.37
272.956	1.36
273.334	1.3
273.712	1.56
274.09	1.42
274.468	1.34
274.846	1.41
275.224	1.42
275.602	1.38
275.98	1.54
276.357	1.61
276.735	1.43
277.113	1.28
277.49	1.39
277.868	1.38
278.246	1.32
278.623	1.43
279.001	1.39
279.378	1.39
279.756	1.4
280.133	1.54
280.51	1.42
280.888	1.5
281.265	1.35
281.642	1.56
282.019	1.57
282.396	1.8
282.773	1.4
283.151	1.43
283.528	1.45
283.905	1.36
284.282	1.48
284.659	1.49
285.035	1.4
285.412	1.45
285.789	1.48
286.166	1.43
286.543	1.62
286.919	1.48
287.296	1.36
287.673	1.96
288.049	1.56
288.426	1.69
288.802	1.52
289.179	1.6
289.555	1.62
289.932	1.47
290.308	1.37
290.684	1.36
291.061	1.35
291.437	1.43
291.813	1.34
292.189	1.3
292.565	1.35
292.942	1.27
293.318	1.41
293.694	1.62
294.07	1.27
294.446	1.38
294.822	1.5
295.197	1.45
295.573	1.47
295.949	1.44
296.325	1.46
296.701	1.56
297.076	1.44
297.452	1.47
297.828	1.36
298.203	1.41
298.579	1.34
298.954	1.37
299.33	1.36
299.705	1.3
300.081	1.32
300.456	1.4
300.831	1.31
301.206	1.25
301.582	1.24
301.957	1.23
302.332	1.24
302.707	1.11
303.082	1.19
303.457	1.23
303.832	1.15
304.207	1.11
304.582	1.11
304.957	1.1
305.332	1.13
305.707	1.08
306.082	1.05
306.456	1.07
306.831	1.01
307.206	1.02
307.58	1
307.955	0.96
308.33	0.95
308.704	0.97
309.079	0.91
309.453	0.96
309.828	0.92
310.202	0.88
310.576	0.88
310.951	0.87
311.325	0.86
311.699	0.85
312.073	0.82
312.447	0.8
312.821	0.83
313.196	0.78
313.57	0.78
313.944	0.78
314.317	0.73
314.691	0.77
315.065	0.78
315.439	0.76
315.813	0.75
316.187	0.74
316.56	0.75
316.934	0.72
317.308	0.72
317.681	0.69
318.055	0.71
318.428	0.7
318.802	0.71
319.175	0.68
319.549	0.67
319.922	0.71
320.295	0.69
320.669	0.72
321.042	0.7
321.415	0.69
321.788	0.67
322.162	0.66
322.535	0.67
322.908	0.65
323.281	0.65
323.654	0.67
324.027	0.65
324.4	0.65
324.773	0.65
325.145	0.68
325.518	0.66
325.891	0.68
326.264	0.69
326.636	0.68
327.009	0.66
327.382	0.68
327.754	0.66
328.127	0.68
328.499	0.68
328.872	0.67
329.244	0.69
329.616	0.68
329.989	0.68
330.361	0.71
330.733	0.71
331.106	0.71
331.478	0.71
331.85	0.72
332.222	0.7
332.594	0.7
332.966	0.72
333.338	0.78
333.71	0.78
334.082	0.78
334.454	0.74
334.826	0.77
335.197	0.8
335.569	0.81
335.941	0.77
336.312	0.8
336.684	0.82
337.056	0.83
337.427	0.88
337.799	0.85
338.17	0.87
338.542	0.86
338.913	0.85
339.284	0.88
339.656	0.89
340.027	0.9
340.398	0.92
340.769	0.91
341.141	0.96
341.512	0.95
341.883	0.95
342.254	0.94
342.625	0.96
342.996	0.99
343.367	1
343.738	0.99
344.108	0.97
344.479	1.06
344.85	1.05
345.221	1.11
345.591	1.05
345.962	1.05
346.333	1.08
346.703	0.99
347.074	1.02
347.444	1.11
347.815	1.15
348.185	1.14
348.556	1.2
348.926	1.21
349.296	1.07
349.666	1.13
350.037	1.14
350.407	1.14
350.777	1.25
351.147	1.27
351.517	1.23
351.887	1.18
352.257	1.27
352.627	1.23
352.997	1.27
353.367	1.29
353.737	1.29
354.106	1.42
354.476	1.27
354.846	1.39
355.216	1.44
355.585	1.43
355.955	1.3
356.324	1.4
356.694	1.46
357.063	1.46
357.433	1.35
357.802	1.47
358.171	1.49
358.541	1.5
358.91	1.62
359.279	1.57
359.648	1.45
360.017	1.66
360.387	1.57
360.756	1.52
361.125	1.53
361.494	1.53
361.863	1.53
362.231	1.59
362.6	1.68
362.969	1.55
363.338	1.54
363.707	1.65
364.075	1.65
364.444	1.37
364.813	1.65
365.181	1.54
365.55	1.53
365.918	1.61
366.287	1.63
366.655	1.68
367.024	1.68
367.392	1.63
367.76	1.47
368.128	1.62
368.497	1.51
368.865	1.5
369.233	1.69
369.601	1.59
369.969	1.66
370.337	1.7
370.705	1.51
371.073	1.47
371.441	1.64
371.809	1.6
372.177	1.54
372.544	1.62
372.912	1.62
373.28	1.5
373.647	1.58
374.015	1.69
374.383	2.04
374.75	1.63
375.118	1.69
375.485	1.74
375.853	1.65
376.22	1.66
376.587	1.51
376.955	1.6
377.322	1.75
377.689	1.58
378.056	1.61
378.423	1.71
378.79	1.61
379.157	1.66
379.524	1.74
379.891	1.54
380.258	1.67
380.625	1.58
380.992	1.49
381.359	1.53
381.726	1.6
382.092	1.53
382.459	1.54
382.826	1.63
383.192	1.7
383.559	1.52
383.925	1.66
384.292	1.41
384.658	1.7
385.025	1.58
385.391	1.56
385.757	1.69
386.123	1.59
386.49	1.47
386.856	1.66
387.222	1.71
387.588	1.66
387.954	1.81
388.32	1.85
388.686	1.68
389.052	1.58
389.418	1.59
389.784	1.47
390.15	1.61
390.515	1.44
390.881	1.66
391.247	1.57
391.613	1.65
391.978	1.46
392.344	1.62
392.709	1.59
393.075	1.68
393.44	1.55
393.806	1.67
394.171	1.47
394.536	1.65
394.902	1.49
395.267	1.55
395.632	1.57
395.997	1.44
396.362	1.51
396.727	1.63
397.092	1.51
397.457	1.5
397.822	1.52
398.187	1.52
398.552	1.53
398.917	1.66
399.282	1.55
399.646	1.58
400.011	1.78
400.376	1.52
400.74	1.58
401.105	1.51
401.47	1.67
401.834	1.58
402.199	1.56
402.563	1.46
402.927	1.45
403.292	1.86
403.656	1.72
404.02	1.56
404.384	1.9
404.749	1.72
405.113	1.5
405.477	1.59
405.841	1.62
406.205	1.64
406.569	1.67
406.933	1.4
407.296	1.48
407.66	1.63
408.024	1.59
408.388	1.68
408.752	1.75
409.115	1.69
409.479	1.57
409.842	1.63
410.206	1.52
410.569	1.55
410.933	1.63
411.296	1.5
411.66	1.64
412.023	1.47
412.386	1.73
412.749	1.51
413.113	1.69
413.476	1.53
413.839	1.48
414.202	1.47
414.565	1.39
414.928	1.4
415.291	1.42
415.654	1.54
416.017	1.64
416.38	1.5
416.742	1.52
417.105	1.55
417.468	1.55
417.83	1.62
418.193	1.6
418.556	1.6
418.918	1.45
419.281	1.53
419.643	1.57
420.005	1.58
420.368	1.49
420.73	1.47
421.092	1.65
421.455	1.55
421.817	1.47
422.179	1.48
422.541	1.56
422.903	1.71
423.265	1.62
423.627	1.68
423.989	1.48
424.351	1.46
424.713	1.5
425.075	1.49
425.436	1.59
425.798	1.5
426.16	1.77
426.521	1.55
426.883	1.58
427.245	1.59
427.606	1.51
427.967	1.41
428.329	1.44
428.69	1.59
429.052	1.46
429.413	1.63
429.774	1.49
430.135	1.58
430.497	1.63
430.858	1.55
431.219	1.61
431.58	1.56
431.941	1.54
432.302	1.49
432.663	1.58
433.024	1.68
433.384	1.69
433.745	1.55
434.106	1.66
434.467	1.51
434.827	1.54
435.188	1.47
435.548	1.59
435.909	1.53
436.269	1.67
436.63	1.5
436.99	1.54
437.351	1.45
437.711	1.58
438.071	1.54
438.431	1.56
438.792	1.52
439.152	1.48
439.512	1.58
439.872	1.46
440.232	1.47
440.592	1.6
440.952	1.5
441.312	1.34
441.671	1.48
442.031	1.45
442.391	1.43
442.751	1.56
443.11	1.57
443.47	1.39
443.83	1.44
444.189	1.38
444.549	1.42
444.908	1.4
445.267	1.4
445.627	1.42
445.986	1.44
446.345	1.31
446.705	1.39
447.064	1.45
447.423	1.41
447.782	1.45
448.141	1.4
448.5	1.34
448.859	1.34
449.218	1.33
449.577	1.4
449.936	1.35
450.295	1.34
450.653	1.36
451.012	1.33
451.371	1.32
451.729	1.3
452.088	1.33
452.447	1.41
452.805	1.31
453.163	1.32
453.522	1.3
453.88	1.28
454.239	1.22
454.597	1.21
454.955	1.25
455.313	1.2
455.671	1.23
456.029	1.2
456.388	1.18
456.746	1.18
457.104	1.17
457.461	1.15
457.819	1.12
458.177	1.12
458.535	1.1
458.893	1.08
459.25	1.1
459.608	1.08
459.966	1.04
460.323	1.04
460.681	1.01
461.038	1.02
461.396	0.99
461.753	0.98
462.111	0.98
462.468	0.95
462.825	0.95
463.182	0.93
463.54	0.91
463.897	0.91
464.254	0.89
464.611	0.88
464.968	0.86
465.325	0.88
465.682	0.84
466.039	0.82
466.395	0.82
466.752	0.8
467.109	0.79
467.466	0.77
467.822	0.77
468.179	0.76
468.535	0.74
468.892	0.72
469.248	0.71
469.605	0.71
469.961	0.69
470.318	0.69
470.674	0.68
471.03	0.67
471.386	0.66
471.743	0.64
472.099	0.62
472.455	0.63
472.811	0.61
473.167	0.6
473.523	0.59
473.879	0.58
474.235	0.57
474.59	0.56
474.946	0.54
475.302	0.53
475.657	0.53
476.013	0.51
476.369	0.51
476.724	0.5
477.08	0.49
477.435	0.48
477.791	0.47
478.146	0.46
478.501	0.45
478.857	0.45
479.212	0.44
479.567	0.42
479.922	0.41
480.277	0.4
480.632	0.39
480.987	0.39
481.342	0.39
481.697	0.37
482.052	0.36
482.407	0.36
482.762	0.35
483.116	0.35
483.471	0.34
483.826	0.32
484.18	0.33
484.535	0.32
484.89	0.31
485.244	0.3
485.598	0.3
485.953	0.3
486.307	0.29
486.661	0.29
487.016	0.28
487.37	0.28
487.724	0.27
488.078	0.26
488.432	0.25
488.786	0.24
489.14	0.24
489.494	0.24
489.848	0.24
490.202	0.23
490.556	0.22
490.91	0.22
491.263	0.21
491.617	0.21
491.971	0.21
492.324	0.2
492.678	0.2
493.031	0.2
493.385	0.2
493.738	0.19
494.091	0.19
494.445	0.18
494.798	0.18
495.151	0.18
495.504	0.17
495.857	0.17
496.21	0.17
496.564	0.16
496.916	0.17
497.269	0.15
497.622	0.15
497.975	0.14
498.328	0.14
498.681	0.13
499.033	0.14
499.386	0.14
499.739	0.13
500.091	0.13
500.444	0.13
500.796	0.13
501.149	0.12
501.501	0.12
501.854	0.12
502.206	0.11
502.558	0.12
502.91	0.12
503.263	0.11
503.615	0.11
503.967	0.11
504.319	0.11
504.671	0.11
505.023	0.11
505.375	0.11
505.726	0.1
506.078	0.1
506.43	0.1
506.782	0.09
507.133	0.09
507.485	0.1
507.837	0.11
508.188	0.09
508.54	0.09
508.891	0.1
509.243	0.08
509.594	0.09
509.945	0.08
510.296	0.08
510.648	0.09
510.999	0.08
511.35	0.09
511.701	0.09
512.052	0.09
512.403	0.09
512.754	0.08
513.105	0.08
513.456	0.07
513.807	0.07
514.157	0.08
514.508	0.08
514.859	0.07
515.209	0.07
515.56	0.08
515.91	0.07
516.261	0.08
516.611	0.08
516.962	0.07
517.312	0.07
517.662	0.07
518.013	0.07
518.363	0.08
518.713	0.07
519.063	0.07
519.413	0.07
519.763	0.08
520.113	0.08
520.463	0.07
520.813	0.07
521.163	0.08
521.512	0.07
521.862	0.07
522.212	0.07
522.562	0.07
522.911	0.07
523.261	0.07
523.61	0.07
523.96	0.07
524.309	0.07
524.658	0.07
525.008	0.06
525.357	0.06
525.706	0.07
526.056	0.07
526.405	0.06
526.754	0.06
527.103	0.06
527.452	0.07
527.801	0.07
528.15	0.07
528.499	0.07
528.847	0.07
529.196	0.07
529.545	0.07
529.893	0.07
530.242	0.07
530.591	0.07
530.939	0.08
531.288	0.07
531.636	0.07
531.985	0.07
532.333	0.07
532.681	0.07
533.029	0.07
533.378	0.07
533.726	0.07
534.074	0.07
534.422	0.07
534.77	0.07
535.118	0.06
535.466	0.07
535.814	0.07
536.162	0.07
536.509	0.07
536.857	0.07
537.205	0.07
537.552	0.07
537.9	0.07
538.248	0.06
538.595	0.07
538.943	0.07
539.29	0.07
539.637	0.07
539.985	0.07
540.332	0.07
540.679	0.07
541.026	0.06
541.373	0.07
541.721	0.06
542.068	0.07
542.415	0.06
542.762	0.06
543.108	0.05
543.455	0.05
543.802	0.05
544.149	0.06
544.496	0.06
544.842	0.06
545.189	0.05
545.535	0.05
545.882	0.05
546.228	0.05
546.575	0.05
546.921	0.05
547.267	0.05
547.614	0.06
547.96	0.05
548.306	0.06
548.652	0.05
548.998	0.06
549.344	0.05
549.69	0.06
550.036	0.05
550.382	0.06
550.728	0.05
551.074	0.06
551.42	0.05
551.765	0.06
552.111	0.06
552.457	0.06
552.802	0.05
553.148	0.05
553.493	0.06
553.839	0.06
554.184	0.06
554.529	0.05
554.875	0.06
555.22	0.07
555.565	0.06
555.91	0.06
556.255	0.07
556.6	0.06
556.945	0.05
557.29	0.06
557.635	0.06
557.98	0.06
558.325	0.06
558.67	0.06
559.014	0.06
559.359	0.06
559.704	0.06
560.048	0.05
560.393	0.06
560.737	0.05
561.082	0.06
561.426	0.06
561.77	0.05
562.115	0.05
562.459	0.05
562.803	0.06
563.147	0.05
563.491	0.06
563.835	0.06
564.179	0.06
564.523	0.06
564.867	0.06
565.211	0.06
565.555	0.06
565.899	0.06
566.242	0.06
566.586	0.05
566.93	0.05
567.273	0.06
567.617	0.05
567.96	0.06
568.304	0.07
568.647	0.05
568.99	0.06
569.334	0.06
569.677	0.06
570.02	0.07
570.363	0.06
570.706	0.06
571.049	0.06
571.392	0.06
571.735	0.06
572.078	0.06
572.421	0.07
572.764	0.07
573.106	0.06
573.449	0.06
573.792	0.06
574.134	0.06
574.477	0.06
574.819	0.06
575.162	0.06
575.504	0.05
575.847	0.06
576.189	0.06
576.531	0.06
576.873	0.06
577.215	0.06
577.558	0.06
577.9	0.05
578.242	0.06
578.584	0.06
578.926	0.06
579.267	0.06
579.609	0.06
579.951	0.06
580.293	0.06
580.634	0.06
580.976	0.06
581.318	0.06
581.659	0.06
582.001	0.06
582.342	0.06
582.683	0.05
583.025	0.05
583.366	0.05
583.707	0.05
584.049	0.05
584.39	0.06
584.731	0.05
585.072	0.05
585.413	0.06
585.754	0.06
586.095	0.06
586.435	0.05
586.776	0.06
587.117	0.05
587.458	0.05
587.798	0.05
588.139	0.05
588.48	0.05
588.82	0.05
589.161	0.05
589.501	0.05
589.841	0.05
590.182	0.05
590.522	0.05
590.862	0.06
591.202	0.05
591.542	0.05
591.882	0.05
592.222	0.05
592.562	0.06
592.902	0.06
593.242	0.05
593.582	0.06
593.922	0.05
594.261	0.05
594.601	0.05
594.941	0.06
595.28	0.05
595.62	0.06
595.959	0.06
596.299	0.05
596.638	0.05
596.977	0.05
597.317	0.06
597.656	0.06
597.995	0.05
598.334	0.06
598.673	0.06
599.012	0.06
599.351	0.06
599.69	0.06
600.029	0.07
600.368	0.06
600.707	0.06
601.046	0.05
601.384	0.06
601.723	0.06
602.061	0.06
602.4	0.06
602.738	0.07
603.077	0.06
603.415	0.06
603.754	0.06
604.092	0.06
604.43	0.06
604.768	0.06
605.107	0.06
605.445	0.05
605.783	0.06
606.121	0.05
606.459	0.06
606.796	0.07
607.134	0.05
607.472	0.05
607.81	0.06
608.148	0.05
608.485	0.05
608.823	0.05
609.16	0.05
609.498	0.06
609.835	0.05
610.173	0.05
610.51	0.06
610.847	0.06
611.185	0.06
611.522	0.05
611.859	0.06
612.196	0.06
612.533	0.06
612.87	0.07
613.207	0.07
613.544	0.06
613.881	0.07
614.217	0.06
614.554	0.06
614.891	0.06
615.228	0.07
615.564	0.06
615.901	0.06
616.237	0.07
616.574	0.06
616.91	0.07
617.246	0.07
617.583	0.07
617.919	0.07
618.255	0.07
618.591	0.06
618.927	0.06
619.263	0.07
619.599	0.07
619.935	0.07
620.271	0.07
620.607	0.07
620.943	0.06
621.279	0.07
621.614	0.06
621.95	0.07
622.286	0.07
622.621	0.07
622.957	0.06
623.292	0.06
623.627	0.07
623.963	0.06
624.298	0.06
624.633	0.06
624.968	0.05
625.304	0.06
625.639	0.06
625.974	0.06
626.309	0.05
626.644	0.06
626.979	0.07
627.313	0.06
627.648	0.06
627.983	0.06
628.318	0.06
628.652	0.05
628.987	0.05
629.321	0.06
629.656	0.05
629.99	0.05
630.325	0.05
630.659	0.05
630.993	0.05
631.327	0.05
631.662	0.04
631.996	0.04
632.33	0.05
632.664	0.05
632.998	0.04
633.332	0.05
633.666	0.05
633.999	0.05
634.333	0.05
634.667	0.05
635.001	0.05
635.334	0.05
635.668	0.05
636.001	0.05
636.335	0.05
636.668	0.05
637.001	0.05
637.335	0.05
637.668	0.05
638.001	0.04
638.334	0.05
638.668	0.05
639.001	0.05
639.334	0.05
639.667	0.05
639.999	0.04
640.332	0.05
640.665	0.04
640.998	0.05
641.331	0.05
641.663	0.05
641.996	0.05
642.328	0.06
642.661	0.05
642.993	0.05
643.326	0.05
643.658	0.05
643.99	0.05
644.323	0.05
644.655	0.04
644.987	0.05
645.319	0.05
645.651	0.05
645.983	0.05
646.315	0.04
646.647	0.05
646.979	0.06
647.31	0.06
647.642	0.05
647.974	0.05
648.305	0.05
648.637	0.05
648.968	0.05
649.3	0.05
649.631	0.05
649.963	0.05
650.294	0.06
650.625	0.05
650.957	0.06
651.288	0.05
651.619	0.05
651.95	0.06
652.281	0.06
652.612	0.05
652.943	0.06
653.274	0.07
653.604	0.06
653.935	0.05
654.266	0.05
654.596	0.05
654.927	0.06
655.258	0.06
655.588	0.06
655.918	0.05
656.249	0.04
656.579	0.05
656.909	0.05
657.24	0.05
657.57	0.05
657.9	0.05
658.23	0.05
658.56	0.06
658.89	0.05
659.22	0.05
659.55	0.05
659.88	0.05
660.209	0.06
660.539	0.06
660.869	0.06
661.198	0.06
661.528	0.06
661.857	0.05
662.187	0.05
662.516	0.06
662.846	0.05
663.175	0.06
663.504	0.05
663.833	0.05
664.163	0.06
664.492	0.06
664.821	0.06
665.15	0.05
665.479	0.06
665.807	0.05
666.136	0.06
666.465	0.05
666.794	0.06
667.122	0.06
667.451	0.05
667.78	0.06
668.108	0.06
668.437	0.06
668.765	0.06
669.093	0.06
669.422	0.06
669.75	0.06
670.078	0.06
670.406	0.06
670.734	0.06
671.062	0.06
671.39	0.05
671.718	0.06
672.046	0.05
672.374	0.05
672.702	0.05
673.029	0.05
673.357	0.05
673.685	0.06
674.012	0.05
674.34	0.05
674.667	0.06
674.995	0.05
675.322	0.06
675.649	0.05
675.977	0.06
676.304	0.05
676.631	0.05
676.958	0.05
677.285	0.05
677.612	0.05
677.939	0.05
678.266	0.06
678.593	0.05
678.92	0.05
679.246	0.05
679.573	0.05
679.9	0.05
680.226	0.06
680.553	0.04
680.879	0.05
681.206	0.05
681.532	0.06
681.858	0.06
682.184	0.06
682.511	0.06
682.837	0.05
683.163	0.06
683.489	0.06
683.815	0.05
684.141	0.06
684.467	0.05
684.793	0.05
685.118	0.06
685.444	0.06
685.77	0.05
686.095	0.05
686.421	0.05
686.746	0.05
687.072	0.06
687.397	0.04
687.723	0.06
688.048	0.06
688.373	0.05
688.698	0.05
689.023	0.05
689.349	0.06
689.674	0.05
689.999	0.05
690.323	0.04
690.648	0.05
690.973	0.04
691.298	0.05
691.623	0.05
691.947	0.05
692.272	0.04
692.596	0.06
692.921	0.06
693.245	0.06
693.57	0.06
693.894	0.06
694.218	0.05
694.543	0.06
694.867	0.06
695.191	0.05
695.515	0.06
695.839	0.05
696.163	0.05
696.487	0.05
696.811	0.06
697.135	0.06
697.458	0.05
697.782	0.06
698.106	0.06
698.429	0.05
698.753	0.05
699.076	0.06
699.4	0.05
699.723	0.05
700.046	0.05
700.37	0.06
700.693	0.05
701.016	0.05
701.339	0.06
701.662	0.06
701.985	0.06
702.308	0.05
702.631	0.06
702.954	0.06
703.277	0.05
703.599	0.06
703.922	0.05
704.245	0.05
704.567	0.05
704.89	0.05
705.212	0.05
705.535	0.04
705.857	0.04
706.179	0.04
706.502	0.05
706.824	0.04
707.146	0.04
707.468	0.05
707.79	0.05
708.112	0.05
708.434	0.05
708.756	0.05
709.078	0.05
709.399	0.04
709.721	0.05
710.043	0.06
710.364	0.04
710.686	0.05
711.007	0.05
711.329	0.06
711.65	0.06
711.972	0.06
712.293	0.05
712.614	0.06
712.935	0.06
713.256	0.05
713.577	0.06
713.898	0.05
714.219	0.05
714.54	0.05
714.861	0.04
715.182	0.05
715.503	0.05
715.823	0.05
716.144	0.04
716.464	0.04
716.785	0.04
717.105	0.05
717.426	0.05
717.746	0.04
718.066	0.04
718.387	0.04
718.707	0.05
719.027	0.05
719.347	0.04
719.667	0.05
719.987	0.04
720.307	0.04
720.627	0.04
720.947	0.04
721.266	0.04
721.586	0.04
721.906	0.04
722.225	0.04
722.545	0.04
722.864	0.04
723.184	0.05
723.503	0.05
723.823	0.05
724.142	0.05
724.461	0.04
724.78	0.05
725.099	0.05
725.418	0.05
725.737	0.04
726.056	0.05
726.375	0.05
726.694	0.05
727.013	0.04
727.331	0.04
727.65	0.04
727.969	0.05
728.287	0.05
728.606	0.04
728.924	0.04
729.242	0.04
729.561	0.04
729.879	0.04
730.197	0.04
730.515	0.04
730.834	0.05
731.152	0.05
731.47	0.05
731.788	0.05
732.105	0.04
732.423	0.05
732.741	0.05
733.059	0.05
733.376	0.06
733.694	0.04
734.012	0.04
734.329	0.05
734.647	0.05
734.964	0.05
735.281	0.05
735.599	0.05
735.916	0.06
736.233	0.05
736.55	0.05
736.867	0.05
737.184	0.06
737.501	0.05
737.818	0.05
738.135	0.06
738.452	0.05
738.768	0.05
739.085	0.05
739.402	0.04
739.718	0.05
740.035	0.05
740.351	0.05
740.668	0.05
740.984	0.05
741.3	0.04
741.617	0.05
741.933	0.04
742.249	0.05
742.565	0.05
742.881	0.05
743.197	0.05
743.513	0.05
743.829	0.04
744.144	0.04
744.46	0.04
744.776	0.04
745.091	0.05
745.407	0.04
745.722	0.04
746.038	0.04
746.353	0.03
746.669	0.05
746.984	0.04
747.299	0.03
747.614	0.04
747.93	0.04
748.245	0.03
748.56	0.04
748.875	0.03
749.189	0.04
749.504	0.03
749.819	0.04
750.134	0.04
750.448	0.04
750.763	0.04
751.078	0.03
751.392	0.04
751.707	0.05
752.021	0.05
752.335	0.05
752.65	0.05
752.964	0.04
753.278	0.04
753.592	0.04
753.906	0.05
754.22	0.05
754.534	0.05
754.848	0.05
755.162	0.05
755.476	0.04
755.789	0.05
756.103	0.04
756.417	0.05
756.73	0.05
757.044	0.05
757.357	0.05
757.671	0.05
757.984	0.05
758.297	0.05
758.61	0.06
758.924	0.05
759.237	0.04
759.55	0.04
759.863	0.04
760.176	0.05
760.488	0.05
760.801	0.04
761.114	0.05
761.427	0.04
761.739	0.05
762.052	0.04
762.365	0.05
762.677	0.05
762.99	0.03
763.302	0.04
763.614	0.04
763.926	0.04
764.239	0.05
764.551	0.04
764.863	0.04
765.175	0.05
765.487	0.04
765.799	0.03
766.111	0.03
766.423	0.04
766.734	0.04
767.046	0.04
767.358	0.05
767.669	0.05
767.981	0.04
768.292	0.05
768.604	0.04
768.915	0.04
769.226	0.05
769.537	0.04
769.849	0.04
770.16	0.04
770.471	0.03
770.782	0.04
771.093	0.04
771.404	0.03
771.715	0.03
772.025	0.04
772.336	0.04
772.647	0.03
772.957	0.04
773.268	0.04
773.578	0.04
773.889	0.04
774.199	0.05
774.51	0.05
774.82	0.04
775.13	0.04
775.44	0.04
775.75	0.05
776.06	0.05
776.37	0.04
776.68	0.05
776.99	0.05
777.3	0.04
777.61	0.05
777.92	0.05
778.229	0.04
778.539	0.04
778.848	0.04
779.158	0.04
779.467	0.04
779.777	0.04
780.086	0.04
780.395	0.03
780.704	0.03
781.013	0.03
781.323	0.03
781.632	0.04
781.941	0.04
782.249	0.04
782.558	0.04
782.867	0.04
783.176	0.02
783.485	0.04
783.793	0.04
784.102	0.04
784.41	0.03
784.719	0.03
785.027	0.03
785.335	0.04
785.644	0.04
785.952	0.03
786.26	0.04
786.568	0.03
786.876	0.03
787.184	0.05
787.492	0.04
787.8	0.04
788.108	0.04
788.416	0.04
788.723	0.04
789.031	0.03
789.338	0.04
789.646	0.04
789.953	0.04
790.261	0.04
790.568	0.05
790.876	0.03
791.183	0.05
791.49	0.04
791.797	0.04
792.104	0.03
792.411	0.05
792.718	0.04
793.025	0.05
793.332	0.04
793.639	0.05
793.945	0.05
794.252	0.05
794.559	0.04
794.865	0.05
795.172	0.05
795.478	0.05
795.784	0.05
796.091	0.05
796.397	0.05
796.703	0.05
797.009	0.06
797.315	0.05
797.622	0.05
797.927	0.05
798.233	0.05
798.539	0.06
798.845	0.05
799.151	0.06
799.456	0.05
799.762	0.05
800.068	0.05
800.373	0.06
800.679	0.05
800.984	0.05
801.289	0.05
801.595	0.05
801.9	0.05
802.205	0.05
802.51	0.05
802.815	0.05
803.12	0.06
803.425	0.05
803.73	0.05
804.035	0.05
804.339	0.05
804.644	0.05
804.949	0.05
805.253	0.05
805.558	0.05
805.862	0.04
806.167	0.05
806.471	0.05
806.775	0.05
807.08	0.06
807.384	0.04
807.688	0.05
807.992	0.05
808.296	0.04
808.6	0.05
808.904	0.05
809.207	0.05
809.511	0.06
809.815	0.06
810.119	0.05
810.422	0.06
810.726	0.06
811.029	0.07
811.332	0.06
811.636	0.06
811.939	0.06
812.242	0.06
812.546	0.06
812.849	0.05
813.152	0.06
813.455	0.06
813.758	0.06
814.06	0.06
814.363	0.06
814.666	0.07
814.969	0.07
815.271	0.06
815.574	0.07
815.877	0.06
816.179	0.06
816.481	0.05
816.784	0.06
817.086	0.05
817.388	0.04
817.69	0.04
817.993	0.04
818.295	0.05
818.597	0.05
818.899	0.04
819.2	0.04
819.502	0.04
819.804	0.04
820.106	0.04
820.407	0.04
820.709	0.04
821.01	0.04
821.312	0.04
821.613	0.03
821.915	0.03
822.216	0.03
822.517	0.03
822.818	0.04
823.119	0.04
823.42	0.04
823.721	0.03
824.022	0.03
824.323	0.03
824.624	0.03
824.925	0.04
825.226	0.05
825.526	0.03
825.827	0.03
826.127	0.04
826.428	0.04
826.728	0.02
827.028	0.04
827.329	0.02
827.629	0.02
827.929	0.04
828.229	0.04
828.529	0.04
828.829	0.03
829.129	0.03
829.429	0.04
829.729	0.03
830.029	0.03
830.328	0.03
830.628	0.03
830.927	0.02
831.227	0.03
831.526	0.03
831.826	0.04
832.125	0.03
832.424	0.02
832.724	0.03
833.023	0.03
833.322	0.03
833.621	0.02
833.92	0.02
834.219	0.02
834.518	0.02
834.816	0.01
835.115	0.02
835.414	0.03
835.712	0.02
836.011	0.02
836.309	0.02
836.608	0.01
836.906	0
837.205	-0
837.503	0
837.801	0.01
838.099	-0.01
838.397	-0.01
838.695	-0.01
838.993	-0
839.291	-0.01
839.589	-0.01
839.887	-0
840.184	-0.01
840.482	-0.01
840.78	-0.01
841.077	-0.01
841.375	-0.01
841.672	-0.01
841.969	-0.01
842.267	-0.01
842.564	-0.01
842.861	-0.01
843.158	-0.01
843.455	-0.04
843.752	-0.02
844.049	-0.03
844.346	-0.02
844.643	-0.03
844.94	-0.03
845.236	-0.02
845.533	-0.03
845.83	-0.03
846.126	-0.03
846.423	-0.03
846.719	-0.04
847.015	-0.03
847.312	-0.04
847.608	-0.04
847.904	-0.04
848.2	-0.05
848.496	-0.04
848.792	-0.03
849.088	-0.03
849.384	-0.04
849.68	-0.04
849.975	-0.03
850.271	-0.04
850.567	-0.05
850.862	-0.05
851.158	-0.04
851.453	-0.05
851.748	-0.05
852.044	-0.05
852.339	-0.05
852.634	-0.06
852.929	-0.04
853.224	-0.05
853.519	-0.05
853.814	-0.05
854.109	-0.06
854.404	-0.06
854.699	-0.06
854.994	-0.06
855.288	-0.06
855.583	-0.05
855.877	-0.07
856.172	-0.06
856.466	-0.07
856.76	-0.07
857.055	-0.07
857.349	-0.09
857.643	-0.09
857.937	-0.09
858.231	-0.09
858.525	-0.09
858.819	-0.1
859.113	-0.11
859.407	-0.1
859.701	-0.11
859.994	-0.1
860.288	-0.09
860.581	-0.11
860.875	-0.1
861.168	-0.11
861.462	-0.11
861.755	-0.1
862.048	-0.1
862.341	-0.1
862.634	-0.1
862.928	-0.1
863.221	-0.1
863.513	-0.12
863.806	-0.1
864.099	-0.11
864.392	-0.12
864.685	-0.12
864.977	-0.12
865.27	-0.11
865.562	-0.12
865.855	-0.12
866.147	-0.12
866.44	-0.11
866.732	-0.12
867.024	-0.13
867.316	-0.12
867.608	-0.13
867.9	-0.12
868.192	-0.13
868.484	-0.12
868.776	-0.13
869.068	-0.12
869.359	-0.13
869.651	-0.12
869.943	-0.14
870.234	-0.14
870.526	-0.14
870.817	-0.15
871.108	-0.13
871.4	-0.14
871.691	-0.15
871.982	-0.14
872.273	-0.15
872.564	-0.15
872.855	-0.14
873.146	-0.15
873.437	-0.16
873.728	-0.17
874.019	-0.17
874.309	-0.16
874.6	-0.16
874.89	-0.16
875.181	-0.17
875.471	-0.15
875.762	-0.16
876.052	-0.15
876.342	-0.14
876.632	-0.17
876.922	-0.18
877.213	-0.17
877.503	-0.18
877.792	-0.17
878.082	-0.18
878.372	-0.15
878.662	-0.19
878.952	-0.18
879.241	-0.16
879.531	-0.17
879.82	-0.18
880.11	-0.16
880.399	-0.17
880.688	-0.14
880.978	-0.14
881.267	-0.14
