Data from 12-12-AQDScycling_Absorbance__489__00489.txt Node

Date: Tue Dec 12 12:58:59 EST 2023
User: kyuminlee
Spectrometer: FLMS00943
Trigger mode: 0
Integration Time (sec): 1.000000E-1
Scans to average: 1
Electric dark correction enabled: true
Nonlinearity correction enabled: false
Boxcar width: 0
XAxis mode: Wavelengths
Number of Pixels in Spectrum: 2048
>>>>>Begin Spectral Data<<<<<
179.651	-0
180.037	-0
180.424	-0
180.81	-0.43
181.197	0.09
181.583	-0
181.97	-0.29
182.356	-0
182.743	-0
183.129	0.79
183.515	0.83
183.901	-1.41
184.288	0.23
184.674	-0
185.06	-0
185.446	-0
185.832	-0
186.218	0.25
186.604	-0.12
186.99	-0
187.376	-0
187.762	0.13
188.148	0.22
188.534	-0.24
188.92	0.17
189.305	0.01
189.691	0.11
190.077	0.19
190.463	0.1
190.848	0.07
191.234	0.11
191.619	-0.05
192.005	0.12
192.391	0.23
192.776	0.19
193.161	0.1
193.547	0.15
193.932	0.03
194.318	0.13
194.703	0.12
195.088	0.13
195.473	0.05
195.859	0.24
196.244	0.13
196.629	0.05
197.014	0.13
197.399	0.05
197.784	0.11
198.169	0.15
198.554	0.35
198.939	0.26
199.324	0.12
199.709	0.04
200.094	0.07
200.478	-0.01
200.863	0.11
201.248	0.15
201.633	0.17
202.017	0.12
202.402	0.39
202.787	0.16
203.171	0.08
203.556	0.19
203.94	0.2
204.325	0.19
204.709	0.17
205.093	0.04
205.478	0.18
205.862	0.22
206.246	0.15
206.631	0.12
207.015	0.12
207.399	0.27
207.783	0.15
208.167	0.12
208.551	0.14
208.935	0.19
209.319	0.28
209.703	0.21
210.087	0.12
210.471	-0
210.855	0.23
211.239	0.15
211.623	0.19
212.007	0.18
212.39	0.16
212.774	0.18
213.158	0.09
213.541	0.18
213.925	0.28
214.309	0.41
214.692	0.2
215.076	0.19
215.459	0.21
215.842	0.15
216.226	0.32
216.609	0.22
216.993	0.18
217.376	0.63
217.759	0.34
218.142	0.35
218.525	0.41
218.909	0.53
219.292	0.31
219.675	0.3
220.058	0.41
220.441	0.45
220.824	0.35
221.207	0.52
221.59	0.41
221.973	0.46
222.355	0.62
222.738	0.7
223.121	0.58
223.504	0.55
223.886	0.7
224.269	0.64
224.652	0.58
225.034	0.83
225.417	0.91
225.799	0.79
226.182	0.86
226.564	0.86
226.947	0.79
227.329	0.76
227.711	1.03
228.094	1.07
228.476	0.88
228.858	0.82
229.24	0.85
229.623	0.85
230.005	0.91
230.387	0.8
230.769	0.89
231.151	0.94
231.533	0.91
231.915	0.86
232.297	0.92
232.679	0.98
233.061	1.06
233.442	1.01
233.824	0.99
234.206	1.12
234.588	0.94
234.969	1.04
235.351	0.98
235.733	1.06
236.114	1.16
236.496	1.09
236.877	1.23
237.259	1.17
237.64	1.05
238.022	0.96
238.403	0.95
238.784	0.97
239.165	0.98
239.547	1.11
239.928	1.2
240.309	1.13
240.69	0.97
241.071	1.13
241.452	1.08
241.834	1.02
242.215	1.07
242.595	1.14
242.976	1.07
243.357	1.09
243.738	1.08
244.119	1.29
244.5	1.11
244.881	1.26
245.261	1.24
245.642	1.18
246.023	1.22
246.403	1.07
246.784	1.23
247.164	1.17
247.545	1.3
247.925	1.27
248.306	1.21
248.686	1.34
249.067	1.28
249.447	1.36
249.827	1.41
250.207	1.5
250.588	1.37
250.968	1.36
251.348	1.3
251.728	1.31
252.108	1.36
252.488	1.3
252.868	1.3
253.248	1.32
253.628	1.25
254.008	1.4
254.388	1.36
254.768	1.34
255.147	1.36
255.527	1.32
255.907	1.33
256.287	1.35
256.666	1.33
257.046	1.49
257.425	1.37
257.805	1.41
258.184	1.31
258.564	1.35
258.943	1.38
259.323	1.4
259.702	1.5
260.081	1.42
260.461	1.47
260.84	1.48
261.219	1.75
261.598	1.49
261.977	1.47
262.356	1.54
262.736	1.47
263.115	1.45
263.494	1.4
263.873	1.36
264.251	1.57
264.63	1.67
265.009	1.39
265.388	1.39
265.767	1.39
266.145	1.33
266.524	1.35
266.903	1.44
267.281	1.32
267.66	1.43
268.039	1.28
268.417	1.38
268.796	1.46
269.174	1.44
269.552	1.45
269.931	1.52
270.309	1.41
270.687	1.64
271.066	1.82
271.444	1.4
271.822	1.61
272.2	1.43
272.578	1.57
272.956	1.42
273.334	1.4
273.712	1.37
274.09	1.43
274.468	1.45
274.846	1.29
275.224	1.33
275.602	1.41
275.98	1.48
276.357	1.37
276.735	1.53
277.113	1.39
277.49	1.29
277.868	1.3
278.246	1.47
278.623	1.26
279.001	1.33
279.378	1.33
279.756	1.5
280.133	1.59
280.51	1.4
280.888	1.48
281.265	1.24
281.642	1.4
282.019	1.59
282.396	1.69
282.773	1.45
283.151	1.46
283.528	1.39
283.905	1.36
284.282	1.53
284.659	1.53
285.035	1.29
285.412	1.32
285.789	1.5
286.166	1.48
286.543	1.48
286.919	1.42
287.296	1.37
287.673	1.54
288.049	1.56
288.426	1.48
288.802	1.41
289.179	1.45
289.555	1.81
289.932	1.52
290.308	1.28
290.684	1.38
291.061	1.43
291.437	1.45
291.813	1.32
292.189	1.29
292.565	1.43
292.942	1.37
293.318	1.49
293.694	1.44
294.07	1.37
294.446	1.33
294.822	1.58
295.197	1.41
295.573	1.58
295.949	1.51
296.325	1.49
296.701	1.63
297.076	1.63
297.452	1.71
297.828	1.53
298.203	1.57
298.579	1.4
298.954	1.45
299.33	1.39
299.705	1.39
300.081	1.53
300.456	1.51
300.831	1.54
301.206	1.42
301.582	1.58
301.957	1.48
302.332	1.59
302.707	1.44
303.082	1.4
303.457	1.51
303.832	1.47
304.207	1.5
304.582	1.41
304.957	1.54
305.332	1.58
305.707	1.57
306.082	1.53
306.456	1.51
306.831	1.51
307.206	1.43
307.58	1.5
307.955	1.52
308.33	1.52
308.704	1.47
309.079	1.5
309.453	1.63
309.828	1.5
310.202	1.48
310.576	1.37
310.951	1.61
311.325	1.59
311.699	1.49
312.073	1.34
312.447	1.43
312.821	1.42
313.196	1.51
313.57	1.46
313.944	1.42
314.317	1.42
314.691	1.46
315.065	1.54
315.439	1.55
315.813	1.45
316.187	1.43
316.56	1.59
316.934	1.47
317.308	1.5
317.681	1.49
318.055	1.49
318.428	1.47
318.802	1.49
319.175	1.51
319.549	1.6
319.922	1.4
320.295	1.52
320.669	1.88
321.042	1.49
321.415	1.87
321.788	1.64
322.162	1.57
322.535	1.59
322.908	1.65
323.281	1.51
323.654	1.7
324.027	1.5
324.4	1.68
324.773	1.59
325.145	1.63
325.518	1.33
325.891	1.4
326.264	1.61
326.636	1.44
327.009	1.45
327.382	1.44
327.754	1.6
328.127	1.59
328.499	1.54
328.872	1.6
329.244	1.58
329.616	1.46
329.989	1.42
330.361	1.63
330.733	1.5
331.106	1.48
331.478	1.56
331.85	1.41
332.222	1.29
332.594	1.49
332.966	1.59
333.338	1.66
333.71	1.67
334.082	1.54
334.454	1.44
334.826	1.46
335.197	1.53
335.569	1.5
335.941	1.37
336.312	1.47
336.684	1.44
337.056	1.48
337.427	1.56
337.799	1.59
338.17	1.51
338.542	1.5
338.913	1.59
339.284	1.58
339.656	1.66
340.027	1.49
340.398	1.65
340.769	1.56
341.141	1.69
341.512	1.57
341.883	1.6
342.254	1.52
342.625	1.66
342.996	1.53
343.367	1.55
343.738	1.52
344.108	1.39
344.479	1.89
344.85	1.45
345.221	1.51
345.591	1.38
345.962	1.41
346.333	1.5
346.703	1.24
347.074	1.42
347.444	1.4
347.815	1.41
348.185	1.37
348.556	1.32
348.926	1.38
349.296	1.33
349.666	1.36
350.037	1.33
350.407	1.26
350.777	1.43
351.147	1.37
351.517	1.49
351.887	1.41
352.257	1.39
352.627	1.26
352.997	1.24
353.367	1.36
353.737	1.45
354.106	1.45
354.476	1.29
354.846	1.33
355.216	1.46
355.585	1.29
355.955	1.38
356.324	1.32
356.694	1.28
357.063	1.31
357.433	1.19
357.802	1.26
358.171	1.39
358.541	1.24
358.91	1.25
359.279	1.22
359.648	1.17
360.017	1.22
360.387	1.22
360.756	1.12
361.125	1.13
361.494	1.19
361.863	1.12
362.231	1.12
362.6	1.16
362.969	1.08
363.338	1.08
363.707	1.11
364.075	1.1
364.444	1
364.813	1.06
365.181	1.01
365.55	1.03
365.918	1.05
366.287	0.99
366.655	1.06
367.024	0.99
367.392	0.97
367.76	0.96
368.128	0.96
368.497	0.95
368.865	0.9
369.233	0.9
369.601	0.92
369.969	0.93
370.337	0.92
370.705	0.88
371.073	0.87
371.441	0.89
371.809	0.86
372.177	0.9
372.544	0.89
372.912	0.86
373.28	0.89
373.647	0.87
374.015	0.9
374.383	0.89
374.75	0.86
375.118	0.86
375.485	0.85
375.853	0.85
376.22	0.85
376.587	0.85
376.955	0.85
377.322	0.86
377.689	0.84
378.056	0.86
378.423	0.85
378.79	0.85
379.157	0.83
379.524	0.82
379.891	0.86
380.258	0.84
380.625	0.83
380.992	0.84
381.359	0.83
381.726	0.87
382.092	0.85
382.459	0.84
382.826	0.88
383.192	0.86
383.559	0.85
383.925	0.86
384.292	0.84
384.658	0.88
385.025	0.89
385.391	0.88
385.757	0.93
386.123	0.92
386.49	0.91
386.856	0.9
387.222	0.92
387.588	0.9
387.954	0.94
388.32	0.93
388.686	0.9
389.052	0.9
389.418	0.91
389.784	0.92
390.15	0.92
390.515	0.88
390.881	0.94
391.247	0.91
391.613	0.98
391.978	0.91
392.344	0.92
392.709	0.92
393.075	0.92
393.44	0.91
393.806	0.9
394.171	0.92
394.536	0.91
394.902	0.93
395.267	0.92
395.632	0.86
395.997	0.88
396.362	0.87
396.727	0.88
397.092	0.89
397.457	0.88
397.822	0.87
398.187	0.86
398.552	0.85
398.917	0.85
399.282	0.87
399.646	0.88
400.011	0.86
400.376	0.85
400.74	0.82
401.105	0.79
401.47	0.82
401.834	0.8
402.199	0.79
402.563	0.78
402.927	0.79
403.292	0.82
403.656	0.79
404.02	0.77
404.384	0.77
404.749	0.77
405.113	0.78
405.477	0.77
405.841	0.77
406.205	0.77
406.569	0.74
406.933	0.74
407.296	0.73
407.66	0.73
408.024	0.69
408.388	0.73
408.752	0.71
409.115	0.71
409.479	0.7
409.842	0.7
410.206	0.68
410.569	0.69
410.933	0.69
411.296	0.68
411.66	0.69
412.023	0.67
412.386	0.66
412.749	0.65
413.113	0.64
413.476	0.64
413.839	0.63
414.202	0.62
414.565	0.61
414.928	0.63
415.291	0.63
415.654	0.63
416.017	0.65
416.38	0.61
416.742	0.62
417.105	0.61
417.468	0.6
417.83	0.61
418.193	0.63
418.556	0.59
418.918	0.59
419.281	0.63
419.643	0.61
420.005	0.61
420.368	0.6
420.73	0.59
421.092	0.6
421.455	0.59
421.817	0.56
422.179	0.58
422.541	0.58
422.903	0.62
423.265	0.57
423.627	0.58
423.989	0.57
424.351	0.56
424.713	0.56
425.075	0.55
425.436	0.56
425.798	0.54
426.16	0.57
426.521	0.56
426.883	0.56
427.245	0.54
427.606	0.55
427.967	0.54
428.329	0.54
428.69	0.55
429.052	0.56
429.413	0.56
429.774	0.55
430.135	0.53
430.497	0.52
430.858	0.52
431.219	0.53
431.58	0.51
431.941	0.54
432.302	0.52
432.663	0.53
433.024	0.53
433.384	0.54
433.745	0.5
434.106	0.52
434.467	0.54
434.827	0.53
435.188	0.53
435.548	0.52
435.909	0.49
436.269	0.54
436.63	0.5
436.99	0.52
437.351	0.49
437.711	0.5
438.071	0.49
438.431	0.5
438.792	0.49
439.152	0.49
439.512	0.48
439.872	0.49
440.232	0.52
440.592	0.48
440.952	0.48
441.312	0.47
441.671	0.48
442.031	0.47
442.391	0.45
442.751	0.48
443.11	0.46
443.47	0.47
443.83	0.47
444.189	0.47
444.549	0.46
444.908	0.46
445.267	0.45
445.627	0.45
445.986	0.44
446.345	0.44
446.705	0.43
447.064	0.44
447.423	0.44
447.782	0.43
448.141	0.42
448.5	0.42
448.859	0.44
449.218	0.41
449.577	0.42
449.936	0.44
450.295	0.42
450.653	0.42
451.012	0.43
451.371	0.42
451.729	0.41
452.088	0.41
452.447	0.41
452.805	0.41
453.163	0.41
453.522	0.4
453.88	0.41
454.239	0.4
454.597	0.38
454.955	0.38
455.313	0.39
455.671	0.39
456.029	0.38
456.388	0.37
456.746	0.38
457.104	0.37
457.461	0.36
457.819	0.37
458.177	0.35
458.535	0.34
458.893	0.35
459.25	0.35
459.608	0.34
459.966	0.34
460.323	0.33
460.681	0.32
461.038	0.34
461.396	0.33
461.753	0.31
462.111	0.33
462.468	0.31
462.825	0.31
463.182	0.31
463.54	0.31
463.897	0.31
464.254	0.3
464.611	0.3
464.968	0.3
465.325	0.3
465.682	0.3
466.039	0.3
466.395	0.29
466.752	0.29
467.109	0.28
467.466	0.28
467.822	0.28
468.179	0.27
468.535	0.27
468.892	0.27
469.248	0.26
469.605	0.26
469.961	0.26
470.318	0.26
470.674	0.26
471.03	0.26
471.386	0.26
471.743	0.24
472.099	0.24
472.455	0.25
472.811	0.24
473.167	0.24
473.523	0.24
473.879	0.23
474.235	0.23
474.59	0.22
474.946	0.22
475.302	0.22
475.657	0.22
476.013	0.21
476.369	0.2
476.724	0.21
477.08	0.21
477.435	0.21
477.791	0.21
478.146	0.21
478.501	0.2
478.857	0.21
479.212	0.2
479.567	0.19
479.922	0.19
480.277	0.19
480.632	0.19
480.987	0.19
481.342	0.18
481.697	0.17
482.052	0.18
482.407	0.18
482.762	0.18
483.116	0.17
483.471	0.17
483.826	0.16
484.18	0.16
484.535	0.16
484.89	0.16
485.244	0.16
485.598	0.16
485.953	0.16
486.307	0.16
486.661	0.16
487.016	0.15
487.37	0.16
487.724	0.15
488.078	0.15
488.432	0.15
488.786	0.16
489.14	0.15
489.494	0.14
489.848	0.15
490.202	0.14
490.556	0.14
490.91	0.14
491.263	0.14
491.617	0.14
491.971	0.14
492.324	0.14
492.678	0.14
493.031	0.14
493.385	0.14
493.738	0.13
494.091	0.14
494.445	0.13
494.798	0.13
495.151	0.13
495.504	0.13
495.857	0.13
496.21	0.13
496.564	0.13
496.916	0.13
497.269	0.12
497.622	0.13
497.975	0.13
498.328	0.12
498.681	0.12
499.033	0.12
499.386	0.12
499.739	0.13
500.091	0.12
500.444	0.12
500.796	0.12
501.149	0.11
501.501	0.12
501.854	0.12
502.206	0.12
502.558	0.12
502.91	0.12
503.263	0.12
503.615	0.12
503.967	0.12
504.319	0.12
504.671	0.11
505.023	0.11
505.375	0.11
505.726	0.11
506.078	0.11
506.43	0.11
506.782	0.11
507.133	0.11
507.485	0.11
507.837	0.12
508.188	0.11
508.54	0.11
508.891	0.11
509.243	0.11
509.594	0.11
509.945	0.11
510.296	0.11
510.648	0.12
510.999	0.11
511.35	0.11
511.701	0.11
512.052	0.11
512.403	0.11
512.754	0.1
513.105	0.1
513.456	0.1
513.807	0.1
514.157	0.11
514.508	0.11
514.859	0.11
515.209	0.11
515.56	0.11
515.91	0.11
516.261	0.11
516.611	0.1
516.962	0.11
517.312	0.11
517.662	0.1
518.013	0.1
518.363	0.11
518.713	0.11
519.063	0.11
519.413	0.11
519.763	0.11
520.113	0.1
520.463	0.11
520.813	0.12
521.163	0.11
521.512	0.11
521.862	0.11
522.212	0.12
522.562	0.11
522.911	0.11
523.261	0.11
523.61	0.11
523.96	0.11
524.309	0.11
524.658	0.11
525.008	0.11
525.357	0.1
525.706	0.12
526.056	0.1
526.405	0.11
526.754	0.11
527.103	0.11
527.452	0.12
527.801	0.11
528.15	0.11
528.499	0.11
528.847	0.11
529.196	0.12
529.545	0.12
529.893	0.11
530.242	0.12
530.591	0.11
530.939	0.12
531.288	0.12
531.636	0.12
531.985	0.12
532.333	0.12
532.681	0.12
533.029	0.12
533.378	0.11
533.726	0.11
534.074	0.12
534.422	0.11
534.77	0.12
535.118	0.12
535.466	0.11
535.814	0.12
536.162	0.12
536.509	0.13
536.857	0.12
537.205	0.12
537.552	0.12
537.9	0.12
538.248	0.11
538.595	0.12
538.943	0.11
539.29	0.11
539.637	0.12
539.985	0.11
540.332	0.12
540.679	0.11
541.026	0.12
541.373	0.12
541.721	0.11
542.068	0.12
542.415	0.11
542.762	0.11
543.108	0.11
543.455	0.1
543.802	0.1
544.149	0.1
544.496	0.11
544.842	0.1
545.189	0.1
545.535	0.11
545.882	0.11
546.228	0.1
546.575	0.1
546.921	0.1
547.267	0.11
547.614	0.1
547.96	0.1
548.306	0.11
548.652	0.1
548.998	0.11
549.344	0.1
549.69	0.11
550.036	0.1
550.382	0.11
550.728	0.11
551.074	0.11
551.42	0.11
551.765	0.11
552.111	0.11
552.457	0.11
552.802	0.11
553.148	0.11
553.493	0.1
553.839	0.11
554.184	0.12
554.529	0.11
554.875	0.11
555.22	0.11
555.565	0.11
555.91	0.11
556.255	0.12
556.6	0.12
556.945	0.11
557.29	0.11
557.635	0.11
557.98	0.11
558.325	0.11
558.67	0.12
559.014	0.11
559.359	0.12
559.704	0.12
560.048	0.11
560.393	0.12
560.737	0.1
561.082	0.12
561.426	0.11
561.77	0.1
562.115	0.1
562.459	0.11
562.803	0.1
563.147	0.11
563.491	0.12
563.835	0.11
564.179	0.11
564.523	0.11
564.867	0.1
565.211	0.11
565.555	0.11
565.899	0.12
566.242	0.12
566.586	0.1
566.93	0.11
567.273	0.12
567.617	0.11
567.96	0.12
568.304	0.12
568.647	0.11
568.99	0.12
569.334	0.12
569.677	0.11
570.02	0.12
570.363	0.12
570.706	0.11
571.049	0.12
571.392	0.12
571.735	0.11
572.078	0.12
572.421	0.12
572.764	0.12
573.106	0.11
573.449	0.11
573.792	0.11
574.134	0.11
574.477	0.12
574.819	0.12
575.162	0.11
575.504	0.11
575.847	0.11
576.189	0.11
576.531	0.11
576.873	0.11
577.215	0.11
577.558	0.12
577.9	0.11
578.242	0.11
578.584	0.12
578.926	0.11
579.267	0.11
579.609	0.11
579.951	0.11
580.293	0.11
580.634	0.11
580.976	0.11
581.318	0.11
581.659	0.11
582.001	0.12
582.342	0.11
582.683	0.12
583.025	0.1
583.366	0.11
583.707	0.11
584.049	0.1
584.39	0.11
584.731	0.11
585.072	0.1
585.413	0.11
585.754	0.11
586.095	0.12
586.435	0.1
586.776	0.11
587.117	0.11
587.458	0.11
587.798	0.11
588.139	0.11
588.48	0.11
588.82	0.11
589.161	0.11
589.501	0.11
589.841	0.11
590.182	0.11
590.522	0.11
590.862	0.11
591.202	0.11
591.542	0.11
591.882	0.11
592.222	0.11
592.562	0.11
592.902	0.11
593.242	0.11
593.582	0.12
593.922	0.11
594.261	0.11
594.601	0.11
594.941	0.11
595.28	0.12
595.62	0.11
595.959	0.11
596.299	0.11
596.638	0.11
596.977	0.11
597.317	0.12
597.656	0.12
597.995	0.11
598.334	0.12
598.673	0.11
599.012	0.11
599.351	0.11
599.69	0.11
600.029	0.12
600.368	0.12
600.707	0.12
601.046	0.12
601.384	0.12
601.723	0.12
602.061	0.11
602.4	0.11
602.738	0.11
603.077	0.12
603.415	0.11
603.754	0.11
604.092	0.11
604.43	0.11
604.768	0.11
605.107	0.11
605.445	0.11
605.783	0.11
606.121	0.1
606.459	0.11
606.796	0.11
607.134	0.11
607.472	0.1
607.81	0.11
608.148	0.1
608.485	0.11
608.823	0.11
609.16	0.11
609.498	0.11
609.835	0.1
610.173	0.1
610.51	0.11
610.847	0.11
611.185	0.11
611.522	0.11
611.859	0.11
612.196	0.12
612.533	0.12
612.87	0.13
613.207	0.12
613.544	0.12
613.881	0.13
614.217	0.12
614.554	0.12
614.891	0.12
615.228	0.11
615.564	0.12
615.901	0.12
616.237	0.12
616.574	0.12
616.91	0.12
617.246	0.12
617.583	0.12
617.919	0.13
618.255	0.12
618.591	0.12
618.927	0.12
619.263	0.12
619.599	0.13
619.935	0.12
620.271	0.12
620.607	0.12
620.943	0.12
621.279	0.12
621.614	0.12
621.95	0.12
622.286	0.11
622.621	0.12
622.957	0.11
623.292	0.12
623.627	0.12
623.963	0.11
624.298	0.11
624.633	0.11
624.968	0.11
625.304	0.11
625.639	0.1
625.974	0.11
626.309	0.11
626.644	0.11
626.979	0.11
627.313	0.11
627.648	0.11
627.983	0.11
628.318	0.11
628.652	0.1
628.987	0.11
629.321	0.11
629.656	0.1
629.99	0.1
630.325	0.1
630.659	0.1
630.993	0.1
631.327	0.11
631.662	0.09
631.996	0.1
632.33	0.1
632.664	0.1
632.998	0.1
633.332	0.1
633.666	0.1
633.999	0.1
634.333	0.1
634.667	0.1
635.001	0.1
635.334	0.1
635.668	0.1
636.001	0.1
636.335	0.1
636.668	0.1
637.001	0.1
637.335	0.1
637.668	0.1
638.001	0.09
638.334	0.1
638.668	0.09
639.001	0.1
639.334	0.1
639.667	0.09
639.999	0.1
640.332	0.1
640.665	0.09
640.998	0.1
641.331	0.1
641.663	0.09
641.996	0.1
642.328	0.09
642.661	0.1
642.993	0.1
643.326	0.1
643.658	0.09
643.99	0.09
644.323	0.09
644.655	0.1
644.987	0.1
645.319	0.09
645.651	0.1
645.983	0.09
646.315	0.09
646.647	0.1
646.979	0.1
647.31	0.1
647.642	0.09
647.974	0.09
648.305	0.1
648.637	0.1
648.968	0.1
649.3	0.1
649.631	0.1
649.963	0.1
650.294	0.1
650.625	0.1
650.957	0.1
651.288	0.1
651.619	0.1
651.95	0.1
652.281	0.1
652.612	0.1
652.943	0.11
653.274	0.11
653.604	0.1
653.935	0.1
654.266	0.09
654.596	0.09
654.927	0.09
655.258	0.1
655.588	0.1
655.918	0.1
656.249	0.08
656.579	0.1
656.909	0.09
657.24	0.1
657.57	0.1
657.9	0.1
658.23	0.1
658.56	0.1
658.89	0.1
659.22	0.1
659.55	0.1
659.88	0.11
660.209	0.11
660.539	0.11
660.869	0.11
661.198	0.11
661.528	0.1
661.857	0.1
662.187	0.1
662.516	0.1
662.846	0.1
663.175	0.1
663.504	0.11
663.833	0.1
664.163	0.1
664.492	0.09
664.821	0.1
665.15	0.1
665.479	0.1
665.807	0.1
666.136	0.1
666.465	0.1
666.794	0.1
667.122	0.1
667.451	0.09
667.78	0.1
668.108	0.1
668.437	0.09
668.765	0.1
669.093	0.1
669.422	0.09
669.75	0.09
670.078	0.09
670.406	0.09
670.734	0.1
671.062	0.1
671.39	0.09
671.718	0.09
672.046	0.1
672.374	0.09
672.702	0.09
673.029	0.09
673.357	0.09
673.685	0.1
674.012	0.09
674.34	0.09
674.667	0.1
674.995	0.09
675.322	0.1
675.649	0.09
675.977	0.09
676.304	0.09
676.631	0.09
676.958	0.1
677.285	0.09
677.612	0.09
677.939	0.1
678.266	0.1
678.593	0.09
678.92	0.09
679.246	0.09
679.573	0.1
679.9	0.09
680.226	0.09
680.553	0.09
680.879	0.09
681.206	0.1
681.532	0.09
681.858	0.09
682.184	0.09
682.511	0.1
682.837	0.09
683.163	0.08
683.489	0.08
683.815	0.08
684.141	0.08
684.467	0.09
684.793	0.08
685.118	0.08
685.444	0.09
685.77	0.08
686.095	0.09
686.421	0.08
686.746	0.09
687.072	0.09
687.397	0.08
687.723	0.1
688.048	0.09
688.373	0.09
688.698	0.09
689.023	0.09
689.349	0.09
689.674	0.1
689.999	0.08
690.323	0.09
690.648	0.09
690.973	0.08
691.298	0.08
691.623	0.09
691.947	0.09
692.272	0.09
692.596	0.09
692.921	0.09
693.245	0.09
693.57	0.09
693.894	0.09
694.218	0.09
694.543	0.08
694.867	0.09
695.191	0.08
695.515	0.09
695.839	0.08
696.163	0.08
696.487	0.08
696.811	0.08
697.135	0.09
697.458	0.08
697.782	0.08
698.106	0.08
698.429	0.09
698.753	0.08
699.076	0.08
699.4	0.08
699.723	0.08
700.046	0.08
700.37	0.08
700.693	0.08
701.016	0.08
701.339	0.08
701.662	0.09
701.985	0.09
702.308	0.08
702.631	0.09
702.954	0.08
703.277	0.08
703.599	0.09
703.922	0.07
704.245	0.08
704.567	0.07
704.89	0.07
705.212	0.07
705.535	0.07
705.857	0.07
706.179	0.07
706.502	0.07
706.824	0.07
707.146	0.07
707.468	0.08
707.79	0.07
708.112	0.08
708.434	0.08
708.756	0.08
709.078	0.08
709.399	0.07
709.721	0.08
710.043	0.08
710.364	0.07
710.686	0.08
711.007	0.07
711.329	0.08
711.65	0.08
711.972	0.07
712.293	0.08
712.614	0.08
712.935	0.09
713.256	0.09
713.577	0.09
713.898	0.07
714.219	0.08
714.54	0.07
714.861	0.07
715.182	0.07
715.503	0.07
715.823	0.07
716.144	0.07
716.464	0.07
716.785	0.06
717.105	0.06
717.426	0.07
717.746	0.07
718.066	0.06
718.387	0.06
718.707	0.06
719.027	0.07
719.347	0.06
719.667	0.07
719.987	0.06
720.307	0.06
720.627	0.06
720.947	0.07
721.266	0.07
721.586	0.07
721.906	0.06
722.225	0.06
722.545	0.06
722.864	0.06
723.184	0.06
723.503	0.06
723.823	0.07
724.142	0.06
724.461	0.06
724.78	0.07
725.099	0.06
725.418	0.06
725.737	0.06
726.056	0.06
726.375	0.06
726.694	0.06
727.013	0.07
727.331	0.06
727.65	0.06
727.969	0.07
728.287	0.07
728.606	0.06
728.924	0.06
729.242	0.06
729.561	0.06
729.879	0.07
730.197	0.06
730.515	0.07
730.834	0.06
731.152	0.06
731.47	0.07
731.788	0.07
732.105	0.06
732.423	0.06
732.741	0.06
733.059	0.07
733.376	0.07
733.694	0.06
734.012	0.07
734.329	0.07
734.647	0.07
734.964	0.07
735.281	0.07
735.599	0.07
735.916	0.08
736.233	0.06
736.55	0.06
736.867	0.06
737.184	0.07
737.501	0.06
737.818	0.06
738.135	0.07
738.452	0.06
738.768	0.06
739.085	0.06
739.402	0.05
739.718	0.06
740.035	0.06
740.351	0.07
740.668	0.07
740.984	0.06
741.3	0.06
741.617	0.06
741.933	0.06
742.249	0.07
742.565	0.06
742.881	0.07
743.197	0.07
743.513	0.06
743.829	0.06
744.144	0.07
744.46	0.05
744.776	0.06
745.091	0.06
745.407	0.06
745.722	0.06
746.038	0.05
746.353	0.04
746.669	0.07
746.984	0.05
747.299	0.05
747.614	0.06
747.93	0.06
748.245	0.05
748.56	0.05
748.875	0.05
749.189	0.06
749.504	0.06
749.819	0.06
750.134	0.06
750.448	0.06
750.763	0.06
751.078	0.05
751.392	0.05
751.707	0.07
752.021	0.06
752.335	0.07
752.65	0.06
752.964	0.06
753.278	0.06
753.592	0.06
753.906	0.06
754.22	0.06
754.534	0.06
754.848	0.06
755.162	0.06
755.476	0.06
755.789	0.07
756.103	0.05
756.417	0.06
756.73	0.06
757.044	0.06
757.357	0.06
757.671	0.06
757.984	0.07
758.297	0.06
758.61	0.06
758.924	0.06
759.237	0.06
759.55	0.06
759.863	0.06
760.176	0.07
760.488	0.05
760.801	0.06
761.114	0.06
761.427	0.05
761.739	0.06
762.052	0.05
762.365	0.05
762.677	0.06
762.99	0.05
763.302	0.06
763.614	0.05
763.926	0.06
764.239	0.05
764.551	0.06
764.863	0.05
765.175	0.06
765.487	0.06
765.799	0.05
766.111	0.05
766.423	0.05
766.734	0.06
767.046	0.05
767.358	0.05
767.669	0.05
767.981	0.05
768.292	0.05
768.604	0.05
768.915	0.04
769.226	0.05
769.537	0.05
769.849	0.06
770.16	0.05
770.471	0.04
770.782	0.04
771.093	0.05
771.404	0.03
771.715	0.05
772.025	0.05
772.336	0.05
772.647	0.04
772.957	0.04
773.268	0.05
773.578	0.04
773.889	0.05
774.199	0.05
774.51	0.06
774.82	0.05
775.13	0.06
775.44	0.06
775.75	0.06
776.06	0.05
776.37	0.05
776.68	0.05
776.99	0.05
777.3	0.05
777.61	0.06
777.92	0.05
778.229	0.05
778.539	0.05
778.848	0.05
779.158	0.05
779.467	0.05
779.777	0.05
780.086	0.05
780.395	0.05
780.704	0.05
781.013	0.04
781.323	0.05
781.632	0.05
781.941	0.05
782.249	0.05
782.558	0.04
782.867	0.05
783.176	0.04
783.485	0.04
783.793	0.05
784.102	0.05
784.41	0.05
784.719	0.04
785.027	0.04
785.335	0.05
785.644	0.04
785.952	0.04
786.26	0.05
786.568	0.04
786.876	0.04
787.184	0.05
787.492	0.04
787.8	0.05
788.108	0.04
788.416	0.04
788.723	0.04
789.031	0.04
789.338	0.04
789.646	0.04
789.953	0.05
790.261	0.05
790.568	0.05
790.876	0.04
791.183	0.05
791.49	0.04
791.797	0.04
792.104	0.04
792.411	0.05
792.718	0.05
793.025	0.05
793.332	0.05
793.639	0.06
793.945	0.06
794.252	0.06
794.559	0.06
794.865	0.05
795.172	0.05
795.478	0.05
795.784	0.05
796.091	0.06
796.397	0.06
796.703	0.06
797.009	0.06
797.315	0.05
797.622	0.06
797.927	0.05
798.233	0.06
798.539	0.06
798.845	0.06
799.151	0.06
799.456	0.06
799.762	0.06
800.068	0.05
800.373	0.06
800.679	0.05
800.984	0.06
801.289	0.06
801.595	0.06
801.9	0.06
802.205	0.05
802.51	0.05
802.815	0.06
803.12	0.06
803.425	0.06
803.73	0.05
804.035	0.05
804.339	0.05
804.644	0.06
804.949	0.05
805.253	0.05
805.558	0.05
805.862	0.05
806.167	0.05
806.471	0.04
806.775	0.05
807.08	0.05
807.384	0.05
807.688	0.05
807.992	0.05
808.296	0.04
808.6	0.05
808.904	0.06
809.207	0.05
809.511	0.06
809.815	0.06
810.119	0.06
810.422	0.06
810.726	0.06
811.029	0.07
811.332	0.06
811.636	0.07
811.939	0.06
812.242	0.07
812.546	0.07
812.849	0.06
813.152	0.07
813.455	0.07
813.758	0.07
814.06	0.07
814.363	0.06
814.666	0.06
814.969	0.07
815.271	0.07
815.574	0.07
815.877	0.06
816.179	0.06
816.481	0.06
816.784	0.06
817.086	0.05
817.388	0.05
817.69	0.05
817.993	0.04
818.295	0.05
818.597	0.05
818.899	0.04
819.2	0.04
819.502	0.04
819.804	0.04
820.106	0.05
820.407	0.04
820.709	0.05
821.01	0.05
821.312	0.05
821.613	0.05
821.915	0.03
822.216	0.04
822.517	0.04
822.818	0.04
823.119	0.04
823.42	0.04
823.721	0.03
824.022	0.03
824.323	0.04
824.624	0.03
824.925	0.04
825.226	0.05
825.526	0.04
825.827	0.04
826.127	0.04
826.428	0.04
826.728	0.03
827.028	0.04
827.329	0.04
827.629	0.03
827.929	0.03
828.229	0.04
828.529	0.03
828.829	0.04
829.129	0.04
829.429	0.04
829.729	0.03
830.029	0.03
830.328	0.04
830.628	0.03
830.927	0.02
831.227	0.02
831.526	0.03
831.826	0.03
832.125	0.03
832.424	0.02
832.724	0.03
833.023	0.03
833.322	0.03
833.621	0.03
833.92	0.02
834.219	0.03
834.518	0.03
834.816	0.02
835.115	0.02
835.414	0.02
835.712	0.02
836.011	0.02
836.309	0.02
836.608	0.02
836.906	0.01
837.205	0.01
837.503	-0
837.801	0
838.099	0
838.397	-0.01
838.695	-0
838.993	-0.01
839.291	-0.01
839.589	-0
839.887	-0.01
840.184	-0.01
840.482	-0.01
840.78	-0
841.077	-0.01
841.375	-0.01
841.672	-0.01
841.969	-0.01
842.267	-0.01
842.564	-0.01
842.861	-0
843.158	-0
843.455	-0.02
843.752	-0.02
844.049	-0.02
844.346	-0.01
844.643	-0.04
844.94	-0.03
845.236	-0.02
845.533	-0.02
845.83	-0.03
846.126	-0.03
846.423	-0.03
846.719	-0.04
847.015	-0.04
847.312	-0.04
847.608	-0.05
847.904	-0.04
848.2	-0.04
848.496	-0.04
848.792	-0.04
849.088	-0.03
849.384	-0.04
849.68	-0.05
849.975	-0.04
850.271	-0.05
850.567	-0.05
850.862	-0.05
851.158	-0.06
851.453	-0.05
851.748	-0.06
852.044	-0.06
852.339	-0.05
852.634	-0.06
852.929	-0.06
853.224	-0.05
853.519	-0.06
853.814	-0.06
854.109	-0.06
854.404	-0.05
854.699	-0.07
854.994	-0.06
855.288	-0.06
855.583	-0.06
855.877	-0.07
856.172	-0.06
856.466	-0.08
856.76	-0.07
857.055	-0.07
857.349	-0.08
857.643	-0.09
857.937	-0.09
858.231	-0.09
858.525	-0.1
858.819	-0.1
859.113	-0.11
859.407	-0.11
859.701	-0.1
859.994	-0.11
860.288	-0.1
860.581	-0.1
860.875	-0.11
861.168	-0.11
861.462	-0.11
861.755	-0.1
862.048	-0.11
862.341	-0.11
862.634	-0.11
862.928	-0.1
863.221	-0.11
863.513	-0.11
863.806	-0.12
864.099	-0.12
864.392	-0.11
864.685	-0.11
864.977	-0.12
865.27	-0.12
865.562	-0.11
865.855	-0.12
866.147	-0.12
866.44	-0.1
866.732	-0.11
867.024	-0.12
867.316	-0.12
867.608	-0.13
867.9	-0.12
868.192	-0.12
868.484	-0.13
868.776	-0.13
869.068	-0.13
869.359	-0.11
869.651	-0.14
869.943	-0.14
870.234	-0.14
870.526	-0.14
870.817	-0.15
871.108	-0.13
871.4	-0.14
871.691	-0.15
871.982	-0.15
872.273	-0.16
872.564	-0.15
872.855	-0.15
873.146	-0.16
873.437	-0.16
873.728	-0.17
874.019	-0.16
874.309	-0.17
874.6	-0.16
874.89	-0.17
875.181	-0.17
875.471	-0.17
875.762	-0.17
876.052	-0.15
876.342	-0.14
876.632	-0.16
876.922	-0.17
877.213	-0.16
877.503	-0.18
877.792	-0.16
878.082	-0.18
878.372	-0.17
878.662	-0.18
878.952	-0.17
879.241	-0.15
879.531	-0.16
879.82	-0.15
880.11	-0.16
880.399	-0.16
880.688	-0.15
880.978	-0.15
881.267	-0.15
