Data from 12-12-AQDScycling_Absorbance__752__00752.txt Node

Date: Tue Dec 12 14:04:44 EST 2023
User: kyuminlee
Spectrometer: FLMS00943
Trigger mode: 0
Integration Time (sec): 1.000000E-1
Scans to average: 1
Electric dark correction enabled: true
Nonlinearity correction enabled: false
Boxcar width: 0
XAxis mode: Wavelengths
Number of Pixels in Spectrum: 2048
>>>>>Begin Spectral Data<<<<<
179.651	-0
180.037	-0
180.424	-0
180.81	-0
181.197	0.37
181.583	-0
181.97	-0.25
182.356	-0
182.743	0.22
183.129	1.77
183.515	0.34
183.901	-0
184.288	0.11
184.674	-0
185.06	-0.9
185.446	-0
185.832	-1.34
186.218	0.31
186.604	0.41
186.99	-0
187.376	0.74
187.762	-0.45
188.148	0.67
188.534	-0.01
188.92	0.37
189.305	0.07
189.691	0.38
190.077	0.21
190.463	0.06
190.848	0.15
191.234	0.12
191.619	-0.04
192.005	0.1
192.391	0.13
192.776	0.09
193.161	0.12
193.547	0.11
193.932	0.1
194.318	0.08
194.703	0.25
195.088	0.24
195.473	0.09
195.859	0.13
196.244	0.17
196.629	0.26
197.014	0.14
197.399	0.24
197.784	0.35
198.169	0.28
198.554	0.26
198.939	0.14
199.324	0.36
199.709	0.23
200.094	0.11
200.478	0.17
200.863	0.15
201.248	0.1
201.633	0.14
202.017	0.09
202.402	0.22
202.787	0.06
203.171	0.06
203.556	0.23
203.94	0.11
204.325	0.18
204.709	0.24
205.093	0.17
205.478	0.26
205.862	0.08
206.246	0.21
206.631	0.18
207.015	0.21
207.399	0.26
207.783	0.31
208.167	0.2
208.551	0.38
208.935	0.16
209.319	0.1
209.703	0.12
210.087	0.16
210.471	0.3
210.855	0.12
211.239	0.25
211.623	0.27
212.007	0.29
212.39	0.34
212.774	0.24
213.158	0.11
213.541	0.2
213.925	0.28
214.309	0.28
214.692	0.33
215.076	0.22
215.459	0.16
215.842	0.1
216.226	0.22
216.609	0.25
216.993	0.25
217.376	0.47
217.759	0.24
218.142	0.52
218.525	0.48
218.909	0.42
219.292	0.4
219.675	0.43
220.058	0.36
220.441	0.68
220.824	0.58
221.207	0.49
221.59	0.47
221.973	0.52
222.355	0.66
222.738	0.6
223.121	0.57
223.504	0.52
223.886	0.68
224.269	0.65
224.652	0.74
225.034	0.89
225.417	0.67
225.799	0.83
226.182	0.92
226.564	0.99
226.947	0.83
227.329	0.8
227.711	0.96
228.094	1.06
228.476	0.85
228.858	0.9
229.24	0.82
229.623	0.92
230.005	0.93
230.387	0.96
230.769	0.81
231.151	1.09
231.533	0.97
231.915	0.94
232.297	1.03
232.679	0.99
233.061	0.91
233.442	0.95
233.824	1.07
234.206	1.17
234.588	1.15
234.969	1.22
235.351	1.04
235.733	1.04
236.114	1.18
236.496	0.99
236.877	1.05
237.259	1.09
237.64	0.98
238.022	0.99
238.403	0.98
238.784	0.99
239.165	1.04
239.547	1.12
239.928	1.15
240.309	1.1
240.69	1.1
241.071	1.08
241.452	1.09
241.834	0.99
242.215	1.12
242.595	0.99
242.976	1.1
243.357	1.06
243.738	1.19
244.119	1.28
244.5	1.05
244.881	1.23
245.261	1.15
245.642	1.17
246.023	1.2
246.403	1.26
246.784	1.32
247.164	1.3
247.545	1.32
247.925	1.26
248.306	1.15
248.686	1.38
249.067	1.34
249.447	1.5
249.827	1.5
250.207	1.46
250.588	1.33
250.968	1.24
251.348	1.61
251.728	1.45
252.108	1.47
252.488	1.39
252.868	1.28
253.248	1.32
253.628	1.44
254.008	1.43
254.388	1.35
254.768	1.34
255.147	1.38
255.527	1.41
255.907	1.33
256.287	1.41
256.666	1.51
257.046	1.55
257.425	1.49
257.805	1.41
258.184	1.25
258.564	1.33
258.943	1.33
259.323	1.64
259.702	1.5
260.081	1.56
260.461	1.44
260.84	1.5
261.219	1.82
261.598	1.48
261.977	1.52
262.356	1.38
262.736	1.42
263.115	1.56
263.494	1.35
263.873	1.58
264.251	1.51
264.63	1.5
265.009	1.47
265.388	1.49
265.767	1.37
266.145	1.34
266.524	1.4
266.903	1.42
267.281	1.44
267.66	1.59
268.039	1.45
268.417	1.64
268.796	1.34
269.174	1.52
269.552	1.37
269.931	1.53
270.309	1.37
270.687	1.63
271.066	1.61
271.444	1.34
271.822	1.68
272.2	1.51
272.578	1.4
272.956	1.46
273.334	1.45
273.712	1.42
274.09	1.46
274.468	1.47
274.846	1.33
275.224	1.48
275.602	1.49
275.98	1.47
276.357	1.28
276.735	1.41
277.113	1.44
277.49	1.41
277.868	1.28
278.246	1.35
278.623	1.26
279.001	1.41
279.378	1.4
279.756	1.48
280.133	1.57
280.51	1.48
280.888	1.52
281.265	1.47
281.642	1.55
282.019	1.56
282.396	1.72
282.773	1.33
283.151	1.55
283.528	1.58
283.905	1.42
284.282	1.49
284.659	1.76
285.035	1.31
285.412	1.45
285.789	1.47
286.166	1.52
286.543	1.43
286.919	1.49
287.296	1.4
287.673	1.88
288.049	1.69
288.426	1.61
288.802	1.52
289.179	1.47
289.555	1.72
289.932	1.57
290.308	1.33
290.684	1.36
291.061	1.4
291.437	1.55
291.813	1.45
292.189	1.39
292.565	1.39
292.942	1.34
293.318	1.49
293.694	1.48
294.07	1.4
294.446	1.44
294.822	1.48
295.197	1.49
295.573	1.44
295.949	1.6
296.325	1.54
296.701	1.53
297.076	1.53
297.452	1.54
297.828	1.52
298.203	1.67
298.579	1.45
298.954	1.56
299.33	1.44
299.705	1.51
300.081	1.48
300.456	1.55
300.831	1.49
301.206	1.4
301.582	1.59
301.957	1.55
302.332	1.57
302.707	1.45
303.082	1.41
303.457	1.53
303.832	1.52
304.207	1.45
304.582	1.45
304.957	1.46
305.332	1.47
305.707	1.41
306.082	1.47
306.456	1.55
306.831	1.43
307.206	1.39
307.58	1.45
307.955	1.48
308.33	1.37
308.704	1.48
309.079	1.37
309.453	1.58
309.828	1.43
310.202	1.45
310.576	1.41
310.951	1.42
311.325	1.44
311.699	1.48
312.073	1.31
312.447	1.39
312.821	1.34
313.196	1.46
313.57	1.41
313.944	1.51
314.317	1.38
314.691	1.39
315.065	1.56
315.439	1.56
315.813	1.42
316.187	1.47
316.56	1.56
316.934	1.64
317.308	1.49
317.681	1.59
318.055	1.73
318.428	1.54
318.802	1.48
319.175	1.47
319.549	1.53
319.922	1.39
320.295	1.39
320.669	1.61
321.042	1.53
321.415	1.69
321.788	1.47
322.162	1.4
322.535	1.55
322.908	1.63
323.281	1.45
323.654	1.67
324.027	1.4
324.4	1.62
324.773	1.52
325.145	1.55
325.518	1.36
325.891	1.45
326.264	1.59
326.636	1.42
327.009	1.42
327.382	1.4
327.754	1.59
328.127	1.53
328.499	1.59
328.872	1.5
329.244	1.51
329.616	1.53
329.989	1.46
330.361	1.64
330.733	1.53
331.106	1.55
331.478	1.54
331.85	1.45
332.222	1.46
332.594	1.55
332.966	1.58
333.338	1.62
333.71	1.63
334.082	1.66
334.454	1.39
334.826	1.52
335.197	1.59
335.569	1.47
335.941	1.45
336.312	1.49
336.684	1.41
337.056	1.51
337.427	1.57
337.799	1.54
338.17	1.53
338.542	1.43
338.913	1.59
339.284	1.52
339.656	1.49
340.027	1.51
340.398	1.6
340.769	1.54
341.141	1.73
341.512	1.49
341.883	1.6
342.254	1.53
342.625	1.55
342.996	1.42
343.367	1.48
343.738	1.47
344.108	1.41
344.479	1.59
344.85	1.34
345.221	1.45
345.591	1.34
345.962	1.41
346.333	1.39
346.703	1.24
347.074	1.39
347.444	1.41
347.815	1.45
348.185	1.47
348.556	1.38
348.926	1.42
349.296	1.34
349.666	1.33
350.037	1.28
350.407	1.33
350.777	1.39
351.147	1.42
351.517	1.32
351.887	1.36
352.257	1.47
352.627	1.38
352.997	1.33
353.367	1.43
353.737	1.37
354.106	1.38
354.476	1.34
354.846	1.46
355.216	1.47
355.585	1.44
355.955	1.4
356.324	1.36
356.694	1.37
357.063	1.42
357.433	1.33
357.802	1.31
358.171	1.32
358.541	1.36
358.91	1.28
359.279	1.37
359.648	1.29
360.017	1.44
360.387	1.32
360.756	1.28
361.125	1.38
361.494	1.38
361.863	1.29
362.231	1.31
362.6	1.33
362.969	1.32
363.338	1.24
363.707	1.36
364.075	1.35
364.444	1.21
364.813	1.29
365.181	1.33
365.55	1.26
365.918	1.31
366.287	1.31
366.655	1.37
367.024	1.35
367.392	1.3
367.76	1.29
368.128	1.33
368.497	1.26
368.865	1.3
369.233	1.26
369.601	1.29
369.969	1.3
370.337	1.23
370.705	1.35
371.073	1.31
371.441	1.33
371.809	1.21
372.177	1.33
372.544	1.3
372.912	1.33
373.28	1.34
373.647	1.29
374.015	1.38
374.383	1.46
374.75	1.4
375.118	1.34
375.485	1.38
375.853	1.4
376.22	1.36
376.587	1.25
376.955	1.42
377.322	1.41
377.689	1.4
378.056	1.32
378.423	1.31
378.79	1.33
379.157	1.44
379.524	1.36
379.891	1.33
380.258	1.35
380.625	1.37
380.992	1.42
381.359	1.39
381.726	1.6
382.092	1.36
382.459	1.38
382.826	1.41
383.192	1.39
383.559	1.41
383.925	1.39
384.292	1.33
384.658	1.52
385.025	1.4
385.391	1.45
385.757	1.48
386.123	1.53
386.49	1.38
386.856	1.46
387.222	1.48
387.588	1.48
387.954	1.7
388.32	1.64
388.686	1.5
389.052	1.35
389.418	1.58
389.784	1.46
390.15	1.51
390.515	1.36
390.881	1.53
391.247	1.43
391.613	1.53
391.978	1.38
392.344	1.53
392.709	1.42
393.075	1.54
393.44	1.54
393.806	1.43
394.171	1.47
394.536	1.5
394.902	1.52
395.267	1.46
395.632	1.26
395.997	1.48
396.362	1.45
396.727	1.42
397.092	1.4
397.457	1.41
397.822	1.41
398.187	1.53
398.552	1.42
398.917	1.62
399.282	1.34
399.646	1.48
400.011	1.54
400.376	1.4
400.74	1.44
401.105	1.46
401.47	1.42
401.834	1.36
402.199	1.42
402.563	1.38
402.927	1.37
403.292	1.42
403.656	1.3
404.02	1.4
404.384	1.44
404.749	1.35
405.113	1.38
405.477	1.36
405.841	1.34
406.205	1.4
406.569	1.28
406.933	1.27
407.296	1.33
407.66	1.32
408.024	1.29
408.388	1.39
408.752	1.35
409.115	1.32
409.479	1.31
409.842	1.25
410.206	1.21
410.569	1.22
410.933	1.33
411.296	1.17
411.66	1.25
412.023	1.22
412.386	1.25
412.749	1.19
413.113	1.21
413.476	1.16
413.839	1.2
414.202	1.17
414.565	1.18
414.928	1.09
415.291	1.2
415.654	1.13
416.017	1.16
416.38	1.16
416.742	1.23
417.105	1.12
417.468	1.1
417.83	1.15
418.193	1.15
418.556	1.14
418.918	1.11
419.281	1.13
419.643	1.2
420.005	1.16
420.368	1.13
420.73	1.15
421.092	1.15
421.455	1.11
421.817	1.05
422.179	1.06
422.541	1.09
422.903	1.14
423.265	1.11
423.627	1.1
423.989	1.09
424.351	1.08
424.713	1.08
425.075	1.06
425.436	1.04
425.798	1.03
426.16	1.11
426.521	1.04
426.883	1.09
427.245	1.06
427.606	1.03
427.967	1.02
428.329	1.05
428.69	1.09
429.052	1.05
429.413	1.04
429.774	1.08
430.135	1.05
430.497	1
430.858	1.01
431.219	1.01
431.58	1.03
431.941	1.01
432.302	0.98
432.663	1.01
433.024	1.05
433.384	1.04
433.745	1
434.106	0.99
434.467	1
434.827	1.02
435.188	0.99
435.548	1.03
435.909	0.97
436.269	1.01
436.63	0.97
436.99	0.93
437.351	0.94
437.711	0.94
438.071	0.98
438.431	0.95
438.792	0.96
439.152	0.97
439.512	0.93
439.872	0.94
440.232	0.94
440.592	0.92
440.952	0.93
441.312	0.92
441.671	0.91
442.031	0.91
442.391	0.92
442.751	0.94
443.11	0.91
443.47	0.87
443.83	0.87
444.189	0.85
444.549	0.86
444.908	0.87
445.267	0.85
445.627	0.86
445.986	0.85
446.345	0.83
446.705	0.82
447.064	0.85
447.423	0.81
447.782	0.81
448.141	0.82
448.5	0.79
448.859	0.81
449.218	0.81
449.577	0.82
449.936	0.81
450.295	0.82
450.653	0.79
451.012	0.8
451.371	0.78
451.729	0.78
452.088	0.79
452.447	0.78
452.805	0.77
453.163	0.76
453.522	0.78
453.88	0.73
454.239	0.75
454.597	0.74
454.955	0.72
455.313	0.72
455.671	0.72
456.029	0.71
456.388	0.69
456.746	0.69
457.104	0.68
457.461	0.67
457.819	0.69
458.177	0.66
458.535	0.66
458.893	0.64
459.25	0.64
459.608	0.64
459.966	0.63
460.323	0.63
460.681	0.61
461.038	0.61
461.396	0.6
461.753	0.6
462.111	0.6
462.468	0.58
462.825	0.56
463.182	0.57
463.54	0.56
463.897	0.56
464.254	0.56
464.611	0.55
464.968	0.54
465.325	0.53
465.682	0.52
466.039	0.52
466.395	0.51
466.752	0.51
467.109	0.51
467.466	0.51
467.822	0.5
468.179	0.48
468.535	0.49
468.892	0.48
469.248	0.46
469.605	0.46
469.961	0.46
470.318	0.47
470.674	0.45
471.03	0.44
471.386	0.45
471.743	0.42
472.099	0.42
472.455	0.42
472.811	0.42
473.167	0.42
473.523	0.4
473.879	0.4
474.235	0.4
474.59	0.4
474.946	0.39
475.302	0.39
475.657	0.38
476.013	0.37
476.369	0.37
476.724	0.36
477.08	0.37
477.435	0.36
477.791	0.35
478.146	0.36
478.501	0.35
478.857	0.35
479.212	0.34
479.567	0.32
479.922	0.32
480.277	0.32
480.632	0.31
480.987	0.32
481.342	0.31
481.697	0.3
482.052	0.29
482.407	0.3
482.762	0.3
483.116	0.29
483.471	0.28
483.826	0.28
484.18	0.27
484.535	0.26
484.89	0.27
485.244	0.27
485.598	0.26
485.953	0.26
486.307	0.25
486.661	0.27
487.016	0.25
487.37	0.25
487.724	0.25
488.078	0.25
488.432	0.25
488.786	0.24
489.14	0.24
489.494	0.23
489.848	0.23
490.202	0.23
490.556	0.23
490.91	0.22
491.263	0.22
491.617	0.23
491.971	0.22
492.324	0.22
492.678	0.22
493.031	0.22
493.385	0.22
493.738	0.21
494.091	0.21
494.445	0.22
494.798	0.21
495.151	0.2
495.504	0.21
495.857	0.21
496.21	0.21
496.564	0.2
496.916	0.21
497.269	0.2
497.622	0.2
497.975	0.19
498.328	0.2
498.681	0.19
499.033	0.18
499.386	0.19
499.739	0.18
500.091	0.18
500.444	0.18
500.796	0.19
501.149	0.18
501.501	0.18
501.854	0.18
502.206	0.19
502.558	0.18
502.91	0.18
503.263	0.18
503.615	0.18
503.967	0.17
504.319	0.18
504.671	0.17
505.023	0.18
505.375	0.17
505.726	0.17
506.078	0.18
506.43	0.17
506.782	0.18
507.133	0.18
507.485	0.18
507.837	0.19
508.188	0.18
508.54	0.18
508.891	0.18
509.243	0.17
509.594	0.17
509.945	0.17
510.296	0.17
510.648	0.17
510.999	0.16
511.35	0.17
511.701	0.17
512.052	0.18
512.403	0.18
512.754	0.17
513.105	0.17
513.456	0.17
513.807	0.17
514.157	0.17
514.508	0.17
514.859	0.17
515.209	0.17
515.56	0.17
515.91	0.16
516.261	0.18
516.611	0.17
516.962	0.17
517.312	0.17
517.662	0.18
518.013	0.16
518.363	0.17
518.713	0.17
519.063	0.17
519.413	0.17
519.763	0.17
520.113	0.17
520.463	0.17
520.813	0.18
521.163	0.18
521.512	0.17
521.862	0.17
522.212	0.18
522.562	0.17
522.911	0.17
523.261	0.17
523.61	0.17
523.96	0.17
524.309	0.17
524.658	0.17
525.008	0.17
525.357	0.17
525.706	0.17
526.056	0.17
526.405	0.18
526.754	0.17
527.103	0.17
527.452	0.17
527.801	0.17
528.15	0.18
528.499	0.17
528.847	0.18
529.196	0.18
529.545	0.18
529.893	0.19
530.242	0.18
530.591	0.18
530.939	0.19
531.288	0.19
531.636	0.19
531.985	0.18
532.333	0.18
532.681	0.18
533.029	0.18
533.378	0.18
533.726	0.18
534.074	0.19
534.422	0.17
534.77	0.18
535.118	0.18
535.466	0.18
535.814	0.18
536.162	0.19
536.509	0.19
536.857	0.18
537.205	0.19
537.552	0.18
537.9	0.18
538.248	0.18
538.595	0.19
538.943	0.18
539.29	0.18
539.637	0.18
539.985	0.18
540.332	0.18
540.679	0.19
541.026	0.18
541.373	0.19
541.721	0.18
542.068	0.18
542.415	0.18
542.762	0.18
543.108	0.17
543.455	0.17
543.802	0.18
544.149	0.18
544.496	0.18
544.842	0.17
545.189	0.17
545.535	0.17
545.882	0.17
546.228	0.17
546.575	0.18
546.921	0.17
547.267	0.17
547.614	0.17
547.96	0.17
548.306	0.18
548.652	0.17
548.998	0.18
549.344	0.18
549.69	0.17
550.036	0.17
550.382	0.17
550.728	0.18
551.074	0.18
551.42	0.18
551.765	0.18
552.111	0.18
552.457	0.18
552.802	0.18
553.148	0.17
553.493	0.18
553.839	0.19
554.184	0.19
554.529	0.18
554.875	0.19
555.22	0.19
555.565	0.19
555.91	0.18
556.255	0.18
556.6	0.19
556.945	0.18
557.29	0.18
557.635	0.18
557.98	0.18
558.325	0.19
558.67	0.19
559.014	0.19
559.359	0.18
559.704	0.18
560.048	0.17
560.393	0.18
560.737	0.18
561.082	0.19
561.426	0.18
561.77	0.18
562.115	0.18
562.459	0.18
562.803	0.19
563.147	0.19
563.491	0.19
563.835	0.19
564.179	0.18
564.523	0.18
564.867	0.18
565.211	0.18
565.555	0.19
565.899	0.2
566.242	0.18
566.586	0.19
566.93	0.19
567.273	0.19
567.617	0.19
567.96	0.18
568.304	0.19
568.647	0.19
568.99	0.18
569.334	0.2
569.677	0.19
570.02	0.19
570.363	0.19
570.706	0.19
571.049	0.19
571.392	0.19
571.735	0.19
572.078	0.19
572.421	0.2
572.764	0.19
573.106	0.19
573.449	0.19
573.792	0.19
574.134	0.18
574.477	0.19
574.819	0.18
575.162	0.19
575.504	0.19
575.847	0.18
576.189	0.19
576.531	0.18
576.873	0.18
577.215	0.18
577.558	0.19
577.9	0.18
578.242	0.18
578.584	0.18
578.926	0.19
579.267	0.19
579.609	0.18
579.951	0.19
580.293	0.18
580.634	0.19
580.976	0.19
581.318	0.18
581.659	0.18
582.001	0.19
582.342	0.18
582.683	0.19
583.025	0.18
583.366	0.18
583.707	0.18
584.049	0.18
584.39	0.19
584.731	0.18
585.072	0.18
585.413	0.19
585.754	0.18
586.095	0.18
586.435	0.19
586.776	0.19
587.117	0.19
587.458	0.19
587.798	0.18
588.139	0.18
588.48	0.18
588.82	0.18
589.161	0.18
589.501	0.18
589.841	0.18
590.182	0.18
590.522	0.17
590.862	0.18
591.202	0.18
591.542	0.18
591.882	0.18
592.222	0.18
592.562	0.19
592.902	0.18
593.242	0.17
593.582	0.18
593.922	0.18
594.261	0.18
594.601	0.17
594.941	0.18
595.28	0.18
595.62	0.18
595.959	0.18
596.299	0.18
596.638	0.18
596.977	0.18
597.317	0.18
597.656	0.18
597.995	0.18
598.334	0.19
598.673	0.19
599.012	0.19
599.351	0.19
599.69	0.18
600.029	0.19
600.368	0.19
600.707	0.2
601.046	0.18
601.384	0.19
601.723	0.19
602.061	0.18
602.4	0.19
602.738	0.18
603.077	0.19
603.415	0.18
603.754	0.19
604.092	0.19
604.43	0.19
604.768	0.19
605.107	0.18
605.445	0.18
605.783	0.18
606.121	0.18
606.459	0.18
606.796	0.18
607.134	0.17
607.472	0.18
607.81	0.18
608.148	0.18
608.485	0.18
608.823	0.18
609.16	0.18
609.498	0.18
609.835	0.18
610.173	0.18
610.51	0.18
610.847	0.17
611.185	0.17
611.522	0.18
611.859	0.18
612.196	0.18
612.533	0.18
612.87	0.18
613.207	0.18
613.544	0.18
613.881	0.19
614.217	0.18
614.554	0.18
614.891	0.18
615.228	0.18
615.564	0.19
615.901	0.18
616.237	0.19
616.574	0.19
616.91	0.19
617.246	0.19
617.583	0.18
617.919	0.19
618.255	0.18
618.591	0.19
618.927	0.19
619.263	0.19
619.599	0.18
619.935	0.19
620.271	0.18
620.607	0.19
620.943	0.18
621.279	0.19
621.614	0.18
621.95	0.18
622.286	0.18
622.621	0.18
622.957	0.18
623.292	0.18
623.627	0.17
623.963	0.18
624.298	0.18
624.633	0.18
624.968	0.18
625.304	0.18
625.639	0.17
625.974	0.17
626.309	0.17
626.644	0.18
626.979	0.18
627.313	0.17
627.648	0.17
627.983	0.18
628.318	0.16
628.652	0.17
628.987	0.17
629.321	0.18
629.656	0.17
629.99	0.16
630.325	0.17
630.659	0.17
630.993	0.16
631.327	0.17
631.662	0.16
631.996	0.16
632.33	0.16
632.664	0.16
632.998	0.16
633.332	0.16
633.666	0.16
633.999	0.16
634.333	0.15
634.667	0.15
635.001	0.15
635.334	0.16
635.668	0.16
636.001	0.15
636.335	0.16
636.668	0.16
637.001	0.15
637.335	0.16
637.668	0.16
638.001	0.15
638.334	0.16
638.668	0.16
639.001	0.15
639.334	0.16
639.667	0.15
639.999	0.15
640.332	0.15
640.665	0.15
640.998	0.16
641.331	0.15
641.663	0.15
641.996	0.15
642.328	0.16
642.661	0.16
642.993	0.16
643.326	0.16
643.658	0.16
643.99	0.15
644.323	0.15
644.655	0.16
644.987	0.16
645.319	0.16
645.651	0.16
645.983	0.16
646.315	0.15
646.647	0.16
646.979	0.16
647.31	0.17
647.642	0.16
647.974	0.16
648.305	0.16
648.637	0.16
648.968	0.15
649.3	0.15
649.631	0.16
649.963	0.16
650.294	0.16
650.625	0.15
650.957	0.16
651.288	0.15
651.619	0.16
651.95	0.15
652.281	0.16
652.612	0.16
652.943	0.16
653.274	0.17
653.604	0.16
653.935	0.15
654.266	0.15
654.596	0.15
654.927	0.15
655.258	0.16
655.588	0.16
655.918	0.16
656.249	0.13
656.579	0.15
656.909	0.15
657.24	0.14
657.57	0.16
657.9	0.16
658.23	0.15
658.56	0.15
658.89	0.15
659.22	0.15
659.55	0.14
659.88	0.15
660.209	0.14
660.539	0.16
660.869	0.15
661.198	0.14
661.528	0.15
661.857	0.15
662.187	0.14
662.516	0.15
662.846	0.14
663.175	0.15
663.504	0.14
663.833	0.14
664.163	0.15
664.492	0.14
664.821	0.14
665.15	0.14
665.479	0.14
665.807	0.14
666.136	0.15
666.465	0.15
666.794	0.15
667.122	0.15
667.451	0.14
667.78	0.16
668.108	0.15
668.437	0.14
668.765	0.14
669.093	0.16
669.422	0.14
669.75	0.14
670.078	0.14
670.406	0.15
670.734	0.15
671.062	0.15
671.39	0.14
671.718	0.15
672.046	0.14
672.374	0.14
672.702	0.14
673.029	0.14
673.357	0.15
673.685	0.15
674.012	0.14
674.34	0.14
674.667	0.14
674.995	0.14
675.322	0.14
675.649	0.13
675.977	0.14
676.304	0.14
676.631	0.14
676.958	0.14
677.285	0.13
677.612	0.12
677.939	0.13
678.266	0.14
678.593	0.13
678.92	0.13
679.246	0.12
679.573	0.13
679.9	0.13
680.226	0.13
680.553	0.12
680.879	0.13
681.206	0.13
681.532	0.13
681.858	0.13
682.184	0.13
682.511	0.13
682.837	0.13
683.163	0.14
683.489	0.14
683.815	0.13
684.141	0.13
684.467	0.13
684.793	0.13
685.118	0.13
685.444	0.13
685.77	0.12
686.095	0.13
686.421	0.13
686.746	0.13
687.072	0.12
687.397	0.12
687.723	0.13
688.048	0.13
688.373	0.12
688.698	0.13
689.023	0.12
689.349	0.12
689.674	0.13
689.999	0.12
690.323	0.11
690.648	0.12
690.973	0.11
691.298	0.11
691.623	0.11
691.947	0.12
692.272	0.12
692.596	0.12
692.921	0.12
693.245	0.12
693.57	0.13
693.894	0.12
694.218	0.13
694.543	0.13
694.867	0.12
695.191	0.12
695.515	0.13
695.839	0.12
696.163	0.12
696.487	0.12
696.811	0.12
697.135	0.13
697.458	0.13
697.782	0.12
698.106	0.12
698.429	0.12
698.753	0.12
699.076	0.12
699.4	0.12
699.723	0.12
700.046	0.11
700.37	0.12
700.693	0.12
701.016	0.12
701.339	0.12
701.662	0.13
701.985	0.12
702.308	0.11
702.631	0.12
702.954	0.12
703.277	0.12
703.599	0.12
703.922	0.12
704.245	0.11
704.567	0.11
704.89	0.11
705.212	0.11
705.535	0.11
705.857	0.11
706.179	0.1
706.502	0.11
706.824	0.11
707.146	0.1
707.468	0.11
707.79	0.11
708.112	0.11
708.434	0.11
708.756	0.12
709.078	0.11
709.399	0.1
709.721	0.11
710.043	0.11
710.364	0.11
710.686	0.11
711.007	0.11
711.329	0.12
711.65	0.11
711.972	0.1
712.293	0.12
712.614	0.11
712.935	0.11
713.256	0.11
713.577	0.11
713.898	0.11
714.219	0.11
714.54	0.1
714.861	0.1
715.182	0.11
715.503	0.11
715.823	0.1
716.144	0.1
716.464	0.1
716.785	0.1
717.105	0.1
717.426	0.1
717.746	0.1
718.066	0.1
718.387	0.1
718.707	0.09
719.027	0.1
719.347	0.09
719.667	0.1
719.987	0.09
720.307	0.08
720.627	0.09
720.947	0.1
721.266	0.09
721.586	0.08
721.906	0.1
722.225	0.08
722.545	0.09
722.864	0.09
723.184	0.09
723.503	0.1
723.823	0.1
724.142	0.09
724.461	0.09
724.78	0.09
725.099	0.09
725.418	0.09
725.737	0.08
726.056	0.1
726.375	0.09
726.694	0.09
727.013	0.1
727.331	0.09
727.65	0.1
727.969	0.09
728.287	0.09
728.606	0.09
728.924	0.09
729.242	0.09
729.561	0.09
729.879	0.09
730.197	0.09
730.515	0.09
730.834	0.08
731.152	0.09
731.47	0.09
731.788	0.09
732.105	0.08
732.423	0.09
732.741	0.09
733.059	0.09
733.376	0.09
733.694	0.09
734.012	0.09
734.329	0.09
734.647	0.09
734.964	0.1
735.281	0.1
735.599	0.1
735.916	0.09
736.233	0.1
736.55	0.09
736.867	0.09
737.184	0.1
737.501	0.09
737.818	0.09
738.135	0.1
738.452	0.09
738.768	0.1
739.085	0.09
739.402	0.08
739.718	0.09
740.035	0.09
740.351	0.08
740.668	0.09
740.984	0.09
741.3	0.08
741.617	0.09
741.933	0.09
742.249	0.1
742.565	0.09
742.881	0.1
743.197	0.09
743.513	0.08
743.829	0.08
744.144	0.08
744.46	0.08
744.776	0.09
745.091	0.09
745.407	0.08
745.722	0.09
746.038	0.08
746.353	0.07
746.669	0.09
746.984	0.08
747.299	0.07
747.614	0.09
747.93	0.08
748.245	0.08
748.56	0.08
748.875	0.07
749.189	0.07
749.504	0.08
749.819	0.08
750.134	0.07
750.448	0.07
750.763	0.07
751.078	0.06
751.392	0.07
751.707	0.08
752.021	0.08
752.335	0.08
752.65	0.08
752.964	0.08
753.278	0.08
753.592	0.08
753.906	0.07
754.22	0.07
754.534	0.08
754.848	0.08
755.162	0.08
755.476	0.08
755.789	0.08
756.103	0.08
756.417	0.08
756.73	0.08
757.044	0.09
757.357	0.08
757.671	0.08
757.984	0.08
758.297	0.08
758.61	0.08
758.924	0.07
759.237	0.07
759.55	0.08
759.863	0.07
760.176	0.07
760.488	0.08
760.801	0.07
761.114	0.08
761.427	0.07
761.739	0.08
762.052	0.07
762.365	0.07
762.677	0.07
762.99	0.06
763.302	0.07
763.614	0.07
763.926	0.07
764.239	0.07
764.551	0.06
764.863	0.07
765.175	0.08
765.487	0.07
765.799	0.07
766.111	0.06
766.423	0.07
766.734	0.07
767.046	0.07
767.358	0.07
767.669	0.07
767.981	0.07
768.292	0.07
768.604	0.07
768.915	0.06
769.226	0.07
769.537	0.06
769.849	0.07
770.16	0.06
770.471	0.08
770.782	0.06
771.093	0.06
771.404	0.05
771.715	0.06
772.025	0.07
772.336	0.07
772.647	0.06
772.957	0.07
773.268	0.06
773.578	0.06
773.889	0.07
774.199	0.07
774.51	0.06
774.82	0.06
775.13	0.07
775.44	0.07
775.75	0.07
776.06	0.07
776.37	0.07
776.68	0.07
776.99	0.07
777.3	0.06
777.61	0.08
777.92	0.07
778.229	0.06
778.539	0.07
778.848	0.07
779.158	0.07
779.467	0.07
779.777	0.06
780.086	0.07
780.395	0.06
780.704	0.06
781.013	0.06
781.323	0.06
781.632	0.07
781.941	0.06
782.249	0.06
782.558	0.06
782.867	0.06
783.176	0.05
783.485	0.06
783.793	0.06
784.102	0.06
784.41	0.06
784.719	0.06
785.027	0.06
785.335	0.06
785.644	0.06
785.952	0.05
786.26	0.06
786.568	0.06
786.876	0.06
787.184	0.06
787.492	0.06
787.8	0.07
788.108	0.07
788.416	0.06
788.723	0.06
789.031	0.06
789.338	0.05
789.646	0.05
789.953	0.07
790.261	0.07
790.568	0.06
790.876	0.06
791.183	0.06
791.49	0.06
791.797	0.06
792.104	0.06
792.411	0.06
792.718	0.06
793.025	0.07
793.332	0.05
793.639	0.06
793.945	0.07
794.252	0.07
794.559	0.07
794.865	0.07
795.172	0.07
795.478	0.06
795.784	0.07
796.091	0.06
796.397	0.08
796.703	0.07
797.009	0.07
797.315	0.07
797.622	0.06
797.927	0.07
798.233	0.07
798.539	0.07
798.845	0.07
799.151	0.07
799.456	0.08
799.762	0.07
800.068	0.07
800.373	0.08
800.679	0.07
800.984	0.07
801.289	0.06
801.595	0.06
801.9	0.07
802.205	0.07
802.51	0.07
802.815	0.07
803.12	0.07
803.425	0.07
803.73	0.06
804.035	0.07
804.339	0.07
804.644	0.06
804.949	0.06
805.253	0.06
805.558	0.07
805.862	0.07
806.167	0.07
806.471	0.06
806.775	0.06
807.08	0.07
807.384	0.06
807.688	0.06
807.992	0.06
808.296	0.06
808.6	0.07
808.904	0.06
809.207	0.06
809.511	0.07
809.815	0.07
810.119	0.07
810.422	0.07
810.726	0.07
811.029	0.08
811.332	0.07
811.636	0.08
811.939	0.07
812.242	0.07
812.546	0.07
812.849	0.08
813.152	0.07
813.455	0.07
813.758	0.07
814.06	0.07
814.363	0.07
814.666	0.07
814.969	0.07
815.271	0.07
815.574	0.07
815.877	0.07
816.179	0.07
816.481	0.06
816.784	0.07
817.086	0.06
817.388	0.05
817.69	0.05
817.993	0.05
818.295	0.06
818.597	0.06
818.899	0.05
819.2	0.05
819.502	0.04
819.804	0.05
820.106	0.06
820.407	0.04
820.709	0.05
821.01	0.05
821.312	0.06
821.613	0.05
821.915	0.05
822.216	0.05
822.517	0.04
822.818	0.05
823.119	0.05
823.42	0.05
823.721	0.04
824.022	0.05
824.323	0.04
824.624	0.05
824.925	0.05
825.226	0.05
825.526	0.05
825.827	0.05
826.127	0.05
826.428	0.05
826.728	0.04
827.028	0.04
827.329	0.04
827.629	0.04
827.929	0.04
828.229	0.04
828.529	0.05
828.829	0.04
829.129	0.04
829.429	0.05
829.729	0.04
830.029	0.03
830.328	0.05
830.628	0.04
830.927	0.03
831.227	0.04
831.526	0.04
831.826	0.04
832.125	0.03
832.424	0.03
832.724	0.04
833.023	0.03
833.322	0.04
833.621	0.04
833.92	0.03
834.219	0.04
834.518	0.03
834.816	0.02
835.115	0.04
835.414	0.03
835.712	0.03
836.011	0.03
836.309	0.03
836.608	0.01
836.906	0.01
837.205	0.01
837.503	0.01
837.801	0.01
838.099	0
838.397	-0.01
838.695	-0.01
838.993	0.01
839.291	-0
839.589	0
839.887	-0
840.184	-0.01
840.482	-0.01
840.78	0
841.077	-0.02
841.375	-0.01
841.672	-0
841.969	-0.01
842.267	-0.01
842.564	0
842.861	0
843.158	-0.01
843.455	-0.02
843.752	-0.01
844.049	-0.01
844.346	-0.01
844.643	-0.02
844.94	-0.02
845.236	-0.01
845.533	-0.01
845.83	-0.01
846.126	-0.02
846.423	-0.02
846.719	-0.02
847.015	-0.02
847.312	-0.03
847.608	-0.03
847.904	-0.03
848.2	-0.04
848.496	-0.03
848.792	-0.02
849.088	-0.02
849.384	-0.03
849.68	-0.04
849.975	-0.03
850.271	-0.04
850.567	-0.04
850.862	-0.03
851.158	-0.04
851.453	-0.04
851.748	-0.05
852.044	-0.04
852.339	-0.04
852.634	-0.06
852.929	-0.05
853.224	-0.05
853.519	-0.05
853.814	-0.05
854.109	-0.06
854.404	-0.05
854.699	-0.06
854.994	-0.05
855.288	-0.05
855.583	-0.04
855.877	-0.06
856.172	-0.05
856.466	-0.06
856.76	-0.06
857.055	-0.06
857.349	-0.07
857.643	-0.07
857.937	-0.08
858.231	-0.08
858.525	-0.09
858.819	-0.09
859.113	-0.1
859.407	-0.09
859.701	-0.1
859.994	-0.1
860.288	-0.08
860.581	-0.1
860.875	-0.1
861.168	-0.1
861.462	-0.1
861.755	-0.1
862.048	-0.11
862.341	-0.1
862.634	-0.1
862.928	-0.1
863.221	-0.1
863.513	-0.11
863.806	-0.11
864.099	-0.11
864.392	-0.12
864.685	-0.11
864.977	-0.11
865.27	-0.11
865.562	-0.1
865.855	-0.11
866.147	-0.11
866.44	-0.1
866.732	-0.12
867.024	-0.13
867.316	-0.11
867.608	-0.12
867.9	-0.11
868.192	-0.12
868.484	-0.12
868.776	-0.13
869.068	-0.12
869.359	-0.12
869.651	-0.14
869.943	-0.14
870.234	-0.13
870.526	-0.13
870.817	-0.14
871.108	-0.13
871.4	-0.12
871.691	-0.15
871.982	-0.14
872.273	-0.15
872.564	-0.15
872.855	-0.13
873.146	-0.14
873.437	-0.15
873.728	-0.16
874.019	-0.15
874.309	-0.16
874.6	-0.15
874.89	-0.16
875.181	-0.16
875.471	-0.15
875.762	-0.15
876.052	-0.15
876.342	-0.15
876.632	-0.16
876.922	-0.17
877.213	-0.16
877.503	-0.17
877.792	-0.16
878.082	-0.16
878.372	-0.16
878.662	-0.18
878.952	-0.16
879.241	-0.17
879.531	-0.17
879.82	-0.17
880.11	-0.16
880.399	-0.16
880.688	-0.14
880.978	-0.14
881.267	-0.14
