Data from 12-12-AQDScycling_Absorbance__239__00239.txt Node

Date: Tue Dec 12 11:56:38 EST 2023
User: kyuminlee
Spectrometer: FLMS00943
Trigger mode: 0
Integration Time (sec): 1.000000E-1
Scans to average: 1
Electric dark correction enabled: true
Nonlinearity correction enabled: false
Boxcar width: 0
XAxis mode: Wavelengths
Number of Pixels in Spectrum: 2048
>>>>>Begin Spectral Data<<<<<
179.651	0.07
180.037	0.07
180.424	0.07
180.81	-0.09
181.197	0.54
181.583	-0
181.97	-0.36
182.356	-0
182.743	-0.38
183.129	0.31
183.515	0.07
183.901	-1.78
184.288	0.18
184.674	0.44
185.06	-0.93
185.446	-0.62
185.832	-0
186.218	-0
186.604	-0
186.99	-0.46
187.376	0.34
187.762	0.09
188.148	0.15
188.534	-0.14
188.92	0.05
189.305	0.06
189.691	0.1
190.077	0.17
190.463	0.11
190.848	0.03
191.234	0.02
191.619	0.12
192.005	0.09
192.391	0.14
192.776	0.2
193.161	0.1
193.547	0.12
193.932	-0.03
194.318	-0.03
194.703	0.15
195.088	0.25
195.473	0.12
195.859	0.2
196.244	0.24
196.629	0.13
197.014	0.02
197.399	0.17
197.784	0.18
198.169	0.26
198.554	0.15
198.939	0.07
199.324	0.14
199.709	0.07
200.094	0.04
200.478	0.16
200.863	0.11
201.248	0.13
201.633	0.16
202.017	0.15
202.402	0.16
202.787	0.13
203.171	0.01
203.556	0.19
203.94	0.09
204.325	0.17
204.709	0.2
205.093	0.07
205.478	0.17
205.862	0.14
206.246	0.13
206.631	0.09
207.015	0.09
207.399	0.18
207.783	0.13
208.167	0.08
208.551	0.02
208.935	0.17
209.319	0.1
209.703	0.28
210.087	0.2
210.471	0.1
210.855	0.05
211.239	0.1
211.623	0.32
212.007	0.2
212.39	0.21
212.774	0.09
213.158	0.14
213.541	0.2
213.925	0.22
214.309	0.25
214.692	0.35
215.076	0.2
215.459	0.2
215.842	0.04
216.226	0.25
216.609	0.29
216.993	0.24
217.376	0.45
217.759	0.17
218.142	0.34
218.525	0.42
218.909	0.31
219.292	0.42
219.675	0.34
220.058	0.56
220.441	0.47
220.824	0.32
221.207	0.57
221.59	0.42
221.973	0.53
222.355	0.63
222.738	0.62
223.121	0.56
223.504	0.59
223.886	0.65
224.269	0.59
224.652	0.57
225.034	0.76
225.417	0.68
225.799	0.77
226.182	0.83
226.564	0.72
226.947	0.79
227.329	0.76
227.711	1.05
228.094	1.08
228.476	0.93
228.858	0.79
229.24	0.8
229.623	0.85
230.005	0.9
230.387	0.75
230.769	0.91
231.151	0.9
231.533	0.92
231.915	0.88
232.297	0.96
232.679	0.99
233.061	1.05
233.442	0.98
233.824	1.03
234.206	1.1
234.588	1.05
234.969	1.17
235.351	0.91
235.733	1.02
236.114	1.13
236.496	1.08
236.877	1.13
237.259	1.16
237.64	1.05
238.022	0.94
238.403	1.09
238.784	0.95
239.165	0.97
239.547	1
239.928	1.14
240.309	1.07
240.69	1.08
241.071	1.17
241.452	1.03
241.834	1.02
242.215	1.08
242.595	0.97
242.976	1.08
243.357	1.17
243.738	1.03
244.119	1.18
244.5	1.13
244.881	1.21
245.261	1.19
245.642	1.12
246.023	1.14
246.403	1.12
246.784	1.15
247.164	1.29
247.545	1.15
247.925	1.12
248.306	1.29
248.686	1.39
249.067	1.22
249.447	1.36
249.827	1.46
250.207	1.34
250.588	1.2
250.968	1.36
251.348	1.3
251.728	1.5
252.108	1.32
252.488	1.26
252.868	1.38
253.248	1.25
253.628	1.46
254.008	1.44
254.388	1.25
254.768	1.28
255.147	1.44
255.527	1.35
255.907	1.4
256.287	1.36
256.666	1.35
257.046	1.49
257.425	1.75
257.805	1.37
258.184	1.32
258.564	1.41
258.943	1.27
259.323	1.47
259.702	1.46
260.081	1.4
260.461	1.44
260.84	1.33
261.219	1.56
261.598	1.49
261.977	1.42
262.356	1.51
262.736	1.56
263.115	1.71
263.494	1.34
263.873	1.39
264.251	1.43
264.63	1.49
265.009	1.39
265.388	1.37
265.767	1.38
266.145	1.32
266.524	1.44
266.903	1.31
267.281	1.31
267.66	1.39
268.039	1.43
268.417	1.32
268.796	1.37
269.174	1.34
269.552	1.35
269.931	1.57
270.309	1.3
270.687	1.48
271.066	1.6
271.444	1.32
271.822	1.43
272.2	1.44
272.578	1.31
272.956	1.33
273.334	1.27
273.712	1.47
274.09	1.42
274.468	1.41
274.846	1.24
275.224	1.36
275.602	1.35
275.98	1.7
276.357	1.45
276.735	1.37
277.113	1.42
277.49	1.4
277.868	1.23
278.246	1.25
278.623	1.3
279.001	1.28
279.378	1.43
279.756	1.49
280.133	1.45
280.51	1.29
280.888	1.31
281.265	1.39
281.642	1.44
282.019	1.72
282.396	1.51
282.773	1.47
283.151	1.53
283.528	1.5
283.905	1.38
284.282	1.52
284.659	1.68
285.035	1.34
285.412	1.35
285.789	1.53
286.166	1.48
286.543	1.44
286.919	1.52
287.296	1.37
287.673	1.59
288.049	1.42
288.426	1.65
288.802	1.39
289.179	1.48
289.555	1.62
289.932	1.51
290.308	1.26
290.684	1.38
291.061	1.36
291.437	1.47
291.813	1.41
292.189	1.32
292.565	1.4
292.942	1.35
293.318	1.35
293.694	1.37
294.07	1.3
294.446	1.4
294.822	1.56
295.197	1.52
295.573	1.5
295.949	1.41
296.325	1.53
296.701	1.51
297.076	1.51
297.452	1.59
297.828	1.44
298.203	1.52
298.579	1.4
298.954	1.49
299.33	1.39
299.705	1.47
300.081	1.43
300.456	1.43
300.831	1.36
301.206	1.45
301.582	1.52
301.957	1.41
302.332	1.55
302.707	1.47
303.082	1.38
303.457	1.53
303.832	1.51
304.207	1.46
304.582	1.42
304.957	1.45
305.332	1.53
305.707	1.53
306.082	1.53
306.456	1.45
306.831	1.44
307.206	1.54
307.58	1.67
307.955	1.49
308.33	1.42
308.704	1.53
309.079	1.45
309.453	1.67
309.828	1.59
310.202	1.58
310.576	1.5
310.951	1.59
311.325	1.52
311.699	1.48
312.073	1.33
312.447	1.5
312.821	1.46
313.196	1.51
313.57	1.37
313.944	1.38
314.317	1.43
314.691	1.51
315.065	1.59
315.439	1.58
315.813	1.46
316.187	1.44
316.56	1.6
316.934	1.55
317.308	1.46
317.681	1.51
318.055	1.46
318.428	1.56
318.802	1.52
319.175	1.45
319.549	1.46
319.922	1.35
320.295	1.45
320.669	1.49
321.042	1.52
321.415	1.67
321.788	1.55
322.162	1.5
322.535	1.57
322.908	1.6
323.281	1.63
323.654	1.68
324.027	1.43
324.4	1.61
324.773	1.52
325.145	1.45
325.518	1.44
325.891	1.43
326.264	1.52
326.636	1.44
327.009	1.54
327.382	1.38
327.754	1.58
328.127	1.54
328.499	1.56
328.872	1.5
329.244	1.46
329.616	1.32
329.989	1.46
330.361	1.45
330.733	1.48
331.106	1.41
331.478	1.46
331.85	1.41
332.222	1.46
332.594	1.51
332.966	1.39
333.338	1.56
333.71	1.53
334.082	1.64
334.454	1.42
334.826	1.51
335.197	1.65
335.569	1.52
335.941	1.38
336.312	1.35
336.684	1.42
337.056	1.42
337.427	1.48
337.799	1.51
338.17	1.49
338.542	1.47
338.913	1.49
339.284	1.54
339.656	1.47
340.027	1.54
340.398	1.61
340.769	1.48
341.141	1.64
341.512	1.54
341.883	1.63
342.254	1.47
342.625	1.58
342.996	1.39
343.367	1.51
343.738	1.42
344.108	1.36
344.479	1.77
344.85	1.39
345.221	1.54
345.591	1.35
345.962	1.36
346.333	1.47
346.703	1.37
347.074	1.43
347.444	1.52
347.815	1.35
348.185	1.46
348.556	1.38
348.926	1.28
349.296	1.4
349.666	1.29
350.037	1.24
350.407	1.24
350.777	1.35
351.147	1.34
351.517	1.33
351.887	1.3
352.257	1.47
352.627	1.3
352.997	1.29
353.367	1.3
353.737	1.34
354.106	1.32
354.476	1.25
354.846	1.28
355.216	1.3
355.585	1.38
355.955	1.25
356.324	1.24
356.694	1.27
357.063	1.25
357.433	1.21
357.802	1.17
358.171	1.24
358.541	1.14
358.91	1.15
359.279	1.18
359.648	1.11
360.017	1.08
360.387	1.05
360.756	1.01
361.125	1.05
361.494	0.97
361.863	0.96
362.231	0.95
362.6	0.95
362.969	0.94
363.338	0.9
363.707	0.88
364.075	0.88
364.444	0.79
364.813	0.83
365.181	0.79
365.55	0.78
365.918	0.79
366.287	0.77
366.655	0.76
367.024	0.74
367.392	0.72
367.76	0.67
368.128	0.69
368.497	0.65
368.865	0.63
369.233	0.64
369.601	0.6
369.969	0.59
370.337	0.61
370.705	0.59
371.073	0.58
371.441	0.56
371.809	0.54
372.177	0.55
372.544	0.53
372.912	0.52
373.28	0.49
373.647	0.52
374.015	0.49
374.383	0.48
374.75	0.49
375.118	0.45
375.485	0.47
375.853	0.46
376.22	0.43
376.587	0.43
376.955	0.44
377.322	0.41
377.689	0.41
378.056	0.41
378.423	0.4
378.79	0.42
379.157	0.39
379.524	0.37
379.891	0.38
380.258	0.37
380.625	0.37
380.992	0.37
381.359	0.36
381.726	0.37
382.092	0.33
382.459	0.35
382.826	0.36
383.192	0.34
383.559	0.35
383.925	0.34
384.292	0.33
384.658	0.33
385.025	0.34
385.391	0.35
385.757	0.35
386.123	0.33
386.49	0.35
386.856	0.34
387.222	0.33
387.588	0.33
387.954	0.33
388.32	0.33
388.686	0.32
389.052	0.29
389.418	0.32
389.784	0.32
390.15	0.32
390.515	0.31
390.881	0.32
391.247	0.31
391.613	0.31
391.978	0.31
392.344	0.31
392.709	0.32
393.075	0.3
393.44	0.3
393.806	0.28
394.171	0.3
394.536	0.3
394.902	0.3
395.267	0.29
395.632	0.28
395.997	0.28
396.362	0.29
396.727	0.3
397.092	0.29
397.457	0.28
397.822	0.28
398.187	0.28
398.552	0.27
398.917	0.25
399.282	0.28
399.646	0.27
400.011	0.28
400.376	0.27
400.74	0.28
401.105	0.27
401.47	0.27
401.834	0.24
402.199	0.27
402.563	0.24
402.927	0.26
403.292	0.26
403.656	0.26
404.02	0.26
404.384	0.26
404.749	0.26
405.113	0.25
405.477	0.24
405.841	0.24
406.205	0.24
406.569	0.24
406.933	0.24
407.296	0.23
407.66	0.24
408.024	0.24
408.388	0.24
408.752	0.23
409.115	0.23
409.479	0.23
409.842	0.22
410.206	0.21
410.569	0.23
410.933	0.22
411.296	0.23
411.66	0.23
412.023	0.2
412.386	0.21
412.749	0.22
413.113	0.22
413.476	0.19
413.839	0.21
414.202	0.19
414.565	0.18
414.928	0.21
415.291	0.19
415.654	0.2
416.017	0.19
416.38	0.18
416.742	0.19
417.105	0.17
417.468	0.19
417.83	0.19
418.193	0.18
418.556	0.18
418.918	0.2
419.281	0.19
419.643	0.18
420.005	0.18
420.368	0.17
420.73	0.17
421.092	0.17
421.455	0.16
421.817	0.16
422.179	0.17
422.541	0.17
422.903	0.18
423.265	0.18
423.627	0.16
423.989	0.16
424.351	0.16
424.713	0.16
425.075	0.15
425.436	0.15
425.798	0.15
426.16	0.16
426.521	0.16
426.883	0.16
427.245	0.16
427.606	0.15
427.967	0.15
428.329	0.15
428.69	0.16
429.052	0.16
429.413	0.15
429.774	0.15
430.135	0.14
430.497	0.15
430.858	0.13
431.219	0.14
431.58	0.14
431.941	0.15
432.302	0.14
432.663	0.15
433.024	0.15
433.384	0.14
433.745	0.13
434.106	0.14
434.467	0.14
434.827	0.16
435.188	0.15
435.548	0.15
435.909	0.15
436.269	0.16
436.63	0.13
436.99	0.14
437.351	0.15
437.711	0.14
438.071	0.14
438.431	0.14
438.792	0.14
439.152	0.13
439.512	0.13
439.872	0.14
440.232	0.14
440.592	0.15
440.952	0.14
441.312	0.14
441.671	0.13
442.031	0.13
442.391	0.13
442.751	0.14
443.11	0.13
443.47	0.12
443.83	0.13
444.189	0.13
444.549	0.12
444.908	0.13
445.267	0.12
445.627	0.12
445.986	0.12
446.345	0.12
446.705	0.11
447.064	0.13
447.423	0.12
447.782	0.12
448.141	0.12
448.5	0.11
448.859	0.12
449.218	0.12
449.577	0.13
449.936	0.14
450.295	0.12
450.653	0.13
451.012	0.13
451.371	0.13
451.729	0.12
452.088	0.12
452.447	0.13
452.805	0.12
453.163	0.12
453.522	0.13
453.88	0.11
454.239	0.12
454.597	0.12
454.955	0.12
455.313	0.11
455.671	0.12
456.029	0.11
456.388	0.12
456.746	0.12
457.104	0.1
457.461	0.1
457.819	0.11
458.177	0.1
458.535	0.09
458.893	0.09
459.25	0.1
459.608	0.1
459.966	0.09
460.323	0.09
460.681	0.08
461.038	0.09
461.396	0.09
461.753	0.09
462.111	0.08
462.468	0.08
462.825	0.08
463.182	0.08
463.54	0.08
463.897	0.09
464.254	0.08
464.611	0.09
464.968	0.08
465.325	0.09
465.682	0.08
466.039	0.09
466.395	0.08
466.752	0.08
467.109	0.08
467.466	0.09
467.822	0.09
468.179	0.08
468.535	0.07
468.892	0.08
469.248	0.08
469.605	0.07
469.961	0.07
470.318	0.1
470.674	0.09
471.03	0.08
471.386	0.08
471.743	0.08
472.099	0.08
472.455	0.08
472.811	0.08
473.167	0.08
473.523	0.07
473.879	0.07
474.235	0.06
474.59	0.07
474.946	0.07
475.302	0.07
475.657	0.07
476.013	0.07
476.369	0.06
476.724	0.07
477.08	0.07
477.435	0.07
477.791	0.07
478.146	0.08
478.501	0.07
478.857	0.07
479.212	0.07
479.567	0.06
479.922	0.06
480.277	0.06
480.632	0.06
480.987	0.07
481.342	0.06
481.697	0.06
482.052	0.06
482.407	0.06
482.762	0.06
483.116	0.06
483.471	0.05
483.826	0.05
484.18	0.06
484.535	0.06
484.89	0.06
485.244	0.06
485.598	0.06
485.953	0.06
486.307	0.05
486.661	0.06
487.016	0.05
487.37	0.06
487.724	0.06
488.078	0.06
488.432	0.06
488.786	0.06
489.14	0.06
489.494	0.05
489.848	0.05
490.202	0.05
490.556	0.05
490.91	0.05
491.263	0.06
491.617	0.06
491.971	0.06
492.324	0.05
492.678	0.06
493.031	0.06
493.385	0.05
493.738	0.06
494.091	0.06
494.445	0.05
494.798	0.05
495.151	0.05
495.504	0.05
495.857	0.05
496.21	0.05
496.564	0.05
496.916	0.05
497.269	0.05
497.622	0.05
497.975	0.06
498.328	0.05
498.681	0.06
499.033	0.05
499.386	0.05
499.739	0.05
500.091	0.05
500.444	0.05
500.796	0.05
501.149	0.05
501.501	0.05
501.854	0.05
502.206	0.05
502.558	0.05
502.91	0.05
503.263	0.05
503.615	0.04
503.967	0.04
504.319	0.05
504.671	0.05
505.023	0.04
505.375	0.04
505.726	0.05
506.078	0.04
506.43	0.04
506.782	0.04
507.133	0.04
507.485	0.04
507.837	0.05
508.188	0.04
508.54	0.05
508.891	0.05
509.243	0.05
509.594	0.05
509.945	0.04
510.296	0.04
510.648	0.05
510.999	0.04
511.35	0.04
511.701	0.04
512.052	0.05
512.403	0.05
512.754	0.04
513.105	0.04
513.456	0.03
513.807	0.04
514.157	0.04
514.508	0.05
514.859	0.03
515.209	0.03
515.56	0.04
515.91	0.03
516.261	0.04
516.611	0.04
516.962	0.04
517.312	0.04
517.662	0.04
518.013	0.03
518.363	0.04
518.713	0.03
519.063	0.04
519.413	0.04
519.763	0.03
520.113	0.04
520.463	0.04
520.813	0.04
521.163	0.04
521.512	0.04
521.862	0.04
522.212	0.04
522.562	0.04
522.911	0.04
523.261	0.03
523.61	0.04
523.96	0.04
524.309	0.05
524.658	0.04
525.008	0.04
525.357	0.04
525.706	0.05
526.056	0.04
526.405	0.04
526.754	0.03
527.103	0.03
527.452	0.04
527.801	0.04
528.15	0.04
528.499	0.04
528.847	0.04
529.196	0.05
529.545	0.04
529.893	0.05
530.242	0.04
530.591	0.05
530.939	0.05
531.288	0.05
531.636	0.05
531.985	0.04
532.333	0.05
532.681	0.04
533.029	0.04
533.378	0.05
533.726	0.04
534.074	0.05
534.422	0.04
534.77	0.04
535.118	0.05
535.466	0.03
535.814	0.04
536.162	0.04
536.509	0.04
536.857	0.04
537.205	0.05
537.552	0.04
537.9	0.04
538.248	0.04
538.595	0.05
538.943	0.04
539.29	0.04
539.637	0.04
539.985	0.04
540.332	0.04
540.679	0.04
541.026	0.03
541.373	0.05
541.721	0.03
542.068	0.03
542.415	0.04
542.762	0.03
543.108	0.03
543.455	0.02
543.802	0.03
544.149	0.02
544.496	0.03
544.842	0.03
545.189	0.02
545.535	0.03
545.882	0.03
546.228	0.03
546.575	0.02
546.921	0.02
547.267	0.03
547.614	0.03
547.96	0.02
548.306	0.02
548.652	0.02
548.998	0.03
549.344	0.03
549.69	0.03
550.036	0.03
550.382	0.02
550.728	0.03
551.074	0.03
551.42	0.03
551.765	0.04
552.111	0.04
552.457	0.04
552.802	0.03
553.148	0.04
553.493	0.03
553.839	0.04
554.184	0.04
554.529	0.03
554.875	0.04
555.22	0.04
555.565	0.03
555.91	0.04
556.255	0.05
556.6	0.04
556.945	0.03
557.29	0.03
557.635	0.03
557.98	0.03
558.325	0.03
558.67	0.03
559.014	0.03
559.359	0.03
559.704	0.03
560.048	0.02
560.393	0.03
560.737	0.02
561.082	0.04
561.426	0.02
561.77	0.02
562.115	0.02
562.459	0.03
562.803	0.02
563.147	0.03
563.491	0.03
563.835	0.02
564.179	0.03
564.523	0.02
564.867	0.02
565.211	0.02
565.555	0.02
565.899	0.03
566.242	0.03
566.586	0.02
566.93	0.03
567.273	0.03
567.617	0.03
567.96	0.03
568.304	0.03
568.647	0.02
568.99	0.03
569.334	0.04
569.677	0.03
570.02	0.03
570.363	0.03
570.706	0.03
571.049	0.03
571.392	0.03
571.735	0.02
572.078	0.03
572.421	0.04
572.764	0.02
573.106	0.03
573.449	0.03
573.792	0.02
574.134	0.03
574.477	0.04
574.819	0.03
575.162	0.03
575.504	0.03
575.847	0.03
576.189	0.03
576.531	0.03
576.873	0.03
577.215	0.03
577.558	0.03
577.9	0.02
578.242	0.03
578.584	0.03
578.926	0.03
579.267	0.03
579.609	0.03
579.951	0.02
580.293	0.03
580.634	0.03
580.976	0.03
581.318	0.03
581.659	0.02
582.001	0.03
582.342	0.02
582.683	0.02
583.025	0.02
583.366	0.03
583.707	0.02
584.049	0.02
584.39	0.03
584.731	0.02
585.072	0.02
585.413	0.03
585.754	0.03
586.095	0.03
586.435	0.03
586.776	0.03
587.117	0.03
587.458	0.02
587.798	0.03
588.139	0.03
588.48	0.02
588.82	0.03
589.161	0.03
589.501	0.02
589.841	0.02
590.182	0.02
590.522	0.03
590.862	0.02
591.202	0.02
591.542	0.02
591.882	0.02
592.222	0.02
592.562	0.02
592.902	0.02
593.242	0.02
593.582	0.03
593.922	0.02
594.261	0.02
594.601	0.02
594.941	0.03
595.28	0.03
595.62	0.03
595.959	0.02
596.299	0.03
596.638	0.02
596.977	0.02
597.317	0.03
597.656	0.03
597.995	0.02
598.334	0.04
598.673	0.02
599.012	0.02
599.351	0.02
599.69	0.02
600.029	0.03
600.368	0.03
600.707	0.03
601.046	0.03
601.384	0.03
601.723	0.03
602.061	0.02
602.4	0.03
602.738	0.03
603.077	0.03
603.415	0.02
603.754	0.02
604.092	0.03
604.43	0.03
604.768	0.03
605.107	0.03
605.445	0.02
605.783	0.02
606.121	0.02
606.459	0.03
606.796	0.03
607.134	0.02
607.472	0.02
607.81	0.02
608.148	0.02
608.485	0.03
608.823	0.03
609.16	0.02
609.498	0.03
609.835	0.03
610.173	0.02
610.51	0.03
610.847	0.03
611.185	0.03
611.522	0.03
611.859	0.03
612.196	0.03
612.533	0.03
612.87	0.04
613.207	0.04
613.544	0.03
613.881	0.04
614.217	0.04
614.554	0.03
614.891	0.04
615.228	0.04
615.564	0.04
615.901	0.04
616.237	0.04
616.574	0.04
616.91	0.04
617.246	0.04
617.583	0.04
617.919	0.04
618.255	0.04
618.591	0.04
618.927	0.04
619.263	0.05
619.599	0.04
619.935	0.04
620.271	0.04
620.607	0.04
620.943	0.04
621.279	0.04
621.614	0.04
621.95	0.04
622.286	0.04
622.621	0.03
622.957	0.03
623.292	0.02
623.627	0.03
623.963	0.03
624.298	0.03
624.633	0.03
624.968	0.03
625.304	0.03
625.639	0.03
625.974	0.03
626.309	0.02
626.644	0.03
626.979	0.03
627.313	0.03
627.648	0.03
627.983	0.02
628.318	0.02
628.652	0.03
628.987	0.03
629.321	0.03
629.656	0.02
629.99	0.03
630.325	0.03
630.659	0.03
630.993	0.03
631.327	0.03
631.662	0.02
631.996	0.03
632.33	0.03
632.664	0.03
632.998	0.03
633.332	0.03
633.666	0.03
633.999	0.03
634.333	0.02
634.667	0.03
635.001	0.03
635.334	0.03
635.668	0.02
636.001	0.03
636.335	0.02
636.668	0.02
637.001	0.02
637.335	0.02
637.668	0.02
638.001	0.02
638.334	0.02
638.668	0.02
639.001	0.02
639.334	0.02
639.667	0.02
639.999	0.02
640.332	0.02
640.665	0.01
640.998	0.02
641.331	0.02
641.663	0.01
641.996	0.02
642.328	0.02
642.661	0.02
642.993	0.02
643.326	0.03
643.658	0.02
643.99	0.02
644.323	0.02
644.655	0.02
644.987	0.02
645.319	0.03
645.651	0.03
645.983	0.03
646.315	0.02
646.647	0.03
646.979	0.04
647.31	0.03
647.642	0.03
647.974	0.03
648.305	0.04
648.637	0.03
648.968	0.03
649.3	0.03
649.631	0.03
649.963	0.03
650.294	0.04
650.625	0.03
650.957	0.04
651.288	0.03
651.619	0.03
651.95	0.03
652.281	0.03
652.612	0.03
652.943	0.04
653.274	0.04
653.604	0.04
653.935	0.03
654.266	0.03
654.596	0.03
654.927	0.03
655.258	0.03
655.588	0.05
655.918	0.04
656.249	0.02
656.579	0.03
656.909	0.03
657.24	0.03
657.57	0.04
657.9	0.04
658.23	0.04
658.56	0.04
658.89	0.04
659.22	0.03
659.55	0.04
659.88	0.05
660.209	0.04
660.539	0.05
660.869	0.04
661.198	0.05
661.528	0.04
661.857	0.04
662.187	0.05
662.516	0.04
662.846	0.04
663.175	0.04
663.504	0.04
663.833	0.04
664.163	0.04
664.492	0.03
664.821	0.03
665.15	0.03
665.479	0.04
665.807	0.04
666.136	0.03
666.465	0.03
666.794	0.03
667.122	0.03
667.451	0.03
667.78	0.03
668.108	0.03
668.437	0.03
668.765	0.03
669.093	0.04
669.422	0.03
669.75	0.04
670.078	0.03
670.406	0.04
670.734	0.04
671.062	0.04
671.39	0.04
671.718	0.03
672.046	0.04
672.374	0.04
672.702	0.04
673.029	0.03
673.357	0.04
673.685	0.05
674.012	0.04
674.34	0.03
674.667	0.04
674.995	0.04
675.322	0.04
675.649	0.03
675.977	0.04
676.304	0.04
676.631	0.03
676.958	0.04
677.285	0.03
677.612	0.03
677.939	0.03
678.266	0.04
678.593	0.03
678.92	0.03
679.246	0.03
679.573	0.03
679.9	0.03
680.226	0.03
680.553	0.03
680.879	0.03
681.206	0.03
681.532	0.03
681.858	0.03
682.184	0.03
682.511	0.03
682.837	0.03
683.163	0.03
683.489	0.03
683.815	0.02
684.141	0.03
684.467	0.03
684.793	0.02
685.118	0.04
685.444	0.03
685.77	0.03
686.095	0.03
686.421	0.03
686.746	0.04
687.072	0.04
687.397	0.03
687.723	0.04
688.048	0.04
688.373	0.04
688.698	0.04
689.023	0.04
689.349	0.04
689.674	0.04
689.999	0.03
690.323	0.03
690.648	0.03
690.973	0.03
691.298	0.03
691.623	0.03
691.947	0.03
692.272	0.02
692.596	0.03
692.921	0.03
693.245	0.03
693.57	0.03
693.894	0.04
694.218	0.03
694.543	0.03
694.867	0.03
695.191	0.02
695.515	0.03
695.839	0.02
696.163	0.03
696.487	0.03
696.811	0.03
697.135	0.04
697.458	0.03
697.782	0.03
698.106	0.03
698.429	0.03
698.753	0.03
699.076	0.04
699.4	0.03
699.723	0.03
700.046	0.02
700.37	0.03
700.693	0.03
701.016	0.03
701.339	0.03
701.662	0.04
701.985	0.03
702.308	0.03
702.631	0.04
702.954	0.03
703.277	0.03
703.599	0.04
703.922	0.03
704.245	0.03
704.567	0.03
704.89	0.03
705.212	0.03
705.535	0.02
705.857	0.02
706.179	0.03
706.502	0.03
706.824	0.02
707.146	0.03
707.468	0.03
707.79	0.03
708.112	0.03
708.434	0.04
708.756	0.03
709.078	0.03
709.399	0.03
709.721	0.03
710.043	0.03
710.364	0.04
710.686	0.03
711.007	0.03
711.329	0.03
711.65	0.03
711.972	0.04
712.293	0.03
712.614	0.03
712.935	0.04
713.256	0.03
713.577	0.04
713.898	0.04
714.219	0.02
714.54	0.03
714.861	0.02
715.182	0.02
715.503	0.02
715.823	0.03
716.144	0.03
716.464	0.02
716.785	0.02
717.105	0.02
717.426	0.03
717.746	0.03
718.066	0.02
718.387	0.02
718.707	0.02
719.027	0.02
719.347	0.01
719.667	0.03
719.987	0.01
720.307	0.02
720.627	0.01
720.947	0.02
721.266	0.01
721.586	0.01
721.906	0.01
722.225	0
722.545	0.01
722.864	0.01
723.184	0.01
723.503	0.01
723.823	0.02
724.142	0.01
724.461	0.01
724.78	0.01
725.099	0.02
725.418	0.02
725.737	0.01
726.056	0.02
726.375	0.02
726.694	0.02
727.013	0.02
727.331	0.01
727.65	0.02
727.969	0.02
728.287	0.02
728.606	0.02
728.924	0.02
729.242	0.02
729.561	0.02
729.879	0.03
730.197	0.02
730.515	0.02
730.834	0.01
731.152	0.02
731.47	0.02
731.788	0.02
732.105	0.02
732.423	0.02
732.741	0.01
733.059	0.02
733.376	0.02
733.694	0.01
734.012	0.01
734.329	0.02
734.647	0.02
734.964	0.02
735.281	0.02
735.599	0.03
735.916	0.03
736.233	0.01
736.55	0.02
736.867	0.02
737.184	0.03
737.501	0.02
737.818	0.02
738.135	0.03
738.452	0.02
738.768	0.02
739.085	0.03
739.402	0.02
739.718	0.03
740.035	0.03
740.351	0.03
740.668	0.03
740.984	0.03
741.3	0.03
741.617	0.03
741.933	0.02
742.249	0.03
742.565	0.03
742.881	0.04
743.197	0.03
743.513	0.03
743.829	0.02
744.144	0.02
744.46	0.03
744.776	0.03
745.091	0.03
745.407	0.03
745.722	0.03
746.038	0.03
746.353	0.01
746.669	0.03
746.984	0.02
747.299	0.03
747.614	0.03
747.93	0.04
748.245	0.03
748.56	0.03
748.875	0.03
749.189	0.03
749.504	0.04
749.819	0.03
750.134	0.03
750.448	0.03
750.763	0.03
751.078	0.02
751.392	0.03
751.707	0.04
752.021	0.04
752.335	0.03
752.65	0.04
752.964	0.03
753.278	0.03
753.592	0.03
753.906	0.03
754.22	0.03
754.534	0.03
754.848	0.03
755.162	0.03
755.476	0.03
755.789	0.03
756.103	0.03
756.417	0.03
756.73	0.04
757.044	0.04
757.357	0.03
757.671	0.03
757.984	0.04
758.297	0.04
758.61	0.04
758.924	0.04
759.237	0.04
759.55	0.03
759.863	0.03
760.176	0.04
760.488	0.03
760.801	0.03
761.114	0.04
761.427	0.03
761.739	0.04
762.052	0.03
762.365	0.03
762.677	0.04
762.99	0.02
763.302	0.03
763.614	0.03
763.926	0.03
764.239	0.03
764.551	0.03
764.863	0.03
765.175	0.03
765.487	0.03
765.799	0.03
766.111	0.03
766.423	0.03
766.734	0.02
767.046	0.03
767.358	0.02
767.669	0.03
767.981	0.02
768.292	0.02
768.604	0.03
768.915	0.03
769.226	0.02
769.537	0.02
769.849	0.02
770.16	0.02
770.471	0.02
770.782	0.02
771.093	0.03
771.404	0.02
771.715	0.02
772.025	0.03
772.336	0.02
772.647	0.02
772.957	0.02
773.268	0.02
773.578	0.02
773.889	0.03
774.199	0.03
774.51	0.02
774.82	0.02
775.13	0.02
775.44	0.02
775.75	0.03
776.06	0.03
776.37	0.03
776.68	0.03
776.99	0.03
777.3	0.02
777.61	0.03
777.92	0.02
778.229	0.02
778.539	0.02
778.848	0.02
779.158	0.03
779.467	0.03
779.777	0.03
780.086	0.04
780.395	0.02
780.704	0.03
781.013	0.02
781.323	0.03
781.632	0.03
781.941	0.03
782.249	0.03
782.558	0.02
782.867	0.03
783.176	0.02
783.485	0.03
783.793	0.03
784.102	0.02
784.41	0.02
784.719	0.02
785.027	0.02
785.335	0.02
785.644	0.02
785.952	0.02
786.26	0.02
786.568	0.02
786.876	0.02
787.184	0.02
787.492	0.02
787.8	0.02
788.108	0.02
788.416	0.02
788.723	0.02
789.031	0.02
789.338	0.02
789.646	0.01
789.953	0.03
790.261	0.03
790.568	0.03
790.876	0.02
791.183	0.03
791.49	0.02
791.797	0.02
792.104	0.02
792.411	0.03
792.718	0.01
793.025	0.03
793.332	0.03
793.639	0.02
793.945	0.03
794.252	0.03
794.559	0.03
794.865	0.03
795.172	0.03
795.478	0.03
795.784	0.04
796.091	0.04
796.397	0.04
796.703	0.05
797.009	0.04
797.315	0.04
797.622	0.04
797.927	0.04
798.233	0.03
798.539	0.04
798.845	0.04
799.151	0.03
799.456	0.04
799.762	0.03
800.068	0.03
800.373	0.03
800.679	0.03
800.984	0.03
801.289	0.02
801.595	0.03
801.9	0.03
802.205	0.02
802.51	0.03
802.815	0.03
803.12	0.02
803.425	0.03
803.73	0.03
804.035	0.03
804.339	0.03
804.644	0.03
804.949	0.02
805.253	0.03
805.558	0.03
805.862	0.02
806.167	0.03
806.471	0.03
806.775	0.03
807.08	0.03
807.384	0.03
807.688	0.03
807.992	0.04
808.296	0.03
808.6	0.04
808.904	0.04
809.207	0.03
809.511	0.04
809.815	0.03
810.119	0.04
810.422	0.04
810.726	0.05
811.029	0.04
811.332	0.04
811.636	0.04
811.939	0.04
812.242	0.03
812.546	0.03
812.849	0.04
813.152	0.04
813.455	0.03
813.758	0.04
814.06	0.04
814.363	0.04
814.666	0.04
814.969	0.03
815.271	0.04
815.574	0.03
815.877	0.03
816.179	0.03
816.481	0.02
816.784	0.03
817.086	0.03
817.388	0.03
817.69	0.02
817.993	0.02
818.295	0.02
818.597	0.02
818.899	0.02
819.2	0.02
819.502	0.02
819.804	0.02
820.106	0.02
820.407	0.01
820.709	0.02
821.01	0.03
821.312	0.02
821.613	0.02
821.915	0.01
822.216	0.02
822.517	0.02
822.818	0.02
823.119	0.02
823.42	0.02
823.721	0.01
824.022	0.02
824.323	0.02
824.624	0.02
824.925	0.02
825.226	0.03
825.526	0.02
825.827	0.02
826.127	0.03
826.428	0.03
826.728	0.03
827.028	0.03
827.329	0.02
827.629	0.01
827.929	0.02
828.229	0.03
828.529	0.03
828.829	0.03
829.129	0.02
829.429	0.03
829.729	0.02
830.029	0.02
830.328	0.02
830.628	0.02
830.927	0.01
831.227	0.02
831.526	0.01
831.826	0.02
832.125	0.01
832.424	0.02
832.724	0.02
833.023	0.02
833.322	0.02
833.621	0.02
833.92	0
834.219	0.02
834.518	0.02
834.816	0.01
835.115	0.02
835.414	0.02
835.712	0.01
836.011	0.01
836.309	0.01
836.608	0.01
836.906	0
837.205	-0.01
837.503	0
837.801	-0.01
838.099	-0.01
838.397	-0.01
838.695	-0.01
838.993	-0
839.291	-0.02
839.589	-0.02
839.887	-0.02
840.184	-0.02
840.482	-0.02
840.78	-0.02
841.077	-0.02
841.375	-0.02
841.672	-0.02
841.969	-0.03
842.267	-0.03
842.564	-0.03
842.861	-0.03
843.158	-0.04
843.455	-0.05
843.752	-0.04
844.049	-0.05
844.346	-0.04
844.643	-0.05
844.94	-0.05
845.236	-0.03
845.533	-0.04
845.83	-0.05
846.126	-0.05
846.423	-0.05
846.719	-0.07
847.015	-0.06
847.312	-0.06
847.608	-0.06
847.904	-0.06
848.2	-0.07
848.496	-0.06
848.792	-0.06
849.088	-0.05
849.384	-0.07
849.68	-0.07
849.975	-0.06
850.271	-0.07
850.567	-0.07
850.862	-0.08
851.158	-0.07
851.453	-0.07
851.748	-0.07
852.044	-0.08
852.339	-0.07
852.634	-0.09
852.929	-0.07
853.224	-0.08
853.519	-0.07
853.814	-0.07
854.109	-0.08
854.404	-0.09
854.699	-0.09
854.994	-0.08
855.288	-0.08
855.583	-0.08
855.877	-0.08
856.172	-0.08
856.466	-0.09
856.76	-0.09
857.055	-0.09
857.349	-0.1
857.643	-0.1
857.937	-0.1
858.231	-0.1
858.525	-0.1
858.819	-0.1
859.113	-0.11
859.407	-0.11
859.701	-0.11
859.994	-0.11
860.288	-0.09
860.581	-0.11
860.875	-0.12
861.168	-0.12
861.462	-0.11
861.755	-0.11
862.048	-0.13
862.341	-0.11
862.634	-0.12
862.928	-0.12
863.221	-0.12
863.513	-0.13
863.806	-0.13
864.099	-0.13
864.392	-0.13
864.685	-0.13
864.977	-0.13
865.27	-0.13
865.562	-0.14
865.855	-0.13
866.147	-0.14
866.44	-0.13
866.732	-0.14
867.024	-0.15
867.316	-0.15
867.608	-0.14
867.9	-0.15
868.192	-0.15
868.484	-0.14
868.776	-0.15
869.068	-0.15
869.359	-0.14
869.651	-0.14
869.943	-0.16
870.234	-0.16
870.526	-0.16
870.817	-0.17
871.108	-0.15
871.4	-0.15
871.691	-0.16
871.982	-0.17
872.273	-0.18
872.564	-0.18
872.855	-0.17
873.146	-0.18
873.437	-0.17
873.728	-0.18
874.019	-0.18
874.309	-0.18
874.6	-0.18
874.89	-0.19
875.181	-0.18
875.471	-0.17
875.762	-0.17
876.052	-0.17
876.342	-0.17
876.632	-0.16
876.922	-0.18
877.213	-0.19
877.503	-0.19
877.792	-0.18
878.082	-0.19
878.372	-0.17
878.662	-0.2
878.952	-0.19
879.241	-0.19
879.531	-0.17
879.82	-0.19
880.11	-0.18
880.399	-0.2
880.688	-0.18
880.978	-0.18
881.267	-0.18
