Data from 12-12-AQDScycling_Absorbance__504__00504.txt Node

Date: Tue Dec 12 13:02:44 EST 2023
User: kyuminlee
Spectrometer: FLMS00943
Trigger mode: 0
Integration Time (sec): 1.000000E-1
Scans to average: 1
Electric dark correction enabled: true
Nonlinearity correction enabled: false
Boxcar width: 0
XAxis mode: Wavelengths
Number of Pixels in Spectrum: 2048
>>>>>Begin Spectral Data<<<<<
179.651	-0
180.037	-0
180.424	-0
180.81	-0.13
181.197	0.06
181.583	-0
181.97	1.03
182.356	-0
182.743	-0
183.129	0.68
183.515	0.66
183.901	-2.16
184.288	0.09
184.674	-0
185.06	-1.03
185.446	-0
185.832	-0.92
186.218	0.3
186.604	0.36
186.99	-0
187.376	0.79
187.762	1.2
188.148	0.8
188.534	0.14
188.92	0.16
189.305	0.24
189.691	0.18
190.077	0.2
190.463	0.3
190.848	0.03
191.234	-0.05
191.619	0.07
192.005	0.12
192.391	0.1
192.776	0.16
193.161	0.09
193.547	0.2
193.932	0.1
194.318	0.09
194.703	0.13
195.088	0.34
195.473	0.18
195.859	0.2
196.244	0.18
196.629	0.18
197.014	0.03
197.399	0.15
197.784	0.13
198.169	0.09
198.554	0.19
198.939	0.25
199.324	0.24
199.709	0.11
200.094	0.13
200.478	0.2
200.863	0.22
201.248	0.11
201.633	0.12
202.017	0.06
202.402	0.26
202.787	0.14
203.171	0.17
203.556	0.3
203.94	0.16
204.325	0.16
204.709	0.21
205.093	0.17
205.478	0.13
205.862	0.01
206.246	0.35
206.631	0.15
207.015	0.24
207.399	0.22
207.783	0.09
208.167	0.26
208.551	0.15
208.935	0.17
209.319	0.18
209.703	0.29
210.087	0.22
210.471	0.08
210.855	0.19
211.239	0.3
211.623	0.22
212.007	0.43
212.39	0.31
212.774	0.19
213.158	0.11
213.541	0.21
213.925	0.32
214.309	0.3
214.692	0.41
215.076	0.11
215.459	0.25
215.842	0.2
216.226	0.29
216.609	0.45
216.993	0.2
217.376	0.35
217.759	0.16
218.142	0.23
218.525	0.4
218.909	0.38
219.292	0.3
219.675	0.48
220.058	0.38
220.441	0.44
220.824	0.44
221.207	0.49
221.59	0.41
221.973	0.54
222.355	0.57
222.738	0.62
223.121	0.56
223.504	0.46
223.886	0.61
224.269	0.66
224.652	0.7
225.034	0.79
225.417	0.76
225.799	0.82
226.182	0.77
226.564	0.82
226.947	0.9
227.329	0.91
227.711	0.96
228.094	0.91
228.476	0.85
228.858	0.94
229.24	0.75
229.623	0.98
230.005	0.9
230.387	0.8
230.769	0.82
231.151	0.86
231.533	1.01
231.915	0.94
232.297	0.99
232.679	0.9
233.061	0.95
233.442	1.02
233.824	1.02
234.206	1.08
234.588	1.19
234.969	1.05
235.351	0.95
235.733	1.03
236.114	1.14
236.496	1.12
236.877	1.1
237.259	1.01
237.64	1.13
238.022	1.03
238.403	0.96
238.784	1
239.165	1.05
239.547	1.1
239.928	1.11
240.309	1
240.69	1.03
241.071	1.21
241.452	1.05
241.834	0.95
242.215	0.96
242.595	1.07
242.976	1.06
243.357	1.2
243.738	1.03
244.119	1.23
244.5	1.09
244.881	1.29
245.261	1.17
245.642	1.08
246.023	1.27
246.403	1.15
246.784	1.21
247.164	1.31
247.545	1.27
247.925	1.27
248.306	1.26
248.686	1.48
249.067	1.26
249.447	1.35
249.827	1.65
250.207	1.42
250.588	1.32
250.968	1.43
251.348	1.37
251.728	1.45
252.108	1.29
252.488	1.29
252.868	1.36
253.248	1.45
253.628	1.4
254.008	1.44
254.388	1.24
254.768	1.26
255.147	1.36
255.527	1.48
255.907	1.3
256.287	1.31
256.666	1.37
257.046	1.6
257.425	1.43
257.805	1.39
258.184	1.3
258.564	1.46
258.943	1.31
259.323	1.54
259.702	1.49
260.081	1.33
260.461	1.52
260.84	1.5
261.219	1.79
261.598	1.47
261.977	1.45
262.356	1.44
262.736	1.36
263.115	1.61
263.494	1.43
263.873	1.43
264.251	1.46
264.63	1.57
265.009	1.35
265.388	1.49
265.767	1.36
266.145	1.4
266.524	1.45
266.903	1.32
267.281	1.57
267.66	1.51
268.039	1.54
268.417	1.4
268.796	1.46
269.174	1.53
269.552	1.32
269.931	1.4
270.309	1.4
270.687	1.55
271.066	1.81
271.444	1.5
271.822	1.47
272.2	1.38
272.578	1.51
272.956	1.45
273.334	1.36
273.712	1.45
274.09	1.3
274.468	1.36
274.846	1.23
275.224	1.34
275.602	1.4
275.98	1.52
276.357	1.42
276.735	1.49
277.113	1.28
277.49	1.37
277.868	1.37
278.246	1.56
278.623	1.34
279.001	1.34
279.378	1.4
279.756	1.45
280.133	1.67
280.51	1.39
280.888	1.38
281.265	1.44
281.642	1.57
282.019	1.54
282.396	1.57
282.773	1.38
283.151	1.44
283.528	1.45
283.905	1.49
284.282	1.65
284.659	1.55
285.035	1.4
285.412	1.35
285.789	1.7
286.166	1.45
286.543	1.44
286.919	1.56
287.296	1.44
287.673	1.74
288.049	1.48
288.426	1.63
288.802	1.47
289.179	1.49
289.555	1.74
289.932	1.57
290.308	1.41
290.684	1.32
291.061	1.34
291.437	1.52
291.813	1.29
292.189	1.36
292.565	1.35
292.942	1.36
293.318	1.5
293.694	1.5
294.07	1.29
294.446	1.39
294.822	1.59
295.197	1.42
295.573	1.5
295.949	1.54
296.325	1.42
296.701	1.55
297.076	1.6
297.452	1.58
297.828	1.43
298.203	1.64
298.579	1.47
298.954	1.48
299.33	1.45
299.705	1.47
300.081	1.41
300.456	1.48
300.831	1.42
301.206	1.35
301.582	1.63
301.957	1.54
302.332	1.69
302.707	1.48
303.082	1.42
303.457	1.52
303.832	1.43
304.207	1.43
304.582	1.52
304.957	1.52
305.332	1.51
305.707	1.48
306.082	1.44
306.456	1.54
306.831	1.4
307.206	1.61
307.58	1.55
307.955	1.55
308.33	1.42
308.704	1.54
309.079	1.47
309.453	1.67
309.828	1.45
310.202	1.48
310.576	1.47
310.951	1.44
311.325	1.49
311.699	1.43
312.073	1.35
312.447	1.51
312.821	1.39
313.196	1.5
313.57	1.49
313.944	1.46
314.317	1.33
314.691	1.53
315.065	1.56
315.439	1.57
315.813	1.35
316.187	1.49
316.56	1.89
316.934	1.5
317.308	1.45
317.681	1.53
318.055	1.55
318.428	1.65
318.802	1.61
319.175	1.49
319.549	1.45
319.922	1.44
320.295	1.46
320.669	1.66
321.042	1.57
321.415	1.66
321.788	1.54
322.162	1.7
322.535	1.52
322.908	1.57
323.281	1.55
323.654	1.69
324.027	1.4
324.4	1.49
324.773	1.43
325.145	1.56
325.518	1.48
325.891	1.38
326.264	1.56
326.636	1.37
327.009	1.46
327.382	1.42
327.754	1.81
328.127	1.47
328.499	1.49
328.872	1.45
329.244	1.56
329.616	1.36
329.989	1.49
330.361	1.51
330.733	1.45
331.106	1.5
331.478	1.54
331.85	1.44
332.222	1.4
332.594	1.72
332.966	1.54
333.338	1.72
333.71	1.5
334.082	1.9
334.454	1.46
334.826	1.63
335.197	1.62
335.569	1.51
335.941	1.44
336.312	1.46
336.684	1.36
337.056	1.42
337.427	1.54
337.799	1.5
338.17	1.53
338.542	1.52
338.913	1.61
339.284	1.61
339.656	1.51
340.027	1.49
340.398	1.59
340.769	1.61
341.141	1.8
341.512	1.48
341.883	1.68
342.254	1.63
342.625	1.56
342.996	1.46
343.367	1.43
343.738	1.52
344.108	1.63
344.479	1.63
344.85	1.49
345.221	1.55
345.591	1.38
345.962	1.44
346.333	1.58
346.703	1.42
347.074	1.46
347.444	1.35
347.815	1.52
348.185	1.31
348.556	1.37
348.926	1.33
349.296	1.39
349.666	1.29
350.037	1.18
350.407	1.24
350.777	1.32
351.147	1.4
351.517	1.54
351.887	1.34
352.257	1.42
352.627	1.25
352.997	1.34
353.367	1.39
353.737	1.38
354.106	1.38
354.476	1.33
354.846	1.3
355.216	1.41
355.585	1.34
355.955	1.33
356.324	1.37
356.694	1.36
357.063	1.37
357.433	1.32
357.802	1.36
358.171	1.32
358.541	1.34
358.91	1.35
359.279	1.29
359.648	1.32
360.017	1.28
360.387	1.26
360.756	1.23
361.125	1.3
361.494	1.29
361.863	1.27
362.231	1.31
362.6	1.26
362.969	1.28
363.338	1.23
363.707	1.23
364.075	1.25
364.444	1.15
364.813	1.25
365.181	1.2
365.55	1.17
365.918	1.31
366.287	1.17
366.655	1.24
367.024	1.24
367.392	1.24
367.76	1.19
368.128	1.15
368.497	1.15
368.865	1.11
369.233	1.16
369.601	1.11
369.969	1.14
370.337	1.15
370.705	1.18
371.073	1.21
371.441	1.19
371.809	1.15
372.177	1.16
372.544	1.18
372.912	1.19
373.28	1.12
373.647	1.19
374.015	1.19
374.383	1.21
374.75	1.21
375.118	1.13
375.485	1.23
375.853	1.17
376.22	1.16
376.587	1.15
376.955	1.23
377.322	1.23
377.689	1.17
378.056	1.19
378.423	1.09
378.79	1.24
379.157	1.18
379.524	1.22
379.891	1.19
380.258	1.25
380.625	1.17
380.992	1.22
381.359	1.3
381.726	1.33
382.092	1.16
382.459	1.2
382.826	1.2
383.192	1.25
383.559	1.22
383.925	1.3
384.292	1.24
384.658	1.39
385.025	1.26
385.391	1.41
385.757	1.28
386.123	1.31
386.49	1.29
386.856	1.37
387.222	1.31
387.588	1.34
387.954	1.35
388.32	1.38
388.686	1.33
389.052	1.37
389.418	1.35
389.784	1.32
390.15	1.34
390.515	1.21
390.881	1.37
391.247	1.35
391.613	1.34
391.978	1.28
392.344	1.51
392.709	1.4
393.075	1.31
393.44	1.35
393.806	1.43
394.171	1.28
394.536	1.36
394.902	1.38
395.267	1.21
395.632	1.28
395.997	1.28
396.362	1.26
396.727	1.33
397.092	1.28
397.457	1.27
397.822	1.31
398.187	1.31
398.552	1.24
398.917	1.29
399.282	1.28
399.646	1.22
400.011	1.33
400.376	1.21
400.74	1.32
401.105	1.25
401.47	1.23
401.834	1.32
402.199	1.24
402.563	1.18
402.927	1.18
403.292	1.24
403.656	1.24
404.02	1.19
404.384	1.17
404.749	1.14
405.113	1.18
405.477	1.18
405.841	1.17
406.205	1.11
406.569	1.11
406.933	1.14
407.296	1.16
407.66	1.1
408.024	1.11
408.388	1.14
408.752	1.08
409.115	1.13
409.479	1.08
409.842	1.06
410.206	1.05
410.569	1.08
410.933	1
411.296	1.05
411.66	1.02
412.023	0.99
412.386	1.06
412.749	1
413.113	1.05
413.476	0.97
413.839	0.98
414.202	1.03
414.565	0.95
414.928	0.99
415.291	0.96
415.654	1.02
416.017	1
416.38	0.97
416.742	0.92
417.105	0.9
417.468	0.94
417.83	0.96
418.193	0.98
418.556	0.92
418.918	0.93
419.281	0.94
419.643	0.95
420.005	0.93
420.368	0.91
420.73	0.9
421.092	0.94
421.455	0.95
421.817	0.91
422.179	0.91
422.541	0.92
422.903	0.95
423.265	0.93
423.627	0.89
423.989	0.9
424.351	0.87
424.713	0.92
425.075	0.87
425.436	0.87
425.798	0.87
426.16	0.9
426.521	0.91
426.883	0.89
427.245	0.89
427.606	0.86
427.967	0.83
428.329	0.89
428.69	0.9
429.052	0.87
429.413	0.88
429.774	0.89
430.135	0.87
430.497	0.86
430.858	0.87
431.219	0.85
431.58	0.83
431.941	0.83
432.302	0.83
432.663	0.88
433.024	0.87
433.384	0.86
433.745	0.78
434.106	0.84
434.467	0.82
434.827	0.84
435.188	0.82
435.548	0.85
435.909	0.8
436.269	0.84
436.63	0.79
436.99	0.82
437.351	0.79
437.711	0.81
438.071	0.78
438.431	0.79
438.792	0.8
439.152	0.8
439.512	0.77
439.872	0.78
440.232	0.79
440.592	0.78
440.952	0.77
441.312	0.76
441.671	0.75
442.031	0.76
442.391	0.76
442.751	0.76
443.11	0.76
443.47	0.72
443.83	0.73
444.189	0.73
444.549	0.73
444.908	0.73
445.267	0.72
445.627	0.7
445.986	0.7
446.345	0.69
446.705	0.71
447.064	0.71
447.423	0.69
447.782	0.7
448.141	0.69
448.5	0.69
448.859	0.67
449.218	0.67
449.577	0.67
449.936	0.69
450.295	0.68
450.653	0.66
451.012	0.66
451.371	0.66
451.729	0.65
452.088	0.66
452.447	0.65
452.805	0.64
453.163	0.65
453.522	0.65
453.88	0.61
454.239	0.62
454.597	0.61
454.955	0.61
455.313	0.61
455.671	0.6
456.029	0.59
456.388	0.58
456.746	0.59
457.104	0.59
457.461	0.57
457.819	0.57
458.177	0.57
458.535	0.55
458.893	0.54
459.25	0.54
459.608	0.54
459.966	0.52
460.323	0.52
460.681	0.51
461.038	0.52
461.396	0.5
461.753	0.51
462.111	0.5
462.468	0.5
462.825	0.49
463.182	0.48
463.54	0.47
463.897	0.48
464.254	0.47
464.611	0.47
464.968	0.46
465.325	0.46
465.682	0.45
466.039	0.46
466.395	0.44
466.752	0.44
467.109	0.43
467.466	0.43
467.822	0.43
468.179	0.42
468.535	0.4
468.892	0.41
469.248	0.39
469.605	0.39
469.961	0.4
470.318	0.4
470.674	0.39
471.03	0.39
471.386	0.39
471.743	0.38
472.099	0.37
472.455	0.37
472.811	0.35
473.167	0.36
473.523	0.35
473.879	0.35
474.235	0.34
474.59	0.34
474.946	0.33
475.302	0.33
475.657	0.32
476.013	0.33
476.369	0.31
476.724	0.32
477.08	0.31
477.435	0.31
477.791	0.3
478.146	0.3
478.501	0.3
478.857	0.3
479.212	0.29
479.567	0.29
479.922	0.28
480.277	0.28
480.632	0.28
480.987	0.28
481.342	0.28
481.697	0.26
482.052	0.26
482.407	0.26
482.762	0.26
483.116	0.26
483.471	0.24
483.826	0.24
484.18	0.24
484.535	0.23
484.89	0.24
485.244	0.24
485.598	0.24
485.953	0.23
486.307	0.23
486.661	0.23
487.016	0.22
487.37	0.23
487.724	0.22
488.078	0.22
488.432	0.22
488.786	0.22
489.14	0.22
489.494	0.21
489.848	0.21
490.202	0.2
490.556	0.2
490.91	0.21
491.263	0.2
491.617	0.2
491.971	0.2
492.324	0.2
492.678	0.2
493.031	0.2
493.385	0.2
493.738	0.19
494.091	0.2
494.445	0.19
494.798	0.19
495.151	0.19
495.504	0.19
495.857	0.19
496.21	0.18
496.564	0.18
496.916	0.18
497.269	0.17
497.622	0.18
497.975	0.18
498.328	0.17
498.681	0.18
499.033	0.17
499.386	0.17
499.739	0.17
500.091	0.17
500.444	0.17
500.796	0.17
501.149	0.17
501.501	0.17
501.854	0.17
502.206	0.17
502.558	0.17
502.91	0.17
503.263	0.16
503.615	0.17
503.967	0.16
504.319	0.16
504.671	0.16
505.023	0.16
505.375	0.16
505.726	0.16
506.078	0.16
506.43	0.16
506.782	0.15
507.133	0.16
507.485	0.16
507.837	0.16
508.188	0.16
508.54	0.16
508.891	0.16
509.243	0.15
509.594	0.15
509.945	0.16
510.296	0.15
510.648	0.16
510.999	0.15
511.35	0.15
511.701	0.16
512.052	0.16
512.403	0.16
512.754	0.15
513.105	0.15
513.456	0.15
513.807	0.14
514.157	0.16
514.508	0.15
514.859	0.15
515.209	0.15
515.56	0.15
515.91	0.15
516.261	0.16
516.611	0.15
516.962	0.16
517.312	0.15
517.662	0.15
518.013	0.15
518.363	0.15
518.713	0.16
519.063	0.16
519.413	0.15
519.763	0.15
520.113	0.15
520.463	0.16
520.813	0.17
521.163	0.16
521.512	0.15
521.862	0.15
522.212	0.16
522.562	0.16
522.911	0.15
523.261	0.16
523.61	0.15
523.96	0.15
524.309	0.16
524.658	0.16
525.008	0.15
525.357	0.15
525.706	0.16
526.056	0.15
526.405	0.16
526.754	0.15
527.103	0.15
527.452	0.16
527.801	0.16
528.15	0.15
528.499	0.15
528.847	0.16
529.196	0.16
529.545	0.15
529.893	0.16
530.242	0.16
530.591	0.17
530.939	0.17
531.288	0.16
531.636	0.16
531.985	0.16
532.333	0.16
532.681	0.16
533.029	0.16
533.378	0.16
533.726	0.16
534.074	0.16
534.422	0.16
534.77	0.16
535.118	0.16
535.466	0.16
535.814	0.16
536.162	0.16
536.509	0.16
536.857	0.16
537.205	0.17
537.552	0.16
537.9	0.15
538.248	0.17
538.595	0.16
538.943	0.17
539.29	0.16
539.637	0.16
539.985	0.17
540.332	0.16
540.679	0.16
541.026	0.16
541.373	0.17
541.721	0.16
542.068	0.16
542.415	0.16
542.762	0.16
543.108	0.15
543.455	0.15
543.802	0.15
544.149	0.16
544.496	0.16
544.842	0.15
545.189	0.15
545.535	0.16
545.882	0.15
546.228	0.15
546.575	0.15
546.921	0.15
547.267	0.16
547.614	0.15
547.96	0.15
548.306	0.15
548.652	0.16
548.998	0.15
549.344	0.15
549.69	0.16
550.036	0.16
550.382	0.15
550.728	0.15
551.074	0.16
551.42	0.16
551.765	0.16
552.111	0.15
552.457	0.16
552.802	0.16
553.148	0.16
553.493	0.16
553.839	0.16
554.184	0.16
554.529	0.16
554.875	0.17
555.22	0.17
555.565	0.16
555.91	0.16
556.255	0.17
556.6	0.16
556.945	0.16
557.29	0.16
557.635	0.16
557.98	0.17
558.325	0.16
558.67	0.16
559.014	0.16
559.359	0.16
559.704	0.16
560.048	0.16
560.393	0.16
560.737	0.16
561.082	0.17
561.426	0.16
561.77	0.16
562.115	0.16
562.459	0.16
562.803	0.16
563.147	0.16
563.491	0.16
563.835	0.17
564.179	0.16
564.523	0.15
564.867	0.16
565.211	0.17
565.555	0.16
565.899	0.16
566.242	0.17
566.586	0.15
566.93	0.16
567.273	0.16
567.617	0.16
567.96	0.17
568.304	0.17
568.647	0.16
568.99	0.17
569.334	0.17
569.677	0.17
570.02	0.17
570.363	0.17
570.706	0.17
571.049	0.17
571.392	0.18
571.735	0.16
572.078	0.16
572.421	0.17
572.764	0.17
573.106	0.16
573.449	0.15
573.792	0.16
574.134	0.16
574.477	0.18
574.819	0.17
575.162	0.15
575.504	0.16
575.847	0.16
576.189	0.16
576.531	0.17
576.873	0.16
577.215	0.16
577.558	0.17
577.9	0.16
578.242	0.17
578.584	0.17
578.926	0.16
579.267	0.16
579.609	0.17
579.951	0.16
580.293	0.17
580.634	0.17
580.976	0.17
581.318	0.17
581.659	0.16
582.001	0.16
582.342	0.16
582.683	0.16
583.025	0.15
583.366	0.16
583.707	0.16
584.049	0.15
584.39	0.16
584.731	0.16
585.072	0.16
585.413	0.17
585.754	0.17
586.095	0.16
586.435	0.16
586.776	0.16
587.117	0.16
587.458	0.15
587.798	0.16
588.139	0.16
588.48	0.16
588.82	0.16
589.161	0.16
589.501	0.16
589.841	0.16
590.182	0.16
590.522	0.15
590.862	0.16
591.202	0.15
591.542	0.16
591.882	0.16
592.222	0.16
592.562	0.16
592.902	0.16
593.242	0.15
593.582	0.16
593.922	0.16
594.261	0.16
594.601	0.16
594.941	0.17
595.28	0.16
595.62	0.16
595.959	0.16
596.299	0.16
596.638	0.16
596.977	0.16
597.317	0.17
597.656	0.16
597.995	0.17
598.334	0.16
598.673	0.16
599.012	0.16
599.351	0.17
599.69	0.15
600.029	0.17
600.368	0.17
600.707	0.16
601.046	0.16
601.384	0.17
601.723	0.17
602.061	0.16
602.4	0.17
602.738	0.16
603.077	0.16
603.415	0.16
603.754	0.16
604.092	0.16
604.43	0.15
604.768	0.16
605.107	0.16
605.445	0.16
605.783	0.16
606.121	0.15
606.459	0.16
606.796	0.16
607.134	0.15
607.472	0.15
607.81	0.17
608.148	0.15
608.485	0.16
608.823	0.15
609.16	0.15
609.498	0.16
609.835	0.16
610.173	0.15
610.51	0.16
610.847	0.16
611.185	0.17
611.522	0.16
611.859	0.16
612.196	0.16
612.533	0.17
612.87	0.16
613.207	0.17
613.544	0.17
613.881	0.17
614.217	0.17
614.554	0.16
614.891	0.17
615.228	0.17
615.564	0.17
615.901	0.17
616.237	0.17
616.574	0.17
616.91	0.17
617.246	0.17
617.583	0.17
617.919	0.18
618.255	0.17
618.591	0.16
618.927	0.16
619.263	0.17
619.599	0.17
619.935	0.17
620.271	0.17
620.607	0.17
620.943	0.17
621.279	0.16
621.614	0.17
621.95	0.17
622.286	0.16
622.621	0.16
622.957	0.16
623.292	0.15
623.627	0.16
623.963	0.16
624.298	0.16
624.633	0.16
624.968	0.15
625.304	0.15
625.639	0.16
625.974	0.15
626.309	0.15
626.644	0.16
626.979	0.16
627.313	0.16
627.648	0.15
627.983	0.15
628.318	0.15
628.652	0.15
628.987	0.15
629.321	0.15
629.656	0.15
629.99	0.15
630.325	0.15
630.659	0.15
630.993	0.15
631.327	0.14
631.662	0.14
631.996	0.14
632.33	0.14
632.664	0.15
632.998	0.15
633.332	0.14
633.666	0.14
633.999	0.14
634.333	0.14
634.667	0.14
635.001	0.14
635.334	0.14
635.668	0.14
636.001	0.14
636.335	0.15
636.668	0.15
637.001	0.14
637.335	0.14
637.668	0.14
638.001	0.13
638.334	0.15
638.668	0.14
639.001	0.14
639.334	0.14
639.667	0.13
639.999	0.14
640.332	0.14
640.665	0.13
640.998	0.14
641.331	0.14
641.663	0.13
641.996	0.14
642.328	0.14
642.661	0.13
642.993	0.14
643.326	0.13
643.658	0.13
643.99	0.13
644.323	0.13
644.655	0.13
644.987	0.14
645.319	0.14
645.651	0.14
645.983	0.14
646.315	0.13
646.647	0.14
646.979	0.14
647.31	0.14
647.642	0.14
647.974	0.14
648.305	0.14
648.637	0.13
648.968	0.14
649.3	0.14
649.631	0.14
649.963	0.13
650.294	0.14
650.625	0.14
650.957	0.14
651.288	0.14
651.619	0.14
651.95	0.14
652.281	0.14
652.612	0.13
652.943	0.14
653.274	0.15
653.604	0.14
653.935	0.14
654.266	0.13
654.596	0.14
654.927	0.13
655.258	0.13
655.588	0.14
655.918	0.14
656.249	0.12
656.579	0.13
656.909	0.13
657.24	0.13
657.57	0.14
657.9	0.14
658.23	0.13
658.56	0.14
658.89	0.14
659.22	0.14
659.55	0.14
659.88	0.14
660.209	0.14
660.539	0.15
660.869	0.14
661.198	0.14
661.528	0.14
661.857	0.13
662.187	0.14
662.516	0.14
662.846	0.14
663.175	0.13
663.504	0.13
663.833	0.13
664.163	0.13
664.492	0.13
664.821	0.13
665.15	0.13
665.479	0.13
665.807	0.13
666.136	0.14
666.465	0.13
666.794	0.13
667.122	0.13
667.451	0.13
667.78	0.13
668.108	0.13
668.437	0.12
668.765	0.13
669.093	0.13
669.422	0.13
669.75	0.13
670.078	0.13
670.406	0.13
670.734	0.13
671.062	0.13
671.39	0.13
671.718	0.13
672.046	0.13
672.374	0.12
672.702	0.12
673.029	0.12
673.357	0.13
673.685	0.13
674.012	0.13
674.34	0.12
674.667	0.12
674.995	0.13
675.322	0.13
675.649	0.12
675.977	0.13
676.304	0.12
676.631	0.12
676.958	0.12
677.285	0.12
677.612	0.12
677.939	0.13
678.266	0.13
678.593	0.13
678.92	0.12
679.246	0.12
679.573	0.13
679.9	0.12
680.226	0.12
680.553	0.12
680.879	0.12
681.206	0.12
681.532	0.12
681.858	0.12
682.184	0.12
682.511	0.12
682.837	0.12
683.163	0.12
683.489	0.12
683.815	0.11
684.141	0.12
684.467	0.11
684.793	0.11
685.118	0.11
685.444	0.12
685.77	0.11
686.095	0.12
686.421	0.11
686.746	0.12
687.072	0.11
687.397	0.11
687.723	0.12
688.048	0.12
688.373	0.11
688.698	0.12
689.023	0.12
689.349	0.11
689.674	0.11
689.999	0.12
690.323	0.12
690.648	0.11
690.973	0.11
691.298	0.11
691.623	0.11
691.947	0.12
692.272	0.11
692.596	0.11
692.921	0.12
693.245	0.12
693.57	0.12
693.894	0.11
694.218	0.12
694.543	0.11
694.867	0.11
695.191	0.1
695.515	0.11
695.839	0.1
696.163	0.11
696.487	0.11
696.811	0.11
697.135	0.11
697.458	0.12
697.782	0.1
698.106	0.11
698.429	0.11
698.753	0.1
699.076	0.11
699.4	0.1
699.723	0.1
700.046	0.09
700.37	0.1
700.693	0.11
701.016	0.11
701.339	0.11
701.662	0.11
701.985	0.11
702.308	0.11
702.631	0.11
702.954	0.1
703.277	0.11
703.599	0.11
703.922	0.1
704.245	0.1
704.567	0.1
704.89	0.1
705.212	0.1
705.535	0.09
705.857	0.1
706.179	0.09
706.502	0.09
706.824	0.09
707.146	0.09
707.468	0.1
707.79	0.1
708.112	0.1
708.434	0.1
708.756	0.11
709.078	0.1
709.399	0.1
709.721	0.09
710.043	0.1
710.364	0.1
710.686	0.1
711.007	0.1
711.329	0.1
711.65	0.1
711.972	0.1
712.293	0.1
712.614	0.1
712.935	0.1
713.256	0.1
713.577	0.1
713.898	0.1
714.219	0.09
714.54	0.09
714.861	0.09
715.182	0.09
715.503	0.09
715.823	0.09
716.144	0.09
716.464	0.08
716.785	0.08
717.105	0.1
717.426	0.09
717.746	0.09
718.066	0.08
718.387	0.08
718.707	0.09
719.027	0.09
719.347	0.08
719.667	0.09
719.987	0.08
720.307	0.08
720.627	0.08
720.947	0.09
721.266	0.09
721.586	0.08
721.906	0.08
722.225	0.08
722.545	0.08
722.864	0.08
723.184	0.09
723.503	0.09
723.823	0.09
724.142	0.08
724.461	0.09
724.78	0.07
725.099	0.08
725.418	0.08
725.737	0.08
726.056	0.09
726.375	0.08
726.694	0.08
727.013	0.08
727.331	0.08
727.65	0.08
727.969	0.08
728.287	0.09
728.606	0.08
728.924	0.08
729.242	0.08
729.561	0.08
729.879	0.08
730.197	0.09
730.515	0.08
730.834	0.08
731.152	0.08
731.47	0.08
731.788	0.08
732.105	0.08
732.423	0.08
732.741	0.08
733.059	0.08
733.376	0.08
733.694	0.07
734.012	0.07
734.329	0.09
734.647	0.09
734.964	0.09
735.281	0.09
735.599	0.08
735.916	0.09
736.233	0.08
736.55	0.08
736.867	0.08
737.184	0.08
737.501	0.08
737.818	0.08
738.135	0.09
738.452	0.07
738.768	0.08
739.085	0.08
739.402	0.07
739.718	0.08
740.035	0.07
740.351	0.08
740.668	0.08
740.984	0.08
741.3	0.07
741.617	0.08
741.933	0.08
742.249	0.08
742.565	0.08
742.881	0.08
743.197	0.08
743.513	0.08
743.829	0.07
744.144	0.07
744.46	0.07
744.776	0.07
745.091	0.07
745.407	0.07
745.722	0.07
746.038	0.07
746.353	0.06
746.669	0.07
746.984	0.07
747.299	0.06
747.614	0.07
747.93	0.07
748.245	0.06
748.56	0.07
748.875	0.06
749.189	0.07
749.504	0.07
749.819	0.07
750.134	0.07
750.448	0.07
750.763	0.07
751.078	0.07
751.392	0.06
751.707	0.08
752.021	0.08
752.335	0.08
752.65	0.08
752.964	0.08
753.278	0.07
753.592	0.07
753.906	0.07
754.22	0.07
754.534	0.08
754.848	0.07
755.162	0.07
755.476	0.07
755.789	0.07
756.103	0.06
756.417	0.08
756.73	0.07
757.044	0.07
757.357	0.07
757.671	0.07
757.984	0.07
758.297	0.08
758.61	0.08
758.924	0.07
759.237	0.07
759.55	0.07
759.863	0.07
760.176	0.07
760.488	0.07
760.801	0.07
761.114	0.07
761.427	0.07
761.739	0.07
762.052	0.06
762.365	0.07
762.677	0.07
762.99	0.06
763.302	0.07
763.614	0.06
763.926	0.07
764.239	0.06
764.551	0.06
764.863	0.07
765.175	0.07
765.487	0.07
765.799	0.06
766.111	0.05
766.423	0.06
766.734	0.07
767.046	0.06
767.358	0.07
767.669	0.07
767.981	0.06
768.292	0.07
768.604	0.06
768.915	0.06
769.226	0.06
769.537	0.05
769.849	0.07
770.16	0.05
770.471	0.05
770.782	0.06
771.093	0.06
771.404	0.05
771.715	0.05
772.025	0.05
772.336	0.06
772.647	0.05
772.957	0.06
773.268	0.06
773.578	0.06
773.889	0.06
774.199	0.06
774.51	0.06
774.82	0.06
775.13	0.07
775.44	0.06
775.75	0.06
776.06	0.07
776.37	0.06
776.68	0.06
776.99	0.06
777.3	0.05
777.61	0.07
777.92	0.05
778.229	0.06
778.539	0.05
778.848	0.06
779.158	0.06
779.467	0.07
779.777	0.06
780.086	0.06
780.395	0.05
780.704	0.06
781.013	0.05
781.323	0.05
781.632	0.06
781.941	0.07
782.249	0.05
782.558	0.05
782.867	0.06
783.176	0.05
783.485	0.04
783.793	0.06
784.102	0.05
784.41	0.05
784.719	0.06
785.027	0.06
785.335	0.04
785.644	0.06
785.952	0.05
786.26	0.05
786.568	0.04
786.876	0.05
787.184	0.05
787.492	0.06
787.8	0.05
788.108	0.05
788.416	0.05
788.723	0.05
789.031	0.05
789.338	0.04
789.646	0.06
789.953	0.05
790.261	0.05
790.568	0.05
790.876	0.06
791.183	0.06
791.49	0.05
791.797	0.05
792.104	0.05
792.411	0.06
792.718	0.06
793.025	0.06
793.332	0.06
793.639	0.06
793.945	0.07
794.252	0.07
794.559	0.06
794.865	0.06
795.172	0.06
795.478	0.05
795.784	0.06
796.091	0.06
796.397	0.06
796.703	0.06
797.009	0.07
797.315	0.06
797.622	0.07
797.927	0.06
798.233	0.06
798.539	0.07
798.845	0.07
799.151	0.07
799.456	0.06
799.762	0.07
800.068	0.06
800.373	0.08
800.679	0.06
800.984	0.06
801.289	0.06
801.595	0.07
801.9	0.07
802.205	0.06
802.51	0.06
802.815	0.06
803.12	0.06
803.425	0.07
803.73	0.06
804.035	0.06
804.339	0.05
804.644	0.05
804.949	0.07
805.253	0.05
805.558	0.05
805.862	0.05
806.167	0.06
806.471	0.05
806.775	0.05
807.08	0.05
807.384	0.05
807.688	0.05
807.992	0.05
808.296	0.06
808.6	0.06
808.904	0.06
809.207	0.06
809.511	0.06
809.815	0.07
810.119	0.06
810.422	0.06
810.726	0.07
811.029	0.07
811.332	0.07
811.636	0.07
811.939	0.07
812.242	0.07
812.546	0.08
812.849	0.07
813.152	0.08
813.455	0.07
813.758	0.08
814.06	0.07
814.363	0.07
814.666	0.07
814.969	0.07
815.271	0.08
815.574	0.07
815.877	0.07
816.179	0.07
816.481	0.06
816.784	0.06
817.086	0.06
817.388	0.06
817.69	0.06
817.993	0.05
818.295	0.05
818.597	0.05
818.899	0.05
819.2	0.04
819.502	0.05
819.804	0.05
820.106	0.05
820.407	0.04
820.709	0.05
821.01	0.05
821.312	0.06
821.613	0.05
821.915	0.05
822.216	0.05
822.517	0.03
822.818	0.04
823.119	0.04
823.42	0.05
823.721	0.04
824.022	0.04
824.323	0.05
824.624	0.04
824.925	0.04
825.226	0.05
825.526	0.04
825.827	0.04
826.127	0.04
826.428	0.04
826.728	0.04
827.028	0.04
827.329	0.04
827.629	0.03
827.929	0.04
828.229	0.04
828.529	0.05
828.829	0.04
829.129	0.05
829.429	0.04
829.729	0.04
830.029	0.03
830.328	0.04
830.628	0.03
830.927	0.03
831.227	0.03
831.526	0.03
831.826	0.04
832.125	0.04
832.424	0.03
832.724	0.04
833.023	0.03
833.322	0.04
833.621	0.04
833.92	0.02
834.219	0.02
834.518	0.03
834.816	0.02
835.115	0.02
835.414	0.03
835.712	0.02
836.011	0.02
836.309	0.02
836.608	0.02
836.906	0.01
837.205	0
837.503	0.01
837.801	-0
838.099	0
838.397	-0
838.695	-0
838.993	0.01
839.291	-0
839.589	-0
839.887	0
840.184	-0
840.482	-0
840.78	-0
841.077	-0.01
841.375	-0.01
841.672	-0
841.969	-0.01
842.267	-0.01
842.564	-0.01
842.861	-0
843.158	-0.01
843.455	-0.02
843.752	-0.02
844.049	-0.01
844.346	-0.02
844.643	-0.02
844.94	-0.02
845.236	-0.01
845.533	-0.03
845.83	-0.02
846.126	-0.03
846.423	-0.03
846.719	-0.04
847.015	-0.03
847.312	-0.04
847.608	-0.03
847.904	-0.04
848.2	-0.03
848.496	-0.04
848.792	-0.03
849.088	-0.03
849.384	-0.04
849.68	-0.04
849.975	-0.03
850.271	-0.04
850.567	-0.04
850.862	-0.05
851.158	-0.05
851.453	-0.05
851.748	-0.06
852.044	-0.05
852.339	-0.05
852.634	-0.06
852.929	-0.04
853.224	-0.06
853.519	-0.06
853.814	-0.05
854.109	-0.06
854.404	-0.06
854.699	-0.06
854.994	-0.05
855.288	-0.06
855.583	-0.05
855.877	-0.06
856.172	-0.06
856.466	-0.07
856.76	-0.07
857.055	-0.07
857.349	-0.08
857.643	-0.08
857.937	-0.09
858.231	-0.09
858.525	-0.1
858.819	-0.1
859.113	-0.1
859.407	-0.11
859.701	-0.11
859.994	-0.11
860.288	-0.1
860.581	-0.1
860.875	-0.1
861.168	-0.11
861.462	-0.1
861.755	-0.1
862.048	-0.11
862.341	-0.1
862.634	-0.11
862.928	-0.1
863.221	-0.1
863.513	-0.12
863.806	-0.1
864.099	-0.12
864.392	-0.11
864.685	-0.1
864.977	-0.11
865.27	-0.12
865.562	-0.11
865.855	-0.11
866.147	-0.12
866.44	-0.11
866.732	-0.13
867.024	-0.11
867.316	-0.12
867.608	-0.12
867.9	-0.12
868.192	-0.13
868.484	-0.13
868.776	-0.13
869.068	-0.12
869.359	-0.12
869.651	-0.13
869.943	-0.14
870.234	-0.14
870.526	-0.14
870.817	-0.14
871.108	-0.14
871.4	-0.14
871.691	-0.15
871.982	-0.15
872.273	-0.16
872.564	-0.15
872.855	-0.15
873.146	-0.16
873.437	-0.16
873.728	-0.16
874.019	-0.16
874.309	-0.17
874.6	-0.16
874.89	-0.17
875.181	-0.16
875.471	-0.17
875.762	-0.16
876.052	-0.16
876.342	-0.14
876.632	-0.16
876.922	-0.17
877.213	-0.17
877.503	-0.17
877.792	-0.16
878.082	-0.17
878.372	-0.15
878.662	-0.18
878.952	-0.17
879.241	-0.15
879.531	-0.16
879.82	-0.17
880.11	-0.16
880.399	-0.16
880.688	-0.14
880.978	-0.14
881.267	-0.14
