Data from 12-12-AQDScycling_Absorbance__431__00431.txt Node

Date: Tue Dec 12 12:44:29 EST 2023
User: kyuminlee
Spectrometer: FLMS00943
Trigger mode: 0
Integration Time (sec): 1.000000E-1
Scans to average: 1
Electric dark correction enabled: true
Nonlinearity correction enabled: false
Boxcar width: 0
XAxis mode: Wavelengths
Number of Pixels in Spectrum: 2048
>>>>>Begin Spectral Data<<<<<
179.651	-0
180.037	-0
180.424	-0
180.81	-0.08
181.197	-0.05
181.583	-0
181.97	-0.14
182.356	-0
182.743	-0
183.129	-0.01
183.515	0.15
183.901	-1.87
184.288	0.09
184.674	-0
185.06	-1.39
185.446	-0.03
185.832	-0.83
186.218	0.17
186.604	0.05
186.99	-0
187.376	-0
187.762	-0.21
188.148	0.41
188.534	-0.33
188.92	0.12
189.305	-0.04
189.691	0.33
190.077	0.13
190.463	0.14
190.848	0.09
191.234	0.05
191.619	0.04
192.005	-0.01
192.391	0.17
192.776	0.13
193.161	0.14
193.547	0.15
193.932	0.09
194.318	0.04
194.703	0.19
195.088	0.22
195.473	0.16
195.859	0.15
196.244	0.11
196.629	0.01
197.014	0.15
197.399	0.18
197.784	0.12
198.169	0.1
198.554	0.23
198.939	0.07
199.324	0.09
199.709	0.14
200.094	0.08
200.478	0.03
200.863	0.23
201.248	0.38
201.633	0.15
202.017	0.12
202.402	0.16
202.787	0.02
203.171	0.2
203.556	0.21
203.94	0.26
204.325	0.28
204.709	0.18
205.093	0.04
205.478	0.23
205.862	0.06
206.246	0.12
206.631	0.12
207.015	0.17
207.399	0.21
207.783	0.11
208.167	0.14
208.551	0.16
208.935	0.13
209.319	0.23
209.703	0.04
210.087	0.22
210.471	0.02
210.855	0.18
211.239	0.23
211.623	0.26
212.007	0.23
212.39	0.25
212.774	0.15
213.158	0.21
213.541	0.34
213.925	0.15
214.309	0.24
214.692	0.26
215.076	0.17
215.459	0.13
215.842	0.07
216.226	0.27
216.609	0.26
216.993	0.24
217.376	0.45
217.759	0.17
218.142	0.18
218.525	0.6
218.909	0.32
219.292	0.34
219.675	0.52
220.058	0.43
220.441	0.52
220.824	0.41
221.207	0.6
221.59	0.44
221.973	0.57
222.355	0.51
222.738	0.61
223.121	0.65
223.504	0.55
223.886	0.63
224.269	0.72
224.652	0.66
225.034	0.71
225.417	0.69
225.799	0.73
226.182	0.9
226.564	0.82
226.947	0.68
227.329	0.81
227.711	0.98
228.094	0.97
228.476	0.88
228.858	0.9
229.24	0.85
229.623	0.91
230.005	0.88
230.387	0.98
230.769	0.89
231.151	0.9
231.533	1.01
231.915	0.97
232.297	1.13
232.679	0.96
233.061	1.01
233.442	1.05
233.824	1.11
234.206	1.18
234.588	0.98
234.969	0.94
235.351	0.99
235.733	1.02
236.114	1.01
236.496	1.03
236.877	1.17
237.259	1.18
237.64	1.12
238.022	1.01
238.403	0.92
238.784	1
239.165	0.94
239.547	1.05
239.928	0.97
240.309	1.04
240.69	0.93
241.071	1.07
241.452	1.19
241.834	0.99
242.215	1.01
242.595	1.07
242.976	1.13
243.357	1.11
243.738	1.1
244.119	1.28
244.5	1.07
244.881	1.17
245.261	1.21
245.642	1.21
246.023	1.24
246.403	1.15
246.784	1.13
247.164	1.22
247.545	1.33
247.925	1.32
248.306	1.23
248.686	1.52
249.067	1.37
249.447	1.27
249.827	1.48
250.207	1.32
250.588	1.29
250.968	1.56
251.348	1.32
251.728	1.47
252.108	1.34
252.488	1.4
252.868	1.39
253.248	1.33
253.628	1.44
254.008	1.48
254.388	1.3
254.768	1.31
255.147	1.34
255.527	1.32
255.907	1.35
256.287	1.33
256.666	1.28
257.046	1.38
257.425	1.49
257.805	1.41
258.184	1.27
258.564	1.35
258.943	1.4
259.323	1.59
259.702	1.58
260.081	1.54
260.461	1.3
260.84	1.51
261.219	1.71
261.598	1.57
261.977	1.39
262.356	1.39
262.736	1.46
263.115	1.5
263.494	1.43
263.873	1.39
264.251	1.47
264.63	1.46
265.009	1.44
265.388	1.35
265.767	1.25
266.145	1.48
266.524	1.42
266.903	1.36
267.281	1.34
267.66	1.49
268.039	1.64
268.417	1.46
268.796	1.35
269.174	1.55
269.552	1.42
269.931	1.62
270.309	1.3
270.687	1.57
271.066	1.74
271.444	1.38
271.822	1.49
272.2	1.41
272.578	1.37
272.956	1.28
273.334	1.42
273.712	1.46
274.09	1.36
274.468	1.42
274.846	1.29
275.224	1.33
275.602	1.38
275.98	1.46
276.357	1.41
276.735	1.48
277.113	1.38
277.49	1.27
277.868	1.3
278.246	1.35
278.623	1.21
279.001	1.28
279.378	1.33
279.756	1.53
280.133	1.63
280.51	1.47
280.888	1.4
281.265	1.46
281.642	1.43
282.019	1.52
282.396	1.62
282.773	1.42
283.151	1.49
283.528	1.55
283.905	1.36
284.282	1.69
284.659	1.53
285.035	1.29
285.412	1.29
285.789	1.43
286.166	1.45
286.543	1.42
286.919	1.41
287.296	1.32
287.673	1.68
288.049	1.43
288.426	1.57
288.802	1.38
289.179	1.35
289.555	1.71
289.932	1.36
290.308	1.37
290.684	1.33
291.061	1.33
291.437	1.52
291.813	1.3
292.189	1.28
292.565	1.42
292.942	1.29
293.318	1.42
293.694	1.45
294.07	1.32
294.446	1.42
294.822	1.65
295.197	1.34
295.573	1.46
295.949	1.4
296.325	1.4
296.701	1.46
297.076	1.45
297.452	1.47
297.828	1.42
298.203	1.66
298.579	1.44
298.954	1.41
299.33	1.41
299.705	1.44
300.081	1.5
300.456	1.42
300.831	1.39
301.206	1.52
301.582	1.44
301.957	1.44
302.332	1.56
302.707	1.46
303.082	1.42
303.457	1.51
303.832	1.44
304.207	1.47
304.582	1.51
304.957	1.52
305.332	1.51
305.707	1.44
306.082	1.47
306.456	1.56
306.831	1.48
307.206	1.4
307.58	1.38
307.955	1.52
308.33	1.42
308.704	1.41
309.079	1.49
309.453	1.8
309.828	1.4
310.202	1.42
310.576	1.41
310.951	1.44
311.325	1.48
311.699	1.45
312.073	1.39
312.447	1.34
312.821	1.38
313.196	1.45
313.57	1.36
313.944	1.41
314.317	1.34
314.691	1.55
315.065	1.51
315.439	1.51
315.813	1.44
316.187	1.46
316.56	1.58
316.934	1.5
317.308	1.47
317.681	1.47
318.055	1.4
318.428	1.42
318.802	1.72
319.175	1.38
319.549	1.44
319.922	1.34
320.295	1.49
320.669	1.51
321.042	1.45
321.415	1.6
321.788	1.48
322.162	1.44
322.535	1.54
322.908	1.45
323.281	1.51
323.654	1.66
324.027	1.52
324.4	1.5
324.773	1.61
325.145	1.4
325.518	1.45
325.891	1.39
326.264	1.58
326.636	1.46
327.009	1.44
327.382	1.45
327.754	1.47
328.127	1.35
328.499	1.47
328.872	1.56
329.244	1.48
329.616	1.38
329.989	1.41
330.361	1.45
330.733	1.38
331.106	1.35
331.478	1.49
331.85	1.38
332.222	1.55
332.594	1.66
332.966	1.47
333.338	1.94
333.71	1.56
334.082	1.71
334.454	1.71
334.826	1.49
335.197	1.56
335.569	1.52
335.941	1.45
336.312	1.49
336.684	1.49
337.056	1.51
337.427	1.46
337.799	1.51
338.17	1.5
338.542	1.42
338.913	1.59
339.284	1.51
339.656	1.56
340.027	1.46
340.398	1.7
340.769	1.51
341.141	1.62
341.512	1.46
341.883	1.46
342.254	1.58
342.625	1.61
342.996	1.42
343.367	1.4
343.738	1.42
344.108	1.55
344.479	1.53
344.85	1.42
345.221	1.58
345.591	1.4
345.962	1.38
346.333	1.37
346.703	1.34
347.074	1.38
347.444	1.34
347.815	1.47
348.185	1.34
348.556	1.45
348.926	1.28
349.296	1.33
349.666	1.35
350.037	1.41
350.407	1.29
350.777	1.34
351.147	1.35
351.517	1.34
351.887	1.34
352.257	1.43
352.627	1.32
352.997	1.24
353.367	1.31
353.737	1.51
354.106	1.48
354.476	1.27
354.846	1.35
355.216	1.38
355.585	1.38
355.955	1.36
356.324	1.37
356.694	1.33
357.063	1.35
357.433	1.25
357.802	1.36
358.171	1.4
358.541	1.3
358.91	1.31
359.279	1.3
359.648	1.2
360.017	1.3
360.387	1.3
360.756	1.27
361.125	1.23
361.494	1.3
361.863	1.28
362.231	1.25
362.6	1.26
362.969	1.3
363.338	1.18
363.707	1.26
364.075	1.23
364.444	1.12
364.813	1.22
365.181	1.22
365.55	1.15
365.918	1.2
366.287	1.24
366.655	1.33
367.024	1.25
367.392	1.24
367.76	1.2
368.128	1.22
368.497	1.19
368.865	1.16
369.233	1.2
369.601	1.22
369.969	1.13
370.337	1.18
370.705	1.2
371.073	1.22
371.441	1.17
371.809	1.2
372.177	1.21
372.544	1.16
372.912	1.2
373.28	1.16
373.647	1.23
374.015	1.26
374.383	1.3
374.75	1.26
375.118	1.21
375.485	1.22
375.853	1.22
376.22	1.19
376.587	1.21
376.955	1.26
377.322	1.23
377.689	1.18
378.056	1.15
378.423	1.19
378.79	1.26
379.157	1.25
379.524	1.22
379.891	1.19
380.258	1.3
380.625	1.17
380.992	1.2
381.359	1.28
381.726	1.33
382.092	1.22
382.459	1.31
382.826	1.28
383.192	1.36
383.559	1.25
383.925	1.34
384.292	1.31
384.658	1.41
385.025	1.24
385.391	1.36
385.757	1.31
386.123	1.43
386.49	1.33
386.856	1.41
387.222	1.35
387.588	1.31
387.954	1.45
388.32	1.46
388.686	1.3
389.052	1.35
389.418	1.41
389.784	1.37
390.15	1.43
390.515	1.33
390.881	1.5
391.247	1.38
391.613	1.43
391.978	1.38
392.344	1.46
392.709	1.34
393.075	1.31
393.44	1.33
393.806	1.48
394.171	1.3
394.536	1.39
394.902	1.45
395.267	1.41
395.632	1.27
395.997	1.29
396.362	1.38
396.727	1.34
397.092	1.27
397.457	1.34
397.822	1.3
398.187	1.26
398.552	1.26
398.917	1.43
399.282	1.26
399.646	1.25
400.011	1.42
400.376	1.23
400.74	1.24
401.105	1.29
401.47	1.27
401.834	1.26
402.199	1.25
402.563	1.24
402.927	1.21
403.292	1.28
403.656	1.26
404.02	1.2
404.384	1.29
404.749	1.24
405.113	1.24
405.477	1.22
405.841	1.2
406.205	1.19
406.569	1.17
406.933	1.12
407.296	1.15
407.66	1.19
408.024	1.18
408.388	1.21
408.752	1.14
409.115	1.18
409.479	1.13
409.842	1.09
410.206	1.12
410.569	1.08
410.933	1.03
411.296	1.04
411.66	1.06
412.023	1.05
412.386	1.07
412.749	1.07
413.113	1.03
413.476	1.03
413.839	1.04
414.202	1.06
414.565	1.02
414.928	1.05
415.291	0.99
415.654	1.03
416.017	1.04
416.38	0.98
416.742	0.99
417.105	1.03
417.468	1.04
417.83	1.02
418.193	0.99
418.556	0.93
418.918	0.96
419.281	0.98
419.643	0.97
420.005	1
420.368	1.01
420.73	0.94
421.092	1.01
421.455	1.02
421.817	0.94
422.179	0.94
422.541	0.97
422.903	0.99
423.265	0.96
423.627	0.94
423.989	0.9
424.351	0.94
424.713	0.93
425.075	0.92
425.436	0.92
425.798	0.93
426.16	0.91
426.521	0.93
426.883	0.92
427.245	0.92
427.606	0.89
427.967	0.89
428.329	0.94
428.69	0.93
429.052	0.9
429.413	0.91
429.774	0.9
430.135	0.88
430.497	0.89
430.858	0.87
431.219	0.88
431.58	0.88
431.941	0.84
432.302	0.91
432.663	0.89
433.024	0.93
433.384	0.87
433.745	0.87
434.106	0.88
434.467	0.89
434.827	0.88
435.188	0.86
435.548	0.88
435.909	0.83
436.269	0.88
436.63	0.8
436.99	0.82
437.351	0.83
437.711	0.83
438.071	0.85
438.431	0.83
438.792	0.83
439.152	0.81
439.512	0.83
439.872	0.81
440.232	0.81
440.592	0.8
440.952	0.8
441.312	0.78
441.671	0.77
442.031	0.78
442.391	0.77
442.751	0.79
443.11	0.77
443.47	0.76
443.83	0.74
444.189	0.75
444.549	0.75
444.908	0.76
445.267	0.74
445.627	0.74
445.986	0.73
446.345	0.72
446.705	0.73
447.064	0.71
447.423	0.72
447.782	0.72
448.141	0.71
448.5	0.69
448.859	0.72
449.218	0.7
449.577	0.71
449.936	0.7
450.295	0.69
450.653	0.68
451.012	0.68
451.371	0.7
451.729	0.68
452.088	0.69
452.447	0.67
452.805	0.66
453.163	0.66
453.522	0.66
453.88	0.66
454.239	0.64
454.597	0.63
454.955	0.62
455.313	0.63
455.671	0.62
456.029	0.61
456.388	0.61
456.746	0.61
457.104	0.6
457.461	0.59
457.819	0.58
458.177	0.57
458.535	0.56
458.893	0.57
459.25	0.56
459.608	0.56
459.966	0.55
460.323	0.54
460.681	0.53
461.038	0.54
461.396	0.52
461.753	0.51
462.111	0.52
462.468	0.51
462.825	0.49
463.182	0.49
463.54	0.48
463.897	0.5
464.254	0.49
464.611	0.48
464.968	0.48
465.325	0.47
465.682	0.46
466.039	0.46
466.395	0.45
466.752	0.45
467.109	0.44
467.466	0.45
467.822	0.44
468.179	0.43
468.535	0.42
468.892	0.42
469.248	0.41
469.605	0.4
469.961	0.42
470.318	0.41
470.674	0.4
471.03	0.39
471.386	0.39
471.743	0.37
472.099	0.37
472.455	0.37
472.811	0.37
473.167	0.37
473.523	0.36
473.879	0.36
474.235	0.35
474.59	0.33
474.946	0.33
475.302	0.33
475.657	0.33
476.013	0.33
476.369	0.32
476.724	0.31
477.08	0.32
477.435	0.31
477.791	0.31
478.146	0.31
478.501	0.31
478.857	0.3
479.212	0.3
479.567	0.29
479.922	0.28
480.277	0.28
480.632	0.28
480.987	0.28
481.342	0.27
481.697	0.26
482.052	0.26
482.407	0.26
482.762	0.26
483.116	0.25
483.471	0.25
483.826	0.24
484.18	0.25
484.535	0.24
484.89	0.24
485.244	0.24
485.598	0.24
485.953	0.24
486.307	0.23
486.661	0.24
487.016	0.22
487.37	0.23
487.724	0.22
488.078	0.22
488.432	0.22
488.786	0.22
489.14	0.22
489.494	0.21
489.848	0.21
490.202	0.21
490.556	0.21
490.91	0.2
491.263	0.2
491.617	0.2
491.971	0.2
492.324	0.2
492.678	0.19
493.031	0.2
493.385	0.19
493.738	0.2
494.091	0.19
494.445	0.19
494.798	0.19
495.151	0.18
495.504	0.18
495.857	0.19
496.21	0.19
496.564	0.18
496.916	0.18
497.269	0.17
497.622	0.18
497.975	0.18
498.328	0.18
498.681	0.17
499.033	0.18
499.386	0.17
499.739	0.17
500.091	0.17
500.444	0.16
500.796	0.17
501.149	0.17
501.501	0.17
501.854	0.17
502.206	0.16
502.558	0.17
502.91	0.16
503.263	0.16
503.615	0.17
503.967	0.16
504.319	0.16
504.671	0.15
505.023	0.15
505.375	0.15
505.726	0.16
506.078	0.16
506.43	0.15
506.782	0.15
507.133	0.15
507.485	0.16
507.837	0.16
508.188	0.16
508.54	0.15
508.891	0.17
509.243	0.15
509.594	0.15
509.945	0.15
510.296	0.16
510.648	0.16
510.999	0.15
511.35	0.15
511.701	0.15
512.052	0.15
512.403	0.16
512.754	0.15
513.105	0.15
513.456	0.15
513.807	0.14
514.157	0.15
514.508	0.15
514.859	0.15
515.209	0.15
515.56	0.15
515.91	0.15
516.261	0.16
516.611	0.15
516.962	0.15
517.312	0.15
517.662	0.15
518.013	0.15
518.363	0.15
518.713	0.15
519.063	0.15
519.413	0.15
519.763	0.15
520.113	0.15
520.463	0.15
520.813	0.16
521.163	0.16
521.512	0.15
521.862	0.16
522.212	0.15
522.562	0.16
522.911	0.15
523.261	0.15
523.61	0.15
523.96	0.15
524.309	0.16
524.658	0.16
525.008	0.15
525.357	0.15
525.706	0.15
526.056	0.16
526.405	0.15
526.754	0.15
527.103	0.15
527.452	0.15
527.801	0.16
528.15	0.16
528.499	0.15
528.847	0.16
529.196	0.16
529.545	0.16
529.893	0.16
530.242	0.16
530.591	0.16
530.939	0.16
531.288	0.16
531.636	0.16
531.985	0.16
532.333	0.16
532.681	0.16
533.029	0.16
533.378	0.17
533.726	0.16
534.074	0.16
534.422	0.16
534.77	0.16
535.118	0.17
535.466	0.16
535.814	0.16
536.162	0.17
536.509	0.16
536.857	0.16
537.205	0.16
537.552	0.17
537.9	0.17
538.248	0.16
538.595	0.16
538.943	0.16
539.29	0.16
539.637	0.16
539.985	0.16
540.332	0.16
540.679	0.16
541.026	0.16
541.373	0.16
541.721	0.16
542.068	0.16
542.415	0.17
542.762	0.16
543.108	0.15
543.455	0.15
543.802	0.15
544.149	0.15
544.496	0.16
544.842	0.16
545.189	0.14
545.535	0.15
545.882	0.16
546.228	0.15
546.575	0.16
546.921	0.15
547.267	0.15
547.614	0.16
547.96	0.16
548.306	0.16
548.652	0.16
548.998	0.16
549.344	0.16
549.69	0.16
550.036	0.16
550.382	0.16
550.728	0.16
551.074	0.15
551.42	0.16
551.765	0.16
552.111	0.17
552.457	0.17
552.802	0.15
553.148	0.15
553.493	0.15
553.839	0.16
554.184	0.15
554.529	0.15
554.875	0.16
555.22	0.16
555.565	0.16
555.91	0.17
556.255	0.16
556.6	0.16
556.945	0.16
557.29	0.17
557.635	0.16
557.98	0.16
558.325	0.16
558.67	0.16
559.014	0.16
559.359	0.17
559.704	0.17
560.048	0.16
560.393	0.16
560.737	0.16
561.082	0.16
561.426	0.16
561.77	0.16
562.115	0.16
562.459	0.16
562.803	0.17
563.147	0.17
563.491	0.16
563.835	0.16
564.179	0.17
564.523	0.16
564.867	0.16
565.211	0.16
565.555	0.16
565.899	0.16
566.242	0.17
566.586	0.15
566.93	0.16
567.273	0.17
567.617	0.17
567.96	0.16
568.304	0.17
568.647	0.16
568.99	0.16
569.334	0.18
569.677	0.17
570.02	0.17
570.363	0.17
570.706	0.16
571.049	0.16
571.392	0.17
571.735	0.16
572.078	0.16
572.421	0.18
572.764	0.17
573.106	0.17
573.449	0.16
573.792	0.16
574.134	0.16
574.477	0.17
574.819	0.16
575.162	0.15
575.504	0.16
575.847	0.17
576.189	0.17
576.531	0.16
576.873	0.17
577.215	0.17
577.558	0.16
577.9	0.16
578.242	0.17
578.584	0.17
578.926	0.17
579.267	0.17
579.609	0.17
579.951	0.17
580.293	0.17
580.634	0.17
580.976	0.17
581.318	0.17
581.659	0.16
582.001	0.16
582.342	0.16
582.683	0.16
583.025	0.16
583.366	0.16
583.707	0.16
584.049	0.16
584.39	0.16
584.731	0.16
585.072	0.15
585.413	0.17
585.754	0.16
586.095	0.17
586.435	0.16
586.776	0.17
587.117	0.16
587.458	0.16
587.798	0.17
588.139	0.16
588.48	0.16
588.82	0.16
589.161	0.16
589.501	0.16
589.841	0.17
590.182	0.16
590.522	0.16
590.862	0.16
591.202	0.16
591.542	0.16
591.882	0.17
592.222	0.16
592.562	0.16
592.902	0.16
593.242	0.16
593.582	0.16
593.922	0.16
594.261	0.16
594.601	0.17
594.941	0.16
595.28	0.17
595.62	0.16
595.959	0.15
596.299	0.16
596.638	0.15
596.977	0.16
597.317	0.17
597.656	0.17
597.995	0.17
598.334	0.17
598.673	0.17
599.012	0.16
599.351	0.17
599.69	0.16
600.029	0.17
600.368	0.17
600.707	0.16
601.046	0.16
601.384	0.16
601.723	0.16
602.061	0.16
602.4	0.17
602.738	0.17
603.077	0.16
603.415	0.16
603.754	0.16
604.092	0.17
604.43	0.16
604.768	0.16
605.107	0.16
605.445	0.16
605.783	0.15
606.121	0.15
606.459	0.16
606.796	0.16
607.134	0.15
607.472	0.15
607.81	0.16
608.148	0.16
608.485	0.16
608.823	0.16
609.16	0.15
609.498	0.16
609.835	0.15
610.173	0.15
610.51	0.16
610.847	0.16
611.185	0.16
611.522	0.17
611.859	0.18
612.196	0.17
612.533	0.17
612.87	0.17
613.207	0.17
613.544	0.16
613.881	0.17
614.217	0.17
614.554	0.16
614.891	0.17
615.228	0.17
615.564	0.16
615.901	0.17
616.237	0.17
616.574	0.16
616.91	0.17
617.246	0.16
617.583	0.16
617.919	0.17
618.255	0.17
618.591	0.16
618.927	0.17
619.263	0.18
619.599	0.17
619.935	0.17
620.271	0.17
620.607	0.16
620.943	0.17
621.279	0.17
621.614	0.17
621.95	0.17
622.286	0.16
622.621	0.16
622.957	0.16
623.292	0.15
623.627	0.16
623.963	0.16
624.298	0.16
624.633	0.15
624.968	0.15
625.304	0.15
625.639	0.15
625.974	0.15
626.309	0.15
626.644	0.15
626.979	0.16
627.313	0.15
627.648	0.15
627.983	0.15
628.318	0.15
628.652	0.14
628.987	0.15
629.321	0.15
629.656	0.15
629.99	0.14
630.325	0.14
630.659	0.15
630.993	0.14
631.327	0.15
631.662	0.14
631.996	0.15
632.33	0.15
632.664	0.15
632.998	0.14
633.332	0.15
633.666	0.14
633.999	0.15
634.333	0.14
634.667	0.15
635.001	0.14
635.334	0.14
635.668	0.14
636.001	0.15
636.335	0.14
636.668	0.14
637.001	0.14
637.335	0.14
637.668	0.14
638.001	0.14
638.334	0.14
638.668	0.14
639.001	0.14
639.334	0.14
639.667	0.14
639.999	0.13
640.332	0.13
640.665	0.14
640.998	0.14
641.331	0.14
641.663	0.13
641.996	0.13
642.328	0.13
642.661	0.14
642.993	0.13
643.326	0.14
643.658	0.13
643.99	0.12
644.323	0.13
644.655	0.14
644.987	0.13
645.319	0.14
645.651	0.14
645.983	0.13
646.315	0.12
646.647	0.14
646.979	0.14
647.31	0.13
647.642	0.13
647.974	0.13
648.305	0.14
648.637	0.14
648.968	0.14
649.3	0.14
649.631	0.13
649.963	0.13
650.294	0.14
650.625	0.13
650.957	0.14
651.288	0.14
651.619	0.14
651.95	0.14
652.281	0.14
652.612	0.13
652.943	0.14
653.274	0.14
653.604	0.13
653.935	0.13
654.266	0.14
654.596	0.13
654.927	0.14
655.258	0.13
655.588	0.14
655.918	0.14
656.249	0.12
656.579	0.13
656.909	0.13
657.24	0.12
657.57	0.14
657.9	0.13
658.23	0.13
658.56	0.14
658.89	0.14
659.22	0.14
659.55	0.14
659.88	0.14
660.209	0.14
660.539	0.15
660.869	0.14
661.198	0.14
661.528	0.14
661.857	0.14
662.187	0.14
662.516	0.14
662.846	0.13
663.175	0.13
663.504	0.13
663.833	0.14
664.163	0.14
664.492	0.13
664.821	0.14
665.15	0.13
665.479	0.13
665.807	0.13
666.136	0.14
666.465	0.13
666.794	0.13
667.122	0.13
667.451	0.13
667.78	0.13
668.108	0.13
668.437	0.13
668.765	0.13
669.093	0.12
669.422	0.13
669.75	0.13
670.078	0.13
670.406	0.13
670.734	0.12
671.062	0.12
671.39	0.13
671.718	0.13
672.046	0.13
672.374	0.12
672.702	0.12
673.029	0.12
673.357	0.13
673.685	0.13
674.012	0.12
674.34	0.12
674.667	0.13
674.995	0.12
675.322	0.13
675.649	0.12
675.977	0.12
676.304	0.13
676.631	0.12
676.958	0.12
677.285	0.12
677.612	0.12
677.939	0.13
678.266	0.13
678.593	0.13
678.92	0.13
679.246	0.12
679.573	0.12
679.9	0.12
680.226	0.12
680.553	0.12
680.879	0.12
681.206	0.12
681.532	0.12
681.858	0.12
682.184	0.12
682.511	0.12
682.837	0.12
683.163	0.12
683.489	0.11
683.815	0.11
684.141	0.11
684.467	0.11
684.793	0.11
685.118	0.11
685.444	0.11
685.77	0.11
686.095	0.11
686.421	0.12
686.746	0.11
687.072	0.12
687.397	0.11
687.723	0.12
688.048	0.12
688.373	0.12
688.698	0.12
689.023	0.12
689.349	0.12
689.674	0.12
689.999	0.12
690.323	0.11
690.648	0.11
690.973	0.11
691.298	0.11
691.623	0.11
691.947	0.11
692.272	0.11
692.596	0.11
692.921	0.11
693.245	0.11
693.57	0.11
693.894	0.12
694.218	0.11
694.543	0.11
694.867	0.11
695.191	0.1
695.515	0.1
695.839	0.1
696.163	0.11
696.487	0.11
696.811	0.11
697.135	0.11
697.458	0.11
697.782	0.1
698.106	0.1
698.429	0.12
698.753	0.1
699.076	0.1
699.4	0.1
699.723	0.11
700.046	0.11
700.37	0.1
700.693	0.1
701.016	0.11
701.339	0.1
701.662	0.11
701.985	0.1
702.308	0.1
702.631	0.1
702.954	0.1
703.277	0.11
703.599	0.1
703.922	0.09
704.245	0.1
704.567	0.1
704.89	0.1
705.212	0.1
705.535	0.09
705.857	0.1
706.179	0.08
706.502	0.09
706.824	0.09
707.146	0.09
707.468	0.09
707.79	0.09
708.112	0.09
708.434	0.09
708.756	0.09
709.078	0.09
709.399	0.09
709.721	0.09
710.043	0.1
710.364	0.09
710.686	0.1
711.007	0.09
711.329	0.1
711.65	0.1
711.972	0.1
712.293	0.1
712.614	0.1
712.935	0.1
713.256	0.1
713.577	0.1
713.898	0.09
714.219	0.09
714.54	0.09
714.861	0.09
715.182	0.09
715.503	0.09
715.823	0.09
716.144	0.09
716.464	0.08
716.785	0.08
717.105	0.09
717.426	0.09
717.746	0.08
718.066	0.08
718.387	0.09
718.707	0.08
719.027	0.08
719.347	0.07
719.667	0.08
719.987	0.08
720.307	0.08
720.627	0.08
720.947	0.08
721.266	0.08
721.586	0.07
721.906	0.07
722.225	0.08
722.545	0.08
722.864	0.08
723.184	0.08
723.503	0.08
723.823	0.08
724.142	0.07
724.461	0.08
724.78	0.08
725.099	0.08
725.418	0.07
725.737	0.08
726.056	0.08
726.375	0.08
726.694	0.08
727.013	0.07
727.331	0.07
727.65	0.07
727.969	0.08
728.287	0.08
728.606	0.08
728.924	0.07
729.242	0.08
729.561	0.08
729.879	0.08
730.197	0.08
730.515	0.07
730.834	0.08
731.152	0.08
731.47	0.08
731.788	0.08
732.105	0.07
732.423	0.08
732.741	0.07
733.059	0.08
733.376	0.08
733.694	0.08
734.012	0.08
734.329	0.07
734.647	0.07
734.964	0.08
735.281	0.08
735.599	0.08
735.916	0.08
736.233	0.08
736.55	0.07
736.867	0.08
737.184	0.08
737.501	0.08
737.818	0.08
738.135	0.08
738.452	0.07
738.768	0.08
739.085	0.07
739.402	0.06
739.718	0.06
740.035	0.07
740.351	0.08
740.668	0.08
740.984	0.07
741.3	0.07
741.617	0.07
741.933	0.07
742.249	0.08
742.565	0.08
742.881	0.08
743.197	0.08
743.513	0.07
743.829	0.07
744.144	0.07
744.46	0.06
744.776	0.08
745.091	0.07
745.407	0.07
745.722	0.07
746.038	0.07
746.353	0.06
746.669	0.07
746.984	0.06
747.299	0.07
747.614	0.07
747.93	0.07
748.245	0.06
748.56	0.06
748.875	0.06
749.189	0.07
749.504	0.06
749.819	0.07
750.134	0.07
750.448	0.07
750.763	0.07
751.078	0.06
751.392	0.06
751.707	0.07
752.021	0.07
752.335	0.08
752.65	0.07
752.964	0.07
753.278	0.07
753.592	0.07
753.906	0.06
754.22	0.07
754.534	0.06
754.848	0.07
755.162	0.07
755.476	0.07
755.789	0.07
756.103	0.07
756.417	0.07
756.73	0.07
757.044	0.07
757.357	0.07
757.671	0.08
757.984	0.07
758.297	0.07
758.61	0.07
758.924	0.07
759.237	0.06
759.55	0.07
759.863	0.07
760.176	0.06
760.488	0.07
760.801	0.07
761.114	0.07
761.427	0.06
761.739	0.07
762.052	0.06
762.365	0.06
762.677	0.06
762.99	0.06
763.302	0.06
763.614	0.07
763.926	0.07
764.239	0.06
764.551	0.06
764.863	0.06
765.175	0.07
765.487	0.06
765.799	0.06
766.111	0.06
766.423	0.06
766.734	0.06
767.046	0.06
767.358	0.06
767.669	0.06
767.981	0.06
768.292	0.06
768.604	0.06
768.915	0.06
769.226	0.06
769.537	0.05
769.849	0.06
770.16	0.06
770.471	0.05
770.782	0.06
771.093	0.05
771.404	0.04
771.715	0.05
772.025	0.05
772.336	0.05
772.647	0.04
772.957	0.05
773.268	0.06
773.578	0.05
773.889	0.06
774.199	0.06
774.51	0.05
774.82	0.05
775.13	0.06
775.44	0.05
775.75	0.06
776.06	0.06
776.37	0.05
776.68	0.07
776.99	0.06
777.3	0.05
777.61	0.06
777.92	0.05
778.229	0.05
778.539	0.05
778.848	0.05
779.158	0.06
779.467	0.06
779.777	0.06
780.086	0.06
780.395	0.05
780.704	0.05
781.013	0.05
781.323	0.04
781.632	0.06
781.941	0.05
782.249	0.05
782.558	0.05
782.867	0.05
783.176	0.05
783.485	0.05
783.793	0.06
784.102	0.05
784.41	0.05
784.719	0.05
785.027	0.05
785.335	0.05
785.644	0.05
785.952	0.05
786.26	0.05
786.568	0.04
786.876	0.05
787.184	0.05
787.492	0.05
787.8	0.06
788.108	0.05
788.416	0.05
788.723	0.05
789.031	0.04
789.338	0.04
789.646	0.05
789.953	0.05
790.261	0.06
790.568	0.06
790.876	0.05
791.183	0.06
791.49	0.05
791.797	0.05
792.104	0.05
792.411	0.06
792.718	0.05
793.025	0.05
793.332	0.05
793.639	0.06
793.945	0.07
794.252	0.06
794.559	0.06
794.865	0.06
795.172	0.05
795.478	0.06
795.784	0.07
796.091	0.05
796.397	0.06
796.703	0.06
797.009	0.07
797.315	0.06
797.622	0.06
797.927	0.06
798.233	0.05
798.539	0.06
798.845	0.06
799.151	0.06
799.456	0.06
799.762	0.06
800.068	0.06
800.373	0.07
800.679	0.06
800.984	0.06
801.289	0.05
801.595	0.06
801.9	0.06
802.205	0.06
802.51	0.05
802.815	0.05
803.12	0.06
803.425	0.05
803.73	0.05
804.035	0.06
804.339	0.05
804.644	0.05
804.949	0.05
805.253	0.05
805.558	0.05
805.862	0.05
806.167	0.05
806.471	0.05
806.775	0.05
807.08	0.04
807.384	0.05
807.688	0.05
807.992	0.05
808.296	0.05
808.6	0.05
808.904	0.06
809.207	0.05
809.511	0.06
809.815	0.06
810.119	0.06
810.422	0.06
810.726	0.07
811.029	0.07
811.332	0.07
811.636	0.07
811.939	0.06
812.242	0.07
812.546	0.07
812.849	0.07
813.152	0.08
813.455	0.07
813.758	0.07
814.06	0.07
814.363	0.06
814.666	0.07
814.969	0.06
815.271	0.06
815.574	0.06
815.877	0.06
816.179	0.06
816.481	0.06
816.784	0.06
817.086	0.05
817.388	0.04
817.69	0.05
817.993	0.05
818.295	0.05
818.597	0.05
818.899	0.04
819.2	0.04
819.502	0.04
819.804	0.05
820.106	0.05
820.407	0.04
820.709	0.05
821.01	0.05
821.312	0.05
821.613	0.04
821.915	0.04
822.216	0.04
822.517	0.04
822.818	0.04
823.119	0.04
823.42	0.05
823.721	0.03
824.022	0.04
824.323	0.04
824.624	0.03
824.925	0.04
825.226	0.05
825.526	0.03
825.827	0.04
826.127	0.04
826.428	0.05
826.728	0.04
827.028	0.04
827.329	0.04
827.629	0.03
827.929	0.04
828.229	0.04
828.529	0.05
828.829	0.04
829.129	0.04
829.429	0.04
829.729	0.03
830.029	0.04
830.328	0.04
830.628	0.03
830.927	0.03
831.227	0.02
831.526	0.03
831.826	0.03
832.125	0.03
832.424	0.02
832.724	0.04
833.023	0.03
833.322	0.03
833.621	0.02
833.92	0.02
834.219	0.03
834.518	0.03
834.816	0.02
835.115	0.02
835.414	0.02
835.712	0.02
836.011	0.02
836.309	0.01
836.608	0.01
836.906	0.01
837.205	0
837.503	0.01
837.801	0
838.099	0
838.397	-0.01
838.695	0
838.993	0
839.291	-0.01
839.589	0
839.887	-0
840.184	-0.01
840.482	-0.01
840.78	-0
841.077	-0.01
841.375	-0.01
841.672	-0
841.969	-0
842.267	-0
842.564	-0.01
842.861	-0
843.158	-0.01
843.455	-0.03
843.752	-0.02
844.049	-0.02
844.346	-0.02
844.643	-0.03
844.94	-0.03
845.236	-0.01
845.533	-0.02
845.83	-0.03
846.126	-0.03
846.423	-0.03
846.719	-0.04
847.015	-0.04
847.312	-0.03
847.608	-0.04
847.904	-0.04
848.2	-0.05
848.496	-0.04
848.792	-0.03
849.088	-0.03
849.384	-0.04
849.68	-0.05
849.975	-0.04
850.271	-0.05
850.567	-0.05
850.862	-0.05
851.158	-0.05
851.453	-0.05
851.748	-0.05
852.044	-0.05
852.339	-0.05
852.634	-0.07
852.929	-0.05
853.224	-0.07
853.519	-0.06
853.814	-0.06
854.109	-0.07
854.404	-0.07
854.699	-0.07
854.994	-0.07
855.288	-0.07
855.583	-0.06
855.877	-0.08
856.172	-0.07
856.466	-0.07
856.76	-0.08
857.055	-0.08
857.349	-0.09
857.643	-0.09
857.937	-0.1
858.231	-0.09
858.525	-0.1
858.819	-0.09
859.113	-0.11
859.407	-0.11
859.701	-0.1
859.994	-0.11
860.288	-0.09
860.581	-0.1
860.875	-0.1
861.168	-0.1
861.462	-0.1
861.755	-0.1
862.048	-0.11
862.341	-0.1
862.634	-0.11
862.928	-0.1
863.221	-0.11
863.513	-0.11
863.806	-0.11
864.099	-0.11
864.392	-0.12
864.685	-0.11
864.977	-0.11
865.27	-0.11
865.562	-0.12
865.855	-0.11
866.147	-0.11
866.44	-0.11
866.732	-0.11
867.024	-0.12
867.316	-0.12
867.608	-0.13
867.9	-0.12
868.192	-0.12
868.484	-0.13
868.776	-0.14
869.068	-0.14
869.359	-0.13
869.651	-0.14
869.943	-0.15
870.234	-0.15
870.526	-0.14
870.817	-0.15
871.108	-0.14
871.4	-0.14
871.691	-0.14
871.982	-0.15
872.273	-0.17
872.564	-0.15
872.855	-0.16
873.146	-0.16
873.437	-0.17
873.728	-0.18
874.019	-0.16
874.309	-0.17
874.6	-0.16
874.89	-0.17
875.181	-0.17
875.471	-0.17
875.762	-0.16
876.052	-0.16
876.342	-0.15
876.632	-0.16
876.922	-0.17
877.213	-0.16
877.503	-0.19
877.792	-0.17
878.082	-0.17
878.372	-0.16
878.662	-0.18
878.952	-0.17
879.241	-0.17
879.531	-0.15
879.82	-0.16
880.11	-0.16
880.399	-0.16
880.688	-0.15
880.978	-0.15
881.267	-0.15
