Data from 12-12-AQDScycling_Absorbance__968__00968.txt Node

Date: Tue Dec 12 14:58:44 EST 2023
User: kyuminlee
Spectrometer: FLMS00943
Trigger mode: 0
Integration Time (sec): 1.000000E-1
Scans to average: 1
Electric dark correction enabled: true
Nonlinearity correction enabled: false
Boxcar width: 0
XAxis mode: Wavelengths
Number of Pixels in Spectrum: 2048
>>>>>Begin Spectral Data<<<<<
179.651	0.47
180.037	0.47
180.424	0.47
180.81	0.29
181.197	0.25
181.583	-0
181.97	-0.13
182.356	-0
182.743	-0
183.129	-0
183.515	0.41
183.901	-2.06
184.288	1.02
184.674	0.53
185.06	-0.69
185.446	-0
185.832	-1.06
186.218	-0.03
186.604	-0.36
186.99	0.5
187.376	-0
187.762	-0.11
188.148	0.86
188.534	-0.05
188.92	0.11
189.305	0
189.691	0.25
190.077	0.15
190.463	0.1
190.848	0.11
191.234	0.06
191.619	0.26
192.005	0.26
192.391	0.13
192.776	0.15
193.161	0.13
193.547	0.15
193.932	0.15
194.318	0.06
194.703	0.12
195.088	0.36
195.473	0.22
195.859	0.17
196.244	0.16
196.629	0.08
197.014	0.2
197.399	0.16
197.784	0.31
198.169	0.22
198.554	0.28
198.939	0.09
199.324	0.1
199.709	0.2
200.094	0.13
200.478	0.06
200.863	0.2
201.248	0.15
201.633	0.12
202.017	0.04
202.402	0.26
202.787	0.11
203.171	0.15
203.556	0.23
203.94	0.05
204.325	0.27
204.709	0.11
205.093	0.12
205.478	0.2
205.862	0.14
206.246	0.15
206.631	0.09
207.015	-0.02
207.399	0.22
207.783	0.06
208.167	0.21
208.551	0.26
208.935	0.18
209.319	0.1
209.703	0.24
210.087	0.26
210.471	-0.01
210.855	0.09
211.239	0.21
211.623	0.22
212.007	0.37
212.39	0.31
212.774	0.11
213.158	0.22
213.541	0.19
213.925	0.3
214.309	0.23
214.692	0.29
215.076	0.18
215.459	0.18
215.842	0.03
216.226	0.28
216.609	0.29
216.993	0.2
217.376	0.5
217.759	0.23
218.142	0.39
218.525	0.52
218.909	0.42
219.292	0.29
219.675	0.68
220.058	0.45
220.441	0.63
220.824	0.47
221.207	0.61
221.59	0.62
221.973	0.53
222.355	0.58
222.738	0.7
223.121	0.59
223.504	0.61
223.886	0.71
224.269	0.73
224.652	0.62
225.034	0.73
225.417	0.76
225.799	0.91
226.182	0.82
226.564	0.83
226.947	0.83
227.329	0.96
227.711	0.78
228.094	0.86
228.476	1.05
228.858	0.79
229.24	0.88
229.623	0.87
230.005	0.81
230.387	0.94
230.769	0.8
231.151	0.95
231.533	0.92
231.915	0.94
232.297	0.98
232.679	0.93
233.061	1
233.442	1.14
233.824	0.97
234.206	1.19
234.588	1.09
234.969	1.11
235.351	0.99
235.733	0.99
236.114	1.05
236.496	1.08
236.877	1.29
237.259	1.2
237.64	1.03
238.022	1.08
238.403	0.94
238.784	1.01
239.165	0.99
239.547	1.26
239.928	1.11
240.309	1.04
240.69	1.07
241.071	1.17
241.452	1.14
241.834	1.08
242.215	1.08
242.595	1.03
242.976	1.07
243.357	1.06
243.738	1.1
244.119	1.34
244.5	1.16
244.881	1.33
245.261	1.22
245.642	1.18
246.023	1.2
246.403	1.24
246.784	1.17
247.164	1.19
247.545	1.25
247.925	1.23
248.306	1.2
248.686	1.23
249.067	1.32
249.447	1.43
249.827	1.52
250.207	1.37
250.588	1.33
250.968	1.3
251.348	1.39
251.728	1.41
252.108	1.43
252.488	1.26
252.868	1.43
253.248	1.34
253.628	1.37
254.008	1.5
254.388	1.37
254.768	1.36
255.147	1.54
255.527	1.4
255.907	1.23
256.287	1.42
256.666	1.54
257.046	1.42
257.425	1.52
257.805	1.34
258.184	1.35
258.564	1.39
258.943	1.38
259.323	1.63
259.702	1.45
260.081	1.48
260.461	1.5
260.84	1.42
261.219	1.68
261.598	1.45
261.977	1.51
262.356	1.5
262.736	1.61
263.115	1.52
263.494	1.46
263.873	1.4
264.251	1.47
264.63	1.72
265.009	1.43
265.388	1.51
265.767	1.45
266.145	1.4
266.524	1.38
266.903	1.36
267.281	1.38
267.66	1.4
268.039	1.39
268.417	1.33
268.796	1.3
269.174	1.45
269.552	1.37
269.931	1.42
270.309	1.44
270.687	1.75
271.066	1.5
271.444	1.41
271.822	1.66
272.2	1.38
272.578	1.5
272.956	1.58
273.334	1.38
273.712	1.53
274.09	1.57
274.468	1.43
274.846	1.3
275.224	1.32
275.602	1.69
275.98	1.49
276.357	1.31
276.735	1.64
277.113	1.43
277.49	1.35
277.868	1.33
278.246	1.36
278.623	1.32
279.001	1.26
279.378	1.44
279.756	1.43
280.133	1.65
280.51	1.47
280.888	1.44
281.265	1.35
281.642	1.56
282.019	1.55
282.396	1.51
282.773	1.49
283.151	1.47
283.528	1.59
283.905	1.43
284.282	1.56
284.659	1.52
285.035	1.38
285.412	1.36
285.789	1.6
286.166	1.45
286.543	1.48
286.919	1.5
287.296	1.33
287.673	1.68
288.049	1.58
288.426	1.5
288.802	1.5
289.179	1.49
289.555	1.61
289.932	1.47
290.308	1.4
290.684	1.32
291.061	1.35
291.437	1.57
291.813	1.42
292.189	1.29
292.565	1.35
292.942	1.27
293.318	1.42
293.694	1.57
294.07	1.33
294.446	1.48
294.822	1.5
295.197	1.51
295.573	1.45
295.949	1.5
296.325	1.58
296.701	1.52
297.076	1.61
297.452	1.62
297.828	1.49
298.203	1.77
298.579	1.48
298.954	1.35
299.33	1.43
299.705	1.4
300.081	1.79
300.456	1.44
300.831	1.43
301.206	1.43
301.582	1.63
301.957	1.47
302.332	1.66
302.707	1.4
303.082	1.46
303.457	1.58
303.832	1.59
304.207	1.46
304.582	1.48
304.957	1.5
305.332	1.59
305.707	1.42
306.082	1.62
306.456	1.69
306.831	1.56
307.206	1.57
307.58	1.64
307.955	1.41
308.33	1.53
308.704	1.46
309.079	1.45
309.453	1.68
309.828	1.49
310.202	1.63
310.576	1.47
310.951	1.61
311.325	1.51
311.699	1.51
312.073	1.41
312.447	1.48
312.821	1.4
313.196	1.52
313.57	1.42
313.944	1.57
314.317	1.33
314.691	1.6
315.065	1.51
315.439	1.63
315.813	1.59
316.187	1.49
316.56	1.79
316.934	1.63
317.308	1.53
317.681	1.55
318.055	1.53
318.428	1.53
318.802	1.53
319.175	1.55
319.549	1.51
319.922	1.31
320.295	1.41
320.669	1.7
321.042	1.54
321.415	1.66
321.788	1.47
322.162	1.46
322.535	1.59
322.908	1.56
323.281	1.51
323.654	1.62
324.027	1.59
324.4	1.77
324.773	1.6
325.145	1.47
325.518	1.47
325.891	1.51
326.264	1.7
326.636	1.4
327.009	1.52
327.382	1.57
327.754	1.62
328.127	1.43
328.499	1.65
328.872	1.57
329.244	1.43
329.616	1.53
329.989	1.51
330.361	1.59
330.733	1.45
331.106	1.57
331.478	1.53
331.85	1.44
332.222	1.39
332.594	1.66
332.966	1.57
333.338	1.61
333.71	1.6
334.082	1.59
334.454	1.37
334.826	1.53
335.197	1.64
335.569	1.52
335.941	1.3
336.312	1.4
336.684	1.39
337.056	1.35
337.427	1.77
337.799	1.61
338.17	1.48
338.542	1.51
338.913	1.63
339.284	1.65
339.656	1.52
340.027	1.6
340.398	1.69
340.769	1.52
341.141	1.82
341.512	1.52
341.883	1.6
342.254	1.72
342.625	1.57
342.996	1.58
343.367	1.43
343.738	1.48
344.108	1.47
344.479	1.65
344.85	1.38
345.221	1.65
345.591	1.41
345.962	1.39
346.333	1.53
346.703	1.29
347.074	1.42
347.444	1.39
347.815	1.52
348.185	1.48
348.556	1.38
348.926	1.33
349.296	1.46
349.666	1.45
350.037	1.39
350.407	1.28
350.777	1.27
351.147	1.47
351.517	1.34
351.887	1.32
352.257	1.39
352.627	1.39
352.997	1.37
353.367	1.38
353.737	1.43
354.106	1.66
354.476	1.33
354.846	1.37
355.216	1.34
355.585	1.4
355.955	1.44
356.324	1.44
356.694	1.34
357.063	1.36
357.433	1.23
357.802	1.3
358.171	1.33
358.541	1.27
358.91	1.25
359.279	1.25
359.648	1.24
360.017	1.23
360.387	1.19
360.756	1.1
361.125	1.14
361.494	1.16
361.863	1.1
362.231	1.08
362.6	1.06
362.969	1.08
363.338	1.01
363.707	1.05
364.075	1.03
364.444	0.94
364.813	1.01
365.181	0.93
365.55	0.94
365.918	0.97
366.287	0.92
366.655	0.94
367.024	0.9
367.392	0.9
367.76	0.87
368.128	0.86
368.497	0.87
368.865	0.86
369.233	0.82
369.601	0.81
369.969	0.8
370.337	0.81
370.705	0.79
371.073	0.79
371.441	0.77
371.809	0.74
372.177	0.77
372.544	0.76
372.912	0.75
373.28	0.77
373.647	0.75
374.015	0.74
374.383	0.74
374.75	0.73
375.118	0.74
375.485	0.74
375.853	0.71
376.22	0.7
376.587	0.7
376.955	0.72
377.322	0.72
377.689	0.7
378.056	0.67
378.423	0.68
378.79	0.68
379.157	0.7
379.524	0.68
379.891	0.68
380.258	0.69
380.625	0.67
380.992	0.67
381.359	0.67
381.726	0.69
382.092	0.64
382.459	0.66
382.826	0.66
383.192	0.68
383.559	0.68
383.925	0.68
384.292	0.68
384.658	0.66
385.025	0.66
385.391	0.7
385.757	0.69
386.123	0.69
386.49	0.7
386.856	0.71
387.222	0.69
387.588	0.71
387.954	0.73
388.32	0.7
388.686	0.7
389.052	0.68
389.418	0.69
389.784	0.68
390.15	0.69
390.515	0.68
390.881	0.73
391.247	0.68
391.613	0.71
391.978	0.69
392.344	0.7
392.709	0.72
393.075	0.7
393.44	0.69
393.806	0.68
394.171	0.67
394.536	0.68
394.902	0.7
395.267	0.69
395.632	0.65
395.997	0.66
396.362	0.64
396.727	0.68
397.092	0.68
397.457	0.67
397.822	0.65
398.187	0.67
398.552	0.64
398.917	0.65
399.282	0.64
399.646	0.61
400.011	0.65
400.376	0.6
400.74	0.63
401.105	0.61
401.47	0.61
401.834	0.62
402.199	0.62
402.563	0.59
402.927	0.6
403.292	0.59
403.656	0.6
404.02	0.6
404.384	0.61
404.749	0.59
405.113	0.58
405.477	0.57
405.841	0.59
406.205	0.56
406.569	0.54
406.933	0.55
407.296	0.55
407.66	0.57
408.024	0.55
408.388	0.55
408.752	0.51
409.115	0.52
409.479	0.53
409.842	0.53
410.206	0.52
410.569	0.53
410.933	0.52
411.296	0.54
411.66	0.52
412.023	0.5
412.386	0.5
412.749	0.49
413.113	0.49
413.476	0.48
413.839	0.47
414.202	0.49
414.565	0.49
414.928	0.46
415.291	0.46
415.654	0.47
416.017	0.48
416.38	0.46
416.742	0.45
417.105	0.46
417.468	0.46
417.83	0.46
418.193	0.48
418.556	0.47
418.918	0.46
419.281	0.47
419.643	0.44
420.005	0.46
420.368	0.46
420.73	0.45
421.092	0.46
421.455	0.43
421.817	0.43
422.179	0.44
422.541	0.44
422.903	0.44
423.265	0.44
423.627	0.43
423.989	0.43
424.351	0.42
424.713	0.41
425.075	0.41
425.436	0.4
425.798	0.42
426.16	0.42
426.521	0.41
426.883	0.41
427.245	0.42
427.606	0.41
427.967	0.39
428.329	0.41
428.69	0.42
429.052	0.42
429.413	0.43
429.774	0.41
430.135	0.4
430.497	0.4
430.858	0.37
431.219	0.38
431.58	0.4
431.941	0.38
432.302	0.4
432.663	0.38
433.024	0.4
433.384	0.4
433.745	0.36
434.106	0.4
434.467	0.38
434.827	0.39
435.188	0.39
435.548	0.39
435.909	0.37
436.269	0.39
436.63	0.36
436.99	0.38
437.351	0.38
437.711	0.4
438.071	0.37
438.431	0.38
438.792	0.38
439.152	0.36
439.512	0.35
439.872	0.37
440.232	0.38
440.592	0.38
440.952	0.37
441.312	0.36
441.671	0.36
442.031	0.35
442.391	0.35
442.751	0.35
443.11	0.35
443.47	0.33
443.83	0.33
444.189	0.34
444.549	0.35
444.908	0.34
445.267	0.33
445.627	0.32
445.986	0.32
446.345	0.32
446.705	0.33
447.064	0.33
447.423	0.32
447.782	0.31
448.141	0.32
448.5	0.3
448.859	0.32
449.218	0.3
449.577	0.33
449.936	0.32
450.295	0.31
450.653	0.31
451.012	0.31
451.371	0.31
451.729	0.31
452.088	0.3
452.447	0.32
452.805	0.32
453.163	0.3
453.522	0.31
453.88	0.29
454.239	0.29
454.597	0.3
454.955	0.29
455.313	0.28
455.671	0.29
456.029	0.29
456.388	0.27
456.746	0.28
457.104	0.28
457.461	0.27
457.819	0.27
458.177	0.27
458.535	0.26
458.893	0.26
459.25	0.26
459.608	0.26
459.966	0.26
460.323	0.24
460.681	0.24
461.038	0.25
461.396	0.24
461.753	0.24
462.111	0.24
462.468	0.24
462.825	0.23
463.182	0.23
463.54	0.23
463.897	0.23
464.254	0.23
464.611	0.23
464.968	0.23
465.325	0.22
465.682	0.21
466.039	0.22
466.395	0.22
466.752	0.21
467.109	0.21
467.466	0.21
467.822	0.22
468.179	0.21
468.535	0.2
468.892	0.21
469.248	0.2
469.605	0.2
469.961	0.2
470.318	0.21
470.674	0.2
471.03	0.19
471.386	0.19
471.743	0.19
472.099	0.19
472.455	0.19
472.811	0.19
473.167	0.19
473.523	0.18
473.879	0.18
474.235	0.18
474.59	0.17
474.946	0.17
475.302	0.18
475.657	0.17
476.013	0.17
476.369	0.16
476.724	0.17
477.08	0.17
477.435	0.16
477.791	0.16
478.146	0.17
478.501	0.16
478.857	0.15
479.212	0.16
479.567	0.16
479.922	0.15
480.277	0.15
480.632	0.14
480.987	0.15
481.342	0.15
481.697	0.14
482.052	0.13
482.407	0.14
482.762	0.14
483.116	0.13
483.471	0.13
483.826	0.12
484.18	0.12
484.535	0.13
484.89	0.12
485.244	0.13
485.598	0.12
485.953	0.12
486.307	0.12
486.661	0.13
487.016	0.12
487.37	0.12
487.724	0.12
488.078	0.12
488.432	0.12
488.786	0.12
489.14	0.12
489.494	0.11
489.848	0.11
490.202	0.11
490.556	0.11
490.91	0.12
491.263	0.1
491.617	0.11
491.971	0.11
492.324	0.11
492.678	0.11
493.031	0.11
493.385	0.1
493.738	0.1
494.091	0.11
494.445	0.1
494.798	0.1
495.151	0.1
495.504	0.1
495.857	0.1
496.21	0.11
496.564	0.1
496.916	0.11
497.269	0.1
497.622	0.1
497.975	0.1
498.328	0.1
498.681	0.1
499.033	0.1
499.386	0.09
499.739	0.09
500.091	0.09
500.444	0.09
500.796	0.09
501.149	0.08
501.501	0.1
501.854	0.09
502.206	0.09
502.558	0.09
502.91	0.1
503.263	0.09
503.615	0.09
503.967	0.09
504.319	0.09
504.671	0.09
505.023	0.08
505.375	0.09
505.726	0.09
506.078	0.09
506.43	0.09
506.782	0.08
507.133	0.09
507.485	0.1
507.837	0.09
508.188	0.09
508.54	0.09
508.891	0.1
509.243	0.09
509.594	0.09
509.945	0.09
510.296	0.09
510.648	0.09
510.999	0.08
511.35	0.09
511.701	0.09
512.052	0.09
512.403	0.09
512.754	0.09
513.105	0.09
513.456	0.08
513.807	0.09
514.157	0.09
514.508	0.08
514.859	0.08
515.209	0.08
515.56	0.08
515.91	0.09
516.261	0.09
516.611	0.08
516.962	0.08
517.312	0.09
517.662	0.09
518.013	0.09
518.363	0.1
518.713	0.09
519.063	0.09
519.413	0.09
519.763	0.09
520.113	0.09
520.463	0.1
520.813	0.09
521.163	0.09
521.512	0.09
521.862	0.09
522.212	0.09
522.562	0.09
522.911	0.09
523.261	0.09
523.61	0.09
523.96	0.09
524.309	0.1
524.658	0.09
525.008	0.09
525.357	0.09
525.706	0.1
526.056	0.09
526.405	0.09
526.754	0.09
527.103	0.08
527.452	0.09
527.801	0.09
528.15	0.09
528.499	0.09
528.847	0.09
529.196	0.1
529.545	0.1
529.893	0.1
530.242	0.1
530.591	0.1
530.939	0.1
531.288	0.1
531.636	0.1
531.985	0.1
532.333	0.1
532.681	0.1
533.029	0.1
533.378	0.09
533.726	0.1
534.074	0.1
534.422	0.09
534.77	0.1
535.118	0.1
535.466	0.1
535.814	0.09
536.162	0.1
536.509	0.1
536.857	0.09
537.205	0.1
537.552	0.1
537.9	0.1
538.248	0.09
538.595	0.1
538.943	0.1
539.29	0.1
539.637	0.09
539.985	0.1
540.332	0.1
540.679	0.1
541.026	0.09
541.373	0.1
541.721	0.09
542.068	0.09
542.415	0.1
542.762	0.1
543.108	0.09
543.455	0.09
543.802	0.09
544.149	0.09
544.496	0.1
544.842	0.09
545.189	0.09
545.535	0.09
545.882	0.09
546.228	0.09
546.575	0.08
546.921	0.08
547.267	0.08
547.614	0.09
547.96	0.08
548.306	0.08
548.652	0.08
548.998	0.09
549.344	0.08
549.69	0.08
550.036	0.09
550.382	0.08
550.728	0.09
551.074	0.09
551.42	0.09
551.765	0.09
552.111	0.1
552.457	0.1
552.802	0.1
553.148	0.09
553.493	0.09
553.839	0.1
554.184	0.09
554.529	0.09
554.875	0.09
555.22	0.1
555.565	0.09
555.91	0.09
556.255	0.11
556.6	0.1
556.945	0.09
557.29	0.09
557.635	0.09
557.98	0.09
558.325	0.09
558.67	0.1
559.014	0.09
559.359	0.1
559.704	0.09
560.048	0.09
560.393	0.09
560.737	0.09
561.082	0.1
561.426	0.09
561.77	0.08
562.115	0.08
562.459	0.09
562.803	0.09
563.147	0.09
563.491	0.09
563.835	0.1
564.179	0.09
564.523	0.09
564.867	0.09
565.211	0.09
565.555	0.09
565.899	0.09
566.242	0.09
566.586	0.08
566.93	0.09
567.273	0.1
567.617	0.1
567.96	0.1
568.304	0.1
568.647	0.09
568.99	0.1
569.334	0.1
569.677	0.1
570.02	0.1
570.363	0.09
570.706	0.09
571.049	0.1
571.392	0.1
571.735	0.09
572.078	0.1
572.421	0.11
572.764	0.09
573.106	0.1
573.449	0.1
573.792	0.09
574.134	0.1
574.477	0.1
574.819	0.09
575.162	0.1
575.504	0.09
575.847	0.08
576.189	0.1
576.531	0.09
576.873	0.08
577.215	0.09
577.558	0.09
577.9	0.08
578.242	0.09
578.584	0.09
578.926	0.09
579.267	0.1
579.609	0.09
579.951	0.09
580.293	0.09
580.634	0.1
580.976	0.09
581.318	0.09
581.659	0.09
582.001	0.09
582.342	0.09
582.683	0.09
583.025	0.09
583.366	0.09
583.707	0.1
584.049	0.09
584.39	0.09
584.731	0.1
585.072	0.09
585.413	0.1
585.754	0.09
586.095	0.1
586.435	0.09
586.776	0.09
587.117	0.09
587.458	0.09
587.798	0.09
588.139	0.09
588.48	0.09
588.82	0.09
589.161	0.09
589.501	0.09
589.841	0.09
590.182	0.09
590.522	0.08
590.862	0.09
591.202	0.09
591.542	0.08
591.882	0.09
592.222	0.09
592.562	0.09
592.902	0.09
593.242	0.09
593.582	0.1
593.922	0.09
594.261	0.08
594.601	0.09
594.941	0.09
595.28	0.09
595.62	0.09
595.959	0.08
596.299	0.09
596.638	0.09
596.977	0.09
597.317	0.09
597.656	0.09
597.995	0.08
598.334	0.1
598.673	0.1
599.012	0.09
599.351	0.1
599.69	0.09
600.029	0.1
600.368	0.1
600.707	0.1
601.046	0.1
601.384	0.1
601.723	0.1
602.061	0.09
602.4	0.1
602.738	0.1
603.077	0.1
603.415	0.09
603.754	0.09
604.092	0.1
604.43	0.09
604.768	0.09
605.107	0.09
605.445	0.09
605.783	0.09
606.121	0.09
606.459	0.09
606.796	0.09
607.134	0.09
607.472	0.09
607.81	0.09
608.148	0.09
608.485	0.09
608.823	0.09
609.16	0.09
609.498	0.09
609.835	0.09
610.173	0.09
610.51	0.1
610.847	0.09
611.185	0.09
611.522	0.1
611.859	0.1
612.196	0.09
612.533	0.1
612.87	0.1
613.207	0.1
613.544	0.1
613.881	0.11
614.217	0.1
614.554	0.1
614.891	0.09
615.228	0.1
615.564	0.1
615.901	0.1
616.237	0.1
616.574	0.1
616.91	0.11
617.246	0.11
617.583	0.1
617.919	0.1
618.255	0.11
618.591	0.1
618.927	0.1
619.263	0.11
619.599	0.1
619.935	0.11
620.271	0.1
620.607	0.11
620.943	0.1
621.279	0.11
621.614	0.1
621.95	0.11
622.286	0.1
622.621	0.1
622.957	0.1
623.292	0.1
623.627	0.09
623.963	0.09
624.298	0.09
624.633	0.1
624.968	0.09
625.304	0.09
625.639	0.08
625.974	0.1
626.309	0.09
626.644	0.1
626.979	0.1
627.313	0.1
627.648	0.09
627.983	0.1
628.318	0.09
628.652	0.09
628.987	0.1
629.321	0.09
629.656	0.09
629.99	0.08
630.325	0.09
630.659	0.09
630.993	0.08
631.327	0.09
631.662	0.08
631.996	0.08
632.33	0.09
632.664	0.09
632.998	0.08
633.332	0.08
633.666	0.08
633.999	0.08
634.333	0.08
634.667	0.08
635.001	0.08
635.334	0.08
635.668	0.08
636.001	0.08
636.335	0.07
636.668	0.08
637.001	0.07
637.335	0.07
637.668	0.08
638.001	0.07
638.334	0.08
638.668	0.07
639.001	0.07
639.334	0.07
639.667	0.08
639.999	0.08
640.332	0.08
640.665	0.07
640.998	0.07
641.331	0.08
641.663	0.08
641.996	0.08
642.328	0.08
642.661	0.08
642.993	0.09
643.326	0.09
643.658	0.08
643.99	0.07
644.323	0.08
644.655	0.09
644.987	0.08
645.319	0.09
645.651	0.09
645.983	0.09
646.315	0.08
646.647	0.09
646.979	0.09
647.31	0.1
647.642	0.09
647.974	0.09
648.305	0.1
648.637	0.09
648.968	0.09
649.3	0.09
649.631	0.08
649.963	0.09
650.294	0.09
650.625	0.08
650.957	0.09
651.288	0.08
651.619	0.09
651.95	0.09
652.281	0.09
652.612	0.08
652.943	0.09
653.274	0.09
653.604	0.08
653.935	0.09
654.266	0.09
654.596	0.08
654.927	0.09
655.258	0.08
655.588	0.1
655.918	0.09
656.249	0.07
656.579	0.08
656.909	0.08
657.24	0.08
657.57	0.09
657.9	0.09
658.23	0.08
658.56	0.08
658.89	0.08
659.22	0.08
659.55	0.08
659.88	0.08
660.209	0.08
660.539	0.09
660.869	0.09
661.198	0.09
661.528	0.09
661.857	0.09
662.187	0.09
662.516	0.09
662.846	0.08
663.175	0.09
663.504	0.08
663.833	0.08
664.163	0.08
664.492	0.08
664.821	0.09
665.15	0.08
665.479	0.09
665.807	0.07
666.136	0.08
666.465	0.08
666.794	0.08
667.122	0.08
667.451	0.09
667.78	0.08
668.108	0.09
668.437	0.08
668.765	0.08
669.093	0.09
669.422	0.09
669.75	0.09
670.078	0.08
670.406	0.09
670.734	0.09
671.062	0.09
671.39	0.08
671.718	0.09
672.046	0.09
672.374	0.08
672.702	0.09
673.029	0.08
673.357	0.09
673.685	0.08
674.012	0.09
674.34	0.09
674.667	0.09
674.995	0.09
675.322	0.09
675.649	0.08
675.977	0.09
676.304	0.09
676.631	0.09
676.958	0.09
677.285	0.07
677.612	0.08
677.939	0.08
678.266	0.08
678.593	0.08
678.92	0.08
679.246	0.08
679.573	0.08
679.9	0.08
680.226	0.08
680.553	0.08
680.879	0.08
681.206	0.08
681.532	0.08
681.858	0.08
682.184	0.08
682.511	0.09
682.837	0.08
683.163	0.09
683.489	0.09
683.815	0.08
684.141	0.08
684.467	0.09
684.793	0.09
685.118	0.08
685.444	0.08
685.77	0.08
686.095	0.08
686.421	0.08
686.746	0.08
687.072	0.08
687.397	0.08
687.723	0.08
688.048	0.08
688.373	0.08
688.698	0.08
689.023	0.08
689.349	0.08
689.674	0.08
689.999	0.08
690.323	0.07
690.648	0.07
690.973	0.06
691.298	0.07
691.623	0.07
691.947	0.07
692.272	0.06
692.596	0.07
692.921	0.07
693.245	0.07
693.57	0.07
693.894	0.09
694.218	0.08
694.543	0.07
694.867	0.08
695.191	0.07
695.515	0.08
695.839	0.07
696.163	0.07
696.487	0.08
696.811	0.08
697.135	0.08
697.458	0.08
697.782	0.08
698.106	0.08
698.429	0.08
698.753	0.07
699.076	0.07
699.4	0.07
699.723	0.08
700.046	0.06
700.37	0.08
700.693	0.08
701.016	0.08
701.339	0.08
701.662	0.08
701.985	0.07
702.308	0.08
702.631	0.08
702.954	0.07
703.277	0.07
703.599	0.07
703.922	0.06
704.245	0.07
704.567	0.06
704.89	0.06
705.212	0.07
705.535	0.06
705.857	0.06
706.179	0.06
706.502	0.06
706.824	0.06
707.146	0.06
707.468	0.06
707.79	0.06
708.112	0.07
708.434	0.07
708.756	0.07
709.078	0.07
709.399	0.06
709.721	0.06
710.043	0.07
710.364	0.06
710.686	0.06
711.007	0.07
711.329	0.08
711.65	0.06
711.972	0.07
712.293	0.08
712.614	0.08
712.935	0.07
713.256	0.07
713.577	0.08
713.898	0.08
714.219	0.07
714.54	0.07
714.861	0.06
715.182	0.07
715.503	0.07
715.823	0.07
716.144	0.07
716.464	0.07
716.785	0.07
717.105	0.07
717.426	0.07
717.746	0.07
718.066	0.07
718.387	0.06
718.707	0.06
719.027	0.07
719.347	0.06
719.667	0.07
719.987	0.06
720.307	0.06
720.627	0.07
720.947	0.06
721.266	0.06
721.586	0.05
721.906	0.06
722.225	0.06
722.545	0.06
722.864	0.06
723.184	0.07
723.503	0.06
723.823	0.06
724.142	0.06
724.461	0.05
724.78	0.06
725.099	0.06
725.418	0.06
725.737	0.06
726.056	0.07
726.375	0.06
726.694	0.06
727.013	0.06
727.331	0.06
727.65	0.06
727.969	0.07
728.287	0.06
728.606	0.06
728.924	0.05
729.242	0.06
729.561	0.06
729.879	0.06
730.197	0.06
730.515	0.05
730.834	0.06
731.152	0.06
731.47	0.06
731.788	0.06
732.105	0.05
732.423	0.06
732.741	0.05
733.059	0.06
733.376	0.07
733.694	0.05
734.012	0.07
734.329	0.07
734.647	0.07
734.964	0.07
735.281	0.07
735.599	0.08
735.916	0.07
736.233	0.06
736.55	0.07
736.867	0.07
737.184	0.07
737.501	0.07
737.818	0.07
738.135	0.08
738.452	0.07
738.768	0.08
739.085	0.07
739.402	0.05
739.718	0.06
740.035	0.06
740.351	0.07
740.668	0.06
740.984	0.06
741.3	0.06
741.617	0.07
741.933	0.06
742.249	0.06
742.565	0.06
742.881	0.07
743.197	0.06
743.513	0.06
743.829	0.06
744.144	0.06
744.46	0.06
744.776	0.06
745.091	0.05
745.407	0.06
745.722	0.06
746.038	0.05
746.353	0.05
746.669	0.07
746.984	0.05
747.299	0.06
747.614	0.06
747.93	0.06
748.245	0.06
748.56	0.05
748.875	0.06
749.189	0.05
749.504	0.06
749.819	0.06
750.134	0.04
750.448	0.05
750.763	0.06
751.078	0.05
751.392	0.05
751.707	0.06
752.021	0.06
752.335	0.06
752.65	0.06
752.964	0.06
753.278	0.06
753.592	0.06
753.906	0.05
754.22	0.06
754.534	0.05
754.848	0.06
755.162	0.05
755.476	0.06
755.789	0.06
756.103	0.05
756.417	0.06
756.73	0.06
757.044	0.06
757.357	0.05
757.671	0.06
757.984	0.06
758.297	0.05
758.61	0.05
758.924	0.05
759.237	0.06
759.55	0.06
759.863	0.05
760.176	0.05
760.488	0.05
760.801	0.04
761.114	0.05
761.427	0.04
761.739	0.05
762.052	0.05
762.365	0.05
762.677	0.05
762.99	0.05
763.302	0.05
763.614	0.05
763.926	0.06
764.239	0.05
764.551	0.05
764.863	0.05
765.175	0.06
765.487	0.05
765.799	0.05
766.111	0.05
766.423	0.05
766.734	0.05
767.046	0.04
767.358	0.04
767.669	0.05
767.981	0.05
768.292	0.05
768.604	0.05
768.915	0.05
769.226	0.04
769.537	0.04
769.849	0.06
770.16	0.05
770.471	0.04
770.782	0.04
771.093	0.05
771.404	0.04
771.715	0.03
772.025	0.04
772.336	0.04
772.647	0.04
772.957	0.04
773.268	0.05
773.578	0.05
773.889	0.05
774.199	0.05
774.51	0.05
774.82	0.04
775.13	0.05
775.44	0.05
775.75	0.06
776.06	0.05
776.37	0.04
776.68	0.06
776.99	0.06
777.3	0.05
777.61	0.06
777.92	0.05
778.229	0.05
778.539	0.05
778.848	0.06
779.158	0.06
779.467	0.06
779.777	0.05
780.086	0.05
780.395	0.05
780.704	0.05
781.013	0.04
781.323	0.05
781.632	0.06
781.941	0.05
782.249	0.05
782.558	0.05
782.867	0.05
783.176	0.05
783.485	0.05
783.793	0.06
784.102	0.05
784.41	0.05
784.719	0.05
785.027	0.05
785.335	0.06
785.644	0.06
785.952	0.05
786.26	0.06
786.568	0.05
786.876	0.05
787.184	0.05
787.492	0.05
787.8	0.06
788.108	0.06
788.416	0.06
788.723	0.05
789.031	0.05
789.338	0.05
789.646	0.05
789.953	0.06
790.261	0.05
790.568	0.06
790.876	0.05
791.183	0.05
791.49	0.05
791.797	0.06
792.104	0.05
792.411	0.06
792.718	0.06
793.025	0.06
793.332	0.05
793.639	0.06
793.945	0.06
794.252	0.06
794.559	0.05
794.865	0.05
795.172	0.05
795.478	0.05
795.784	0.05
796.091	0.06
796.397	0.06
796.703	0.06
797.009	0.06
797.315	0.05
797.622	0.06
797.927	0.05
798.233	0.05
798.539	0.06
798.845	0.06
799.151	0.05
799.456	0.06
799.762	0.05
800.068	0.05
800.373	0.06
800.679	0.06
800.984	0.05
801.289	0.05
801.595	0.06
801.9	0.06
802.205	0.05
802.51	0.05
802.815	0.06
803.12	0.05
803.425	0.06
803.73	0.06
804.035	0.05
804.339	0.05
804.644	0.05
804.949	0.06
805.253	0.05
805.558	0.05
805.862	0.05
806.167	0.05
806.471	0.05
806.775	0.05
807.08	0.05
807.384	0.05
807.688	0.05
807.992	0.06
808.296	0.05
808.6	0.06
808.904	0.06
809.207	0.06
809.511	0.06
809.815	0.06
810.119	0.06
810.422	0.06
810.726	0.06
811.029	0.06
811.332	0.06
811.636	0.07
811.939	0.06
812.242	0.06
812.546	0.05
812.849	0.06
813.152	0.06
813.455	0.06
813.758	0.06
814.06	0.06
814.363	0.06
814.666	0.06
814.969	0.06
815.271	0.05
815.574	0.05
815.877	0.05
816.179	0.05
816.481	0.05
816.784	0.05
817.086	0.05
817.388	0.04
817.69	0.05
817.993	0.05
818.295	0.05
818.597	0.05
818.899	0.04
819.2	0.04
819.502	0.04
819.804	0.04
820.106	0.05
820.407	0.04
820.709	0.04
821.01	0.04
821.312	0.04
821.613	0.04
821.915	0.04
822.216	0.04
822.517	0.03
822.818	0.04
823.119	0.04
823.42	0.04
823.721	0.03
824.022	0.03
824.323	0.04
824.624	0.04
824.925	0.05
825.226	0.05
825.526	0.04
825.827	0.04
826.127	0.04
826.428	0.04
826.728	0.03
827.028	0.03
827.329	0.04
827.629	0.03
827.929	0.03
828.229	0.04
828.529	0.03
828.829	0.04
829.129	0.03
829.429	0.04
829.729	0.03
830.029	0.03
830.328	0.03
830.628	0.03
830.927	0.02
831.227	0.03
831.526	0.03
831.826	0.03
832.125	0.03
832.424	0.02
832.724	0.03
833.023	0.03
833.322	0.03
833.621	0.02
833.92	0.02
834.219	0.02
834.518	0.02
834.816	0.01
835.115	0.02
835.414	0.02
835.712	0.01
836.011	0.01
836.309	0.01
836.608	0.01
836.906	0.01
837.205	-0
837.503	0.01
837.801	0
838.099	0
838.397	-0.01
838.695	-0.01
838.993	-0
839.291	-0
839.589	-0.01
839.887	-0.01
840.184	-0.01
840.482	-0.01
840.78	-0.01
841.077	-0.01
841.375	-0.02
841.672	-0.01
841.969	-0.02
842.267	-0.01
842.564	-0.01
842.861	-0
843.158	-0.01
843.455	-0.02
843.752	-0.02
844.049	-0.02
844.346	-0.02
844.643	-0.03
844.94	-0.02
845.236	-0.01
845.533	-0.02
845.83	-0.02
846.126	-0.03
846.423	-0.02
846.719	-0.03
847.015	-0.03
847.312	-0.03
847.608	-0.04
847.904	-0.04
848.2	-0.04
848.496	-0.04
848.792	-0.04
849.088	-0.03
849.384	-0.04
849.68	-0.06
849.975	-0.04
850.271	-0.05
850.567	-0.05
850.862	-0.06
851.158	-0.05
851.453	-0.06
851.748	-0.06
852.044	-0.06
852.339	-0.06
852.634	-0.08
852.929	-0.06
853.224	-0.07
853.519	-0.07
853.814	-0.06
854.109	-0.07
854.404	-0.07
854.699	-0.07
854.994	-0.06
855.288	-0.06
855.583	-0.06
855.877	-0.06
856.172	-0.06
856.466	-0.06
856.76	-0.06
857.055	-0.07
857.349	-0.08
857.643	-0.07
857.937	-0.08
858.231	-0.07
858.525	-0.08
858.819	-0.08
859.113	-0.09
859.407	-0.1
859.701	-0.1
859.994	-0.11
860.288	-0.08
860.581	-0.1
860.875	-0.1
861.168	-0.11
861.462	-0.11
861.755	-0.1
862.048	-0.11
862.341	-0.11
862.634	-0.11
862.928	-0.1
863.221	-0.11
863.513	-0.11
863.806	-0.11
864.099	-0.11
864.392	-0.12
864.685	-0.11
864.977	-0.11
865.27	-0.12
865.562	-0.12
865.855	-0.11
866.147	-0.12
866.44	-0.11
866.732	-0.12
867.024	-0.12
867.316	-0.12
867.608	-0.13
867.9	-0.13
868.192	-0.13
868.484	-0.13
868.776	-0.14
869.068	-0.13
869.359	-0.12
869.651	-0.14
869.943	-0.15
870.234	-0.14
870.526	-0.14
870.817	-0.14
871.108	-0.13
871.4	-0.13
871.691	-0.15
871.982	-0.15
872.273	-0.16
872.564	-0.15
872.855	-0.15
873.146	-0.15
873.437	-0.16
873.728	-0.16
874.019	-0.16
874.309	-0.16
874.6	-0.15
874.89	-0.16
875.181	-0.16
875.471	-0.15
875.762	-0.15
876.052	-0.16
876.342	-0.14
876.632	-0.15
876.922	-0.16
877.213	-0.15
877.503	-0.17
877.792	-0.16
878.082	-0.16
878.372	-0.16
878.662	-0.18
878.952	-0.18
879.241	-0.16
879.531	-0.16
879.82	-0.17
880.11	-0.17
880.399	-0.17
880.688	-0.15
880.978	-0.15
881.267	-0.15
