Data from 12-12-AQDScycling_Absorbance__331__00331.txt Node

Date: Tue Dec 12 12:19:29 EST 2023
User: kyuminlee
Spectrometer: FLMS00943
Trigger mode: 0
Integration Time (sec): 1.000000E-1
Scans to average: 1
Electric dark correction enabled: true
Nonlinearity correction enabled: false
Boxcar width: 0
XAxis mode: Wavelengths
Number of Pixels in Spectrum: 2048
>>>>>Begin Spectral Data<<<<<
179.651	-0
180.037	-0
180.424	-0
180.81	-0
181.197	0.13
181.583	-0
181.97	-0.41
182.356	-0
182.743	-0.79
183.129	-0
183.515	0.73
183.901	-2.39
184.288	0.2
184.674	-0
185.06	-1.19
185.446	0.01
185.832	-0
186.218	-0.17
186.604	-0.01
186.99	-0.67
187.376	0.02
187.762	0.9
188.148	0.02
188.534	0.17
188.92	0.08
189.305	0.03
189.691	0.01
190.077	0.13
190.463	-0.01
190.848	0.05
191.234	0.03
191.619	0.07
192.005	0.09
192.391	0.12
192.776	0.12
193.161	0.05
193.547	0.14
193.932	0.09
194.318	0.02
194.703	0.11
195.088	0.17
195.473	0.15
195.859	0.21
196.244	0.12
196.629	0.11
197.014	-0.01
197.399	0.19
197.784	0.05
198.169	0.16
198.554	0.07
198.939	0.1
199.324	0.16
199.709	-0.02
200.094	0.11
200.478	0.12
200.863	0.19
201.248	0.22
201.633	0.11
202.017	0.1
202.402	0.16
202.787	0.07
203.171	0.22
203.556	0.22
203.94	0.22
204.325	0.26
204.709	0.27
205.093	0.04
205.478	0.06
205.862	0.03
206.246	0.2
206.631	0.12
207.015	0.05
207.399	0.13
207.783	0.14
208.167	0.21
208.551	0.26
208.935	0.16
209.319	0.09
209.703	0.06
210.087	0.21
210.471	0.08
210.855	0.07
211.239	0.13
211.623	0.25
212.007	0.14
212.39	0.22
212.774	0.03
213.158	0.08
213.541	0.14
213.925	0.16
214.309	0.23
214.692	0.33
215.076	0.24
215.459	0.12
215.842	0.26
216.226	0.14
216.609	0.32
216.993	0.18
217.376	0.41
217.759	0.48
218.142	0.35
218.525	0.41
218.909	0.41
219.292	0.24
219.675	0.34
220.058	0.54
220.441	0.42
220.824	0.41
221.207	0.66
221.59	0.37
221.973	0.55
222.355	0.56
222.738	0.78
223.121	0.66
223.504	0.52
223.886	0.72
224.269	0.63
224.652	0.68
225.034	0.83
225.417	0.59
225.799	0.8
226.182	0.81
226.564	0.94
226.947	0.91
227.329	0.76
227.711	0.9
228.094	0.91
228.476	0.91
228.858	0.84
229.24	0.7
229.623	0.89
230.005	0.75
230.387	0.84
230.769	0.74
231.151	0.93
231.533	0.94
231.915	0.93
232.297	1.05
232.679	1.04
233.061	1.02
233.442	0.96
233.824	1.14
234.206	0.97
234.588	1.13
234.969	1.03
235.351	0.94
235.733	0.97
236.114	1.14
236.496	1.03
236.877	1
237.259	1.06
237.64	1.16
238.022	1.02
238.403	1.05
238.784	0.94
239.165	0.92
239.547	1.07
239.928	1.15
240.309	1.03
240.69	1.09
241.071	1.06
241.452	1.12
241.834	0.95
242.215	1.19
242.595	1.02
242.976	1.19
243.357	1.14
243.738	1
244.119	1.24
244.5	1.17
244.881	1.18
245.261	1.17
245.642	1.2
246.023	1.16
246.403	1.1
246.784	1.37
247.164	1.38
247.545	1.34
247.925	1.29
248.306	1.35
248.686	1.54
249.067	1.19
249.447	1.24
249.827	1.32
250.207	1.28
250.588	1.22
250.968	1.37
251.348	1.4
251.728	1.51
252.108	1.49
252.488	1.32
252.868	1.27
253.248	1.35
253.628	1.4
254.008	1.44
254.388	1.31
254.768	1.23
255.147	1.33
255.527	1.44
255.907	1.24
256.287	1.47
256.666	1.45
257.046	1.38
257.425	1.47
257.805	1.43
258.184	1.31
258.564	1.39
258.943	1.34
259.323	1.5
259.702	1.47
260.081	1.49
260.461	1.53
260.84	1.39
261.219	1.66
261.598	1.4
261.977	1.47
262.356	1.44
262.736	1.48
263.115	1.65
263.494	1.46
263.873	1.42
264.251	1.44
264.63	1.56
265.009	1.4
265.388	1.38
265.767	1.4
266.145	1.34
266.524	1.52
266.903	1.45
267.281	1.32
267.66	1.5
268.039	1.46
268.417	1.45
268.796	1.48
269.174	1.47
269.552	1.41
269.931	1.51
270.309	1.37
270.687	1.72
271.066	1.46
271.444	1.29
271.822	1.38
272.2	1.5
272.578	1.42
272.956	1.46
273.334	1.48
273.712	1.4
274.09	1.4
274.468	1.4
274.846	1.31
275.224	1.35
275.602	1.49
275.98	1.42
276.357	1.37
276.735	1.43
277.113	1.39
277.49	1.29
277.868	1.24
278.246	1.55
278.623	1.25
279.001	1.41
279.378	1.36
279.756	1.43
280.133	1.47
280.51	1.37
280.888	1.51
281.265	1.51
281.642	1.45
282.019	1.44
282.396	1.69
282.773	1.54
283.151	1.51
283.528	1.34
283.905	1.46
284.282	1.49
284.659	1.54
285.035	1.32
285.412	1.29
285.789	1.47
286.166	1.48
286.543	1.31
286.919	1.52
287.296	1.43
287.673	1.57
288.049	1.57
288.426	1.49
288.802	1.65
289.179	1.38
289.555	1.55
289.932	1.57
290.308	1.26
290.684	1.29
291.061	1.39
291.437	1.44
291.813	1.35
292.189	1.27
292.565	1.33
292.942	1.41
293.318	1.41
293.694	1.34
294.07	1.4
294.446	1.33
294.822	1.53
295.197	1.42
295.573	1.51
295.949	1.36
296.325	1.53
296.701	1.47
297.076	1.53
297.452	1.51
297.828	1.27
298.203	1.42
298.579	1.35
298.954	1.34
299.33	1.31
299.705	1.28
300.081	1.34
300.456	1.3
300.831	1.27
301.206	1.23
301.582	1.34
301.957	1.24
302.332	1.21
302.707	1.21
303.082	1.11
303.457	1.16
303.832	1.12
304.207	1.11
304.582	1.08
304.957	1.07
305.332	1.1
305.707	1.1
306.082	1.03
306.456	1.09
306.831	1.05
307.206	1.04
307.58	1.01
307.955	0.95
308.33	0.94
308.704	0.94
309.079	0.91
309.453	0.92
309.828	0.93
310.202	0.88
310.576	0.84
310.951	0.88
311.325	0.85
311.699	0.82
312.073	0.8
312.447	0.8
312.821	0.79
313.196	0.79
313.57	0.76
313.944	0.74
314.317	0.74
314.691	0.75
315.065	0.75
315.439	0.73
315.813	0.76
316.187	0.73
316.56	0.74
316.934	0.69
317.308	0.69
317.681	0.69
318.055	0.69
318.428	0.69
318.802	0.72
319.175	0.7
319.549	0.67
319.922	0.67
320.295	0.68
320.669	0.72
321.042	0.66
321.415	0.71
321.788	0.66
322.162	0.63
322.535	0.67
322.908	0.65
323.281	0.64
323.654	0.69
324.027	0.64
324.4	0.65
324.773	0.66
325.145	0.66
325.518	0.66
325.891	0.63
326.264	0.68
326.636	0.68
327.009	0.66
327.382	0.69
327.754	0.7
328.127	0.67
328.499	0.66
328.872	0.67
329.244	0.7
329.616	0.69
329.989	0.69
330.361	0.7
330.733	0.69
331.106	0.68
331.478	0.72
331.85	0.7
332.222	0.69
332.594	0.75
332.966	0.72
333.338	0.78
333.71	0.74
334.082	0.79
334.454	0.74
334.826	0.78
335.197	0.77
335.569	0.77
335.941	0.79
336.312	0.81
336.684	0.82
337.056	0.83
337.427	0.83
337.799	0.86
338.17	0.87
338.542	0.85
338.913	0.86
339.284	0.88
339.656	0.86
340.027	0.91
340.398	0.91
340.769	0.92
341.141	0.93
341.512	0.93
341.883	0.96
342.254	0.93
342.625	0.96
342.996	0.91
343.367	1
343.738	0.98
344.108	0.95
344.479	1.03
344.85	0.98
345.221	1.03
345.591	1.01
345.962	1.07
346.333	1.08
346.703	0.98
347.074	1.03
347.444	1.09
347.815	1.07
348.185	1.06
348.556	1.1
348.926	1.1
349.296	1.14
349.666	1.15
350.037	1.18
350.407	1.09
350.777	1.15
351.147	1.16
351.517	1.21
351.887	1.18
352.257	1.21
352.627	1.21
352.997	1.21
353.367	1.28
353.737	1.25
354.106	1.34
354.476	1.32
354.846	1.37
355.216	1.31
355.585	1.45
355.955	1.32
356.324	1.42
356.694	1.45
357.063	1.42
357.433	1.34
357.802	1.49
358.171	1.46
358.541	1.44
358.91	1.51
359.279	1.52
359.648	1.6
360.017	1.57
360.387	1.54
360.756	1.43
361.125	1.54
361.494	1.62
361.863	1.51
362.231	1.55
362.6	1.59
362.969	1.56
363.338	1.43
363.707	1.68
364.075	1.75
364.444	1.31
364.813	1.49
365.181	1.43
365.55	1.52
365.918	1.72
366.287	1.58
366.655	1.49
367.024	1.71
367.392	1.5
367.76	1.47
368.128	1.58
368.497	1.51
368.865	1.52
369.233	1.53
369.601	1.61
369.969	1.62
370.337	1.55
370.705	1.52
371.073	1.53
371.441	1.61
371.809	1.54
372.177	1.56
372.544	1.59
372.912	1.55
373.28	1.57
373.647	1.57
374.015	1.66
374.383	1.65
374.75	1.73
375.118	1.59
375.485	1.57
375.853	1.64
376.22	1.54
376.587	1.47
376.955	1.55
377.322	1.48
377.689	1.52
378.056	1.47
378.423	1.51
378.79	1.5
379.157	1.64
379.524	1.5
379.891	1.47
380.258	1.64
380.625	1.47
380.992	1.48
381.359	1.47
381.726	1.6
382.092	1.46
382.459	1.57
382.826	1.55
383.192	1.5
383.559	1.53
383.925	1.55
384.292	1.49
384.658	1.76
385.025	1.53
385.391	1.53
385.757	1.55
386.123	1.6
386.49	1.54
386.856	1.74
387.222	1.87
387.588	1.6
387.954	1.62
388.32	1.71
388.686	1.66
389.052	1.53
389.418	1.59
389.784	1.42
390.15	1.59
390.515	1.41
390.881	1.65
391.247	1.49
391.613	1.59
391.978	1.5
392.344	1.66
392.709	1.57
393.075	1.55
393.44	1.47
393.806	1.52
394.171	1.56
394.536	1.55
394.902	1.5
395.267	1.59
395.632	1.37
395.997	1.43
396.362	1.42
396.727	1.54
397.092	1.53
397.457	1.52
397.822	1.56
398.187	1.55
398.552	1.48
398.917	1.67
399.282	1.41
399.646	1.52
400.011	1.51
400.376	1.51
400.74	1.4
401.105	1.67
401.47	1.57
401.834	1.6
402.199	1.55
402.563	1.52
402.927	1.53
403.292	1.6
403.656	1.46
404.02	1.49
404.384	1.87
404.749	1.63
405.113	1.64
405.477	1.54
405.841	1.62
406.205	1.62
406.569	1.59
406.933	1.57
407.296	1.54
407.66	1.53
408.024	1.48
408.388	1.68
408.752	1.59
409.115	1.54
409.479	1.57
409.842	1.72
410.206	1.44
410.569	1.56
410.933	1.49
411.296	1.46
411.66	1.58
412.023	1.65
412.386	1.46
412.749	1.5
413.113	1.54
413.476	1.48
413.839	1.52
414.202	1.54
414.565	1.42
414.928	1.49
415.291	1.48
415.654	1.54
416.017	1.7
416.38	1.44
416.742	1.45
417.105	1.4
417.468	1.45
417.83	1.41
418.193	1.61
418.556	1.42
418.918	1.48
419.281	1.63
419.643	1.56
420.005	1.39
420.368	1.62
420.73	1.45
421.092	1.55
421.455	1.54
421.817	1.44
422.179	1.56
422.541	1.55
422.903	1.63
423.265	1.53
423.627	1.59
423.989	1.55
424.351	1.5
424.713	1.63
425.075	1.56
425.436	1.54
425.798	1.54
426.16	1.85
426.521	1.5
426.883	1.61
427.245	1.59
427.606	1.52
427.967	1.42
428.329	1.49
428.69	1.63
429.052	1.36
429.413	1.49
429.774	1.72
430.135	1.49
430.497	1.66
430.858	1.64
431.219	1.55
431.58	1.49
431.941	1.5
432.302	1.53
432.663	1.49
433.024	1.61
433.384	1.55
433.745	1.42
434.106	1.48
434.467	1.47
434.827	1.42
435.188	1.5
435.548	1.68
435.909	1.55
436.269	1.56
436.63	1.52
436.99	1.44
437.351	1.37
437.711	1.44
438.071	1.37
438.431	1.44
438.792	1.54
439.152	1.45
439.512	1.48
439.872	1.44
440.232	1.58
440.592	1.43
440.952	1.5
441.312	1.39
441.671	1.44
442.031	1.43
442.391	1.43
442.751	1.46
443.11	1.5
443.47	1.38
443.83	1.37
444.189	1.4
444.549	1.44
444.908	1.36
445.267	1.45
445.627	1.41
445.986	1.49
446.345	1.37
446.705	1.44
447.064	1.38
447.423	1.36
447.782	1.4
448.141	1.38
448.5	1.31
448.859	1.34
449.218	1.34
449.577	1.36
449.936	1.37
450.295	1.34
450.653	1.31
451.012	1.27
451.371	1.29
451.729	1.26
452.088	1.28
452.447	1.31
452.805	1.29
453.163	1.27
453.522	1.28
453.88	1.25
454.239	1.26
454.597	1.23
454.955	1.21
455.313	1.21
455.671	1.21
456.029	1.19
456.388	1.16
456.746	1.17
457.104	1.17
457.461	1.12
457.819	1.16
458.177	1.12
458.535	1.09
458.893	1.08
459.25	1.06
459.608	1.06
459.966	1.03
460.323	1.02
460.681	1.03
461.038	1.01
461.396	0.99
461.753	0.98
462.111	0.96
462.468	0.94
462.825	0.93
463.182	0.92
463.54	0.91
463.897	0.89
464.254	0.88
464.611	0.86
464.968	0.86
465.325	0.86
465.682	0.83
466.039	0.83
466.395	0.83
466.752	0.8
467.109	0.77
467.466	0.78
467.822	0.77
468.179	0.75
468.535	0.74
468.892	0.72
469.248	0.71
469.605	0.69
469.961	0.7
470.318	0.7
470.674	0.68
471.03	0.67
471.386	0.65
471.743	0.64
472.099	0.62
472.455	0.62
472.811	0.6
473.167	0.6
473.523	0.57
473.879	0.57
474.235	0.55
474.59	0.55
474.946	0.54
475.302	0.54
475.657	0.52
476.013	0.52
476.369	0.49
476.724	0.5
477.08	0.48
477.435	0.47
477.791	0.47
478.146	0.47
478.501	0.45
478.857	0.46
479.212	0.43
479.567	0.43
479.922	0.42
480.277	0.41
480.632	0.4
480.987	0.39
481.342	0.39
481.697	0.38
482.052	0.37
482.407	0.36
482.762	0.35
483.116	0.34
483.471	0.34
483.826	0.33
484.18	0.33
484.535	0.31
484.89	0.31
485.244	0.31
485.598	0.31
485.953	0.3
486.307	0.29
486.661	0.29
487.016	0.28
487.37	0.28
487.724	0.27
488.078	0.26
488.432	0.26
488.786	0.26
489.14	0.25
489.494	0.24
489.848	0.23
490.202	0.23
490.556	0.23
490.91	0.22
491.263	0.22
491.617	0.21
491.971	0.21
492.324	0.21
492.678	0.21
493.031	0.2
493.385	0.2
493.738	0.19
494.091	0.19
494.445	0.19
494.798	0.18
495.151	0.18
495.504	0.18
495.857	0.17
496.21	0.17
496.564	0.16
496.916	0.16
497.269	0.16
497.622	0.16
497.975	0.16
498.328	0.16
498.681	0.15
499.033	0.15
499.386	0.15
499.739	0.14
500.091	0.14
500.444	0.14
500.796	0.14
501.149	0.13
501.501	0.13
501.854	0.12
502.206	0.13
502.558	0.12
502.91	0.12
503.263	0.12
503.615	0.12
503.967	0.12
504.319	0.12
504.671	0.11
505.023	0.11
505.375	0.11
505.726	0.11
506.078	0.1
506.43	0.1
506.782	0.1
507.133	0.1
507.485	0.1
507.837	0.1
508.188	0.1
508.54	0.1
508.891	0.1
509.243	0.1
509.594	0.09
509.945	0.09
510.296	0.09
510.648	0.09
510.999	0.08
511.35	0.09
511.701	0.08
512.052	0.08
512.403	0.09
512.754	0.08
513.105	0.07
513.456	0.08
513.807	0.07
514.157	0.08
514.508	0.08
514.859	0.08
515.209	0.08
515.56	0.08
515.91	0.08
516.261	0.08
516.611	0.07
516.962	0.07
517.312	0.07
517.662	0.07
518.013	0.07
518.363	0.07
518.713	0.08
519.063	0.07
519.413	0.07
519.763	0.07
520.113	0.07
520.463	0.07
520.813	0.07
521.163	0.08
521.512	0.06
521.862	0.07
522.212	0.07
522.562	0.07
522.911	0.06
523.261	0.06
523.61	0.06
523.96	0.07
524.309	0.07
524.658	0.07
525.008	0.06
525.357	0.06
525.706	0.07
526.056	0.06
526.405	0.06
526.754	0.07
527.103	0.06
527.452	0.06
527.801	0.07
528.15	0.06
528.499	0.06
528.847	0.06
529.196	0.07
529.545	0.07
529.893	0.07
530.242	0.06
530.591	0.07
530.939	0.08
531.288	0.07
531.636	0.07
531.985	0.07
532.333	0.06
532.681	0.06
533.029	0.06
533.378	0.06
533.726	0.07
534.074	0.07
534.422	0.06
534.77	0.07
535.118	0.06
535.466	0.06
535.814	0.06
536.162	0.06
536.509	0.07
536.857	0.06
537.205	0.06
537.552	0.06
537.9	0.06
538.248	0.06
538.595	0.07
538.943	0.07
539.29	0.07
539.637	0.06
539.985	0.06
540.332	0.07
540.679	0.06
541.026	0.06
541.373	0.06
541.721	0.06
542.068	0.05
542.415	0.06
542.762	0.05
543.108	0.04
543.455	0.05
543.802	0.05
544.149	0.05
544.496	0.05
544.842	0.05
545.189	0.04
545.535	0.05
545.882	0.05
546.228	0.04
546.575	0.05
546.921	0.05
547.267	0.05
547.614	0.05
547.96	0.04
548.306	0.04
548.652	0.04
548.998	0.05
549.344	0.04
549.69	0.05
550.036	0.05
550.382	0.05
550.728	0.05
551.074	0.05
551.42	0.05
551.765	0.05
552.111	0.06
552.457	0.05
552.802	0.05
553.148	0.04
553.493	0.05
553.839	0.05
554.184	0.06
554.529	0.05
554.875	0.05
555.22	0.06
555.565	0.05
555.91	0.05
556.255	0.06
556.6	0.06
556.945	0.05
557.29	0.05
557.635	0.05
557.98	0.05
558.325	0.06
558.67	0.05
559.014	0.05
559.359	0.06
559.704	0.05
560.048	0.05
560.393	0.06
560.737	0.05
561.082	0.06
561.426	0.04
561.77	0.05
562.115	0.04
562.459	0.05
562.803	0.05
563.147	0.05
563.491	0.05
563.835	0.05
564.179	0.05
564.523	0.05
564.867	0.05
565.211	0.05
565.555	0.05
565.899	0.05
566.242	0.05
566.586	0.05
566.93	0.05
567.273	0.05
567.617	0.05
567.96	0.06
568.304	0.05
568.647	0.04
568.99	0.05
569.334	0.06
569.677	0.05
570.02	0.05
570.363	0.05
570.706	0.05
571.049	0.05
571.392	0.05
571.735	0.05
572.078	0.05
572.421	0.05
572.764	0.05
573.106	0.05
573.449	0.04
573.792	0.04
574.134	0.04
574.477	0.05
574.819	0.04
575.162	0.05
575.504	0.04
575.847	0.04
576.189	0.05
576.531	0.05
576.873	0.05
577.215	0.05
577.558	0.05
577.9	0.05
578.242	0.05
578.584	0.05
578.926	0.04
579.267	0.04
579.609	0.05
579.951	0.05
580.293	0.05
580.634	0.05
580.976	0.05
581.318	0.05
581.659	0.05
582.001	0.05
582.342	0.04
582.683	0.05
583.025	0.04
583.366	0.04
583.707	0.05
584.049	0.04
584.39	0.04
584.731	0.04
585.072	0.05
585.413	0.05
585.754	0.04
586.095	0.05
586.435	0.05
586.776	0.05
587.117	0.04
587.458	0.05
587.798	0.05
588.139	0.05
588.48	0.04
588.82	0.04
589.161	0.04
589.501	0.04
589.841	0.04
590.182	0.04
590.522	0.04
590.862	0.04
591.202	0.04
591.542	0.04
591.882	0.04
592.222	0.04
592.562	0.05
592.902	0.04
593.242	0.04
593.582	0.05
593.922	0.04
594.261	0.04
594.601	0.04
594.941	0.04
595.28	0.04
595.62	0.04
595.959	0.05
596.299	0.05
596.638	0.05
596.977	0.04
597.317	0.05
597.656	0.05
597.995	0.04
598.334	0.05
598.673	0.04
599.012	0.04
599.351	0.05
599.69	0.04
600.029	0.05
600.368	0.05
600.707	0.04
601.046	0.04
601.384	0.05
601.723	0.05
602.061	0.04
602.4	0.05
602.738	0.05
603.077	0.05
603.415	0.04
603.754	0.05
604.092	0.04
604.43	0.04
604.768	0.04
605.107	0.05
605.445	0.04
605.783	0.04
606.121	0.04
606.459	0.04
606.796	0.05
607.134	0.04
607.472	0.05
607.81	0.05
608.148	0.04
608.485	0.04
608.823	0.04
609.16	0.04
609.498	0.05
609.835	0.05
610.173	0.04
610.51	0.05
610.847	0.04
611.185	0.05
611.522	0.05
611.859	0.05
612.196	0.05
612.533	0.06
612.87	0.06
613.207	0.06
613.544	0.05
613.881	0.06
614.217	0.06
614.554	0.05
614.891	0.06
615.228	0.05
615.564	0.05
615.901	0.05
616.237	0.05
616.574	0.05
616.91	0.05
617.246	0.05
617.583	0.05
617.919	0.06
618.255	0.06
618.591	0.06
618.927	0.06
619.263	0.06
619.599	0.06
619.935	0.06
620.271	0.07
620.607	0.06
620.943	0.05
621.279	0.06
621.614	0.06
621.95	0.06
622.286	0.05
622.621	0.05
622.957	0.05
623.292	0.05
623.627	0.05
623.963	0.04
624.298	0.05
624.633	0.05
624.968	0.04
625.304	0.04
625.639	0.05
625.974	0.05
626.309	0.04
626.644	0.05
626.979	0.05
627.313	0.04
627.648	0.04
627.983	0.04
628.318	0.04
628.652	0.04
628.987	0.04
629.321	0.04
629.656	0.03
629.99	0.04
630.325	0.04
630.659	0.04
630.993	0.04
631.327	0.05
631.662	0.03
631.996	0.04
632.33	0.04
632.664	0.04
632.998	0.04
633.332	0.04
633.666	0.04
633.999	0.04
634.333	0.04
634.667	0.03
635.001	0.04
635.334	0.04
635.668	0.04
636.001	0.04
636.335	0.04
636.668	0.04
637.001	0.04
637.335	0.04
637.668	0.04
638.001	0.03
638.334	0.04
638.668	0.04
639.001	0.04
639.334	0.03
639.667	0.03
639.999	0.03
640.332	0.03
640.665	0.03
640.998	0.04
641.331	0.04
641.663	0.03
641.996	0.03
642.328	0.04
642.661	0.04
642.993	0.03
643.326	0.04
643.658	0.03
643.99	0.03
644.323	0.03
644.655	0.03
644.987	0.03
645.319	0.04
645.651	0.04
645.983	0.03
646.315	0.03
646.647	0.03
646.979	0.04
647.31	0.04
647.642	0.04
647.974	0.03
648.305	0.04
648.637	0.04
648.968	0.04
649.3	0.04
649.631	0.04
649.963	0.04
650.294	0.05
650.625	0.04
650.957	0.05
651.288	0.05
651.619	0.05
651.95	0.05
652.281	0.04
652.612	0.05
652.943	0.05
653.274	0.05
653.604	0.05
653.935	0.05
654.266	0.05
654.596	0.05
654.927	0.04
655.258	0.05
655.588	0.05
655.918	0.05
656.249	0.03
656.579	0.04
656.909	0.04
657.24	0.04
657.57	0.05
657.9	0.05
658.23	0.05
658.56	0.06
658.89	0.05
659.22	0.04
659.55	0.05
659.88	0.05
660.209	0.05
660.539	0.06
660.869	0.05
661.198	0.06
661.528	0.05
661.857	0.05
662.187	0.06
662.516	0.06
662.846	0.05
663.175	0.05
663.504	0.05
663.833	0.04
664.163	0.05
664.492	0.04
664.821	0.05
665.15	0.05
665.479	0.05
665.807	0.05
666.136	0.05
666.465	0.05
666.794	0.04
667.122	0.05
667.451	0.04
667.78	0.05
668.108	0.04
668.437	0.04
668.765	0.05
669.093	0.05
669.422	0.04
669.75	0.05
670.078	0.05
670.406	0.05
670.734	0.05
671.062	0.05
671.39	0.04
671.718	0.05
672.046	0.05
672.374	0.04
672.702	0.05
673.029	0.05
673.357	0.05
673.685	0.05
674.012	0.05
674.34	0.05
674.667	0.06
674.995	0.05
675.322	0.05
675.649	0.05
675.977	0.05
676.304	0.05
676.631	0.05
676.958	0.05
677.285	0.05
677.612	0.05
677.939	0.05
678.266	0.05
678.593	0.05
678.92	0.05
679.246	0.05
679.573	0.05
679.9	0.04
680.226	0.04
680.553	0.04
680.879	0.05
681.206	0.05
681.532	0.04
681.858	0.04
682.184	0.04
682.511	0.04
682.837	0.04
683.163	0.05
683.489	0.05
683.815	0.04
684.141	0.04
684.467	0.04
684.793	0.03
685.118	0.04
685.444	0.04
685.77	0.04
686.095	0.04
686.421	0.05
686.746	0.04
687.072	0.05
687.397	0.04
687.723	0.05
688.048	0.06
688.373	0.04
688.698	0.05
689.023	0.05
689.349	0.05
689.674	0.05
689.999	0.05
690.323	0.04
690.648	0.04
690.973	0.04
691.298	0.04
691.623	0.04
691.947	0.04
692.272	0.04
692.596	0.04
692.921	0.04
693.245	0.04
693.57	0.05
693.894	0.04
694.218	0.04
694.543	0.04
694.867	0.04
695.191	0.04
695.515	0.04
695.839	0.04
696.163	0.04
696.487	0.04
696.811	0.04
697.135	0.04
697.458	0.04
697.782	0.04
698.106	0.05
698.429	0.05
698.753	0.04
699.076	0.05
699.4	0.04
699.723	0.04
700.046	0.04
700.37	0.04
700.693	0.04
701.016	0.04
701.339	0.04
701.662	0.04
701.985	0.05
702.308	0.04
702.631	0.04
702.954	0.04
703.277	0.04
703.599	0.04
703.922	0.03
704.245	0.04
704.567	0.03
704.89	0.03
705.212	0.03
705.535	0.03
705.857	0.03
706.179	0.03
706.502	0.03
706.824	0.03
707.146	0.03
707.468	0.03
707.79	0.03
708.112	0.03
708.434	0.04
708.756	0.04
709.078	0.04
709.399	0.03
709.721	0.04
710.043	0.04
710.364	0.04
710.686	0.05
711.007	0.04
711.329	0.04
711.65	0.04
711.972	0.05
712.293	0.05
712.614	0.05
712.935	0.04
713.256	0.04
713.577	0.04
713.898	0.04
714.219	0.04
714.54	0.03
714.861	0.04
715.182	0.04
715.503	0.04
715.823	0.04
716.144	0.03
716.464	0.02
716.785	0.03
717.105	0.03
717.426	0.04
717.746	0.03
718.066	0.03
718.387	0.03
718.707	0.02
719.027	0.04
719.347	0.02
719.667	0.03
719.987	0.03
720.307	0.02
720.627	0.02
720.947	0.03
721.266	0.04
721.586	0.02
721.906	0.03
722.225	0.03
722.545	0.03
722.864	0.02
723.184	0.03
723.503	0.03
723.823	0.03
724.142	0.02
724.461	0.02
724.78	0.02
725.099	0.03
725.418	0.02
725.737	0.02
726.056	0.03
726.375	0.03
726.694	0.02
727.013	0.03
727.331	0.02
727.65	0.03
727.969	0.03
728.287	0.03
728.606	0.04
728.924	0.03
729.242	0.03
729.561	0.03
729.879	0.04
730.197	0.03
730.515	0.03
730.834	0.03
731.152	0.03
731.47	0.02
731.788	0.03
732.105	0.02
732.423	0.02
732.741	0.03
733.059	0.02
733.376	0.03
733.694	0.02
734.012	0.03
734.329	0.04
734.647	0.03
734.964	0.04
735.281	0.03
735.599	0.04
735.916	0.03
736.233	0.03
736.55	0.03
736.867	0.03
737.184	0.04
737.501	0.04
737.818	0.03
738.135	0.04
738.452	0.03
738.768	0.04
739.085	0.04
739.402	0.02
739.718	0.03
740.035	0.03
740.351	0.03
740.668	0.05
740.984	0.04
741.3	0.04
741.617	0.04
741.933	0.03
742.249	0.04
742.565	0.03
742.881	0.04
743.197	0.04
743.513	0.03
743.829	0.02
744.144	0.04
744.46	0.03
744.776	0.03
745.091	0.03
745.407	0.04
745.722	0.03
746.038	0.03
746.353	0.03
746.669	0.04
746.984	0.03
747.299	0.03
747.614	0.04
747.93	0.04
748.245	0.03
748.56	0.03
748.875	0.03
749.189	0.03
749.504	0.04
749.819	0.04
750.134	0.03
750.448	0.03
750.763	0.03
751.078	0.03
751.392	0.03
751.707	0.05
752.021	0.04
752.335	0.04
752.65	0.04
752.964	0.04
753.278	0.04
753.592	0.04
753.906	0.03
754.22	0.04
754.534	0.04
754.848	0.04
755.162	0.03
755.476	0.04
755.789	0.04
756.103	0.03
756.417	0.04
756.73	0.04
757.044	0.04
757.357	0.04
757.671	0.04
757.984	0.04
758.297	0.05
758.61	0.04
758.924	0.04
759.237	0.03
759.55	0.05
759.863	0.04
760.176	0.04
760.488	0.04
760.801	0.03
761.114	0.03
761.427	0.03
761.739	0.04
762.052	0.04
762.365	0.04
762.677	0.04
762.99	0.03
763.302	0.04
763.614	0.04
763.926	0.04
764.239	0.03
764.551	0.03
764.863	0.03
765.175	0.04
765.487	0.03
765.799	0.02
766.111	0.03
766.423	0.03
766.734	0.03
767.046	0.02
767.358	0.04
767.669	0.04
767.981	0.03
768.292	0.03
768.604	0.03
768.915	0.03
769.226	0.04
769.537	0.02
769.849	0.04
770.16	0.03
770.471	0.03
770.782	0.03
771.093	0.03
771.404	0.02
771.715	0.03
772.025	0.03
772.336	0.02
772.647	0.02
772.957	0.02
773.268	0.03
773.578	0.02
773.889	0.04
774.199	0.04
774.51	0.02
774.82	0.03
775.13	0.04
775.44	0.03
775.75	0.03
776.06	0.03
776.37	0.02
776.68	0.03
776.99	0.03
777.3	0.03
777.61	0.04
777.92	0.04
778.229	0.03
778.539	0.03
778.848	0.03
779.158	0.04
779.467	0.05
779.777	0.03
780.086	0.04
780.395	0.03
780.704	0.04
781.013	0.03
781.323	0.02
781.632	0.04
781.941	0.04
782.249	0.04
782.558	0.03
782.867	0.03
783.176	0.02
783.485	0.02
783.793	0.03
784.102	0.03
784.41	0.03
784.719	0.03
785.027	0.03
785.335	0.02
785.644	0.02
785.952	0.03
786.26	0.04
786.568	0.02
786.876	0.02
787.184	0.03
787.492	0.03
787.8	0.03
788.108	0.03
788.416	0.02
788.723	0.03
789.031	0.02
789.338	0.03
789.646	0.03
789.953	0.03
790.261	0.04
790.568	0.03
790.876	0.03
791.183	0.03
791.49	0.02
791.797	0.03
792.104	0.02
792.411	0.04
792.718	0.03
793.025	0.04
793.332	0.04
793.639	0.04
793.945	0.05
794.252	0.04
794.559	0.03
794.865	0.04
795.172	0.04
795.478	0.03
795.784	0.04
796.091	0.04
796.397	0.04
796.703	0.04
797.009	0.05
797.315	0.04
797.622	0.04
797.927	0.04
798.233	0.05
798.539	0.05
798.845	0.04
799.151	0.04
799.456	0.04
799.762	0.04
800.068	0.04
800.373	0.05
800.679	0.04
800.984	0.03
801.289	0.04
801.595	0.04
801.9	0.03
802.205	0.03
802.51	0.03
802.815	0.05
803.12	0.04
803.425	0.04
803.73	0.04
804.035	0.03
804.339	0.03
804.644	0.03
804.949	0.03
805.253	0.04
805.558	0.04
805.862	0.04
806.167	0.04
806.471	0.03
806.775	0.04
807.08	0.04
807.384	0.04
807.688	0.04
807.992	0.04
808.296	0.03
808.6	0.04
808.904	0.05
809.207	0.04
809.511	0.05
809.815	0.05
810.119	0.05
810.422	0.05
810.726	0.05
811.029	0.06
811.332	0.04
811.636	0.05
811.939	0.04
812.242	0.06
812.546	0.04
812.849	0.05
813.152	0.05
813.455	0.05
813.758	0.05
814.06	0.05
814.363	0.05
814.666	0.05
814.969	0.05
815.271	0.04
815.574	0.04
815.877	0.04
816.179	0.05
816.481	0.04
816.784	0.05
817.086	0.04
817.388	0.04
817.69	0.03
817.993	0.03
818.295	0.04
818.597	0.04
818.899	0.03
819.2	0.03
819.502	0.03
819.804	0.03
820.106	0.03
820.407	0.03
820.709	0.03
821.01	0.03
821.312	0.03
821.613	0.03
821.915	0.03
822.216	0.03
822.517	0.02
822.818	0.03
823.119	0.04
823.42	0.03
823.721	0.03
824.022	0.03
824.323	0.03
824.624	0.03
824.925	0.03
825.226	0.03
825.526	0.03
825.827	0.03
826.127	0.03
826.428	0.03
826.728	0.02
827.028	0.03
827.329	0.03
827.629	0.02
827.929	0.03
828.229	0.03
828.529	0.04
828.829	0.03
829.129	0.03
829.429	0.03
829.729	0.03
830.029	0.03
830.328	0.03
830.628	0.02
830.927	0.01
831.227	0.02
831.526	0.02
831.826	0.02
832.125	0.02
832.424	0.01
832.724	0.02
833.023	0.01
833.322	0.03
833.621	0.02
833.92	0.01
834.219	0.01
834.518	0.02
834.816	0.01
835.115	0.01
835.414	0.01
835.712	0.01
836.011	0.01
836.309	0.01
836.608	0.01
836.906	0
837.205	0
837.503	0
837.801	0
838.099	-0
838.397	-0.01
838.695	-0.01
838.993	-0.01
839.291	-0.01
839.589	-0
839.887	-0.01
840.184	-0.01
840.482	-0.01
840.78	-0.01
841.077	-0.02
841.375	-0.02
841.672	-0.01
841.969	-0.02
842.267	-0.02
842.564	-0.02
842.861	-0.02
843.158	-0.02
843.455	-0.04
843.752	-0.03
844.049	-0.03
844.346	-0.02
844.643	-0.04
844.94	-0.03
845.236	-0.03
845.533	-0.03
845.83	-0.04
846.126	-0.04
846.423	-0.05
846.719	-0.05
847.015	-0.05
847.312	-0.05
847.608	-0.05
847.904	-0.06
848.2	-0.06
848.496	-0.06
848.792	-0.06
849.088	-0.05
849.384	-0.06
849.68	-0.06
849.975	-0.06
850.271	-0.07
850.567	-0.06
850.862	-0.07
851.158	-0.07
851.453	-0.06
851.748	-0.08
852.044	-0.07
852.339	-0.06
852.634	-0.08
852.929	-0.07
853.224	-0.08
853.519	-0.08
853.814	-0.07
854.109	-0.08
854.404	-0.08
854.699	-0.08
854.994	-0.08
855.288	-0.07
855.583	-0.08
855.877	-0.08
856.172	-0.08
856.466	-0.08
856.76	-0.09
857.055	-0.09
857.349	-0.09
857.643	-0.1
857.937	-0.1
858.231	-0.1
858.525	-0.1
858.819	-0.1
859.113	-0.11
859.407	-0.1
859.701	-0.11
859.994	-0.12
860.288	-0.11
860.581	-0.11
860.875	-0.11
861.168	-0.12
861.462	-0.11
861.755	-0.11
862.048	-0.12
862.341	-0.11
862.634	-0.11
862.928	-0.11
863.221	-0.11
863.513	-0.12
863.806	-0.13
864.099	-0.13
864.392	-0.13
864.685	-0.12
864.977	-0.12
865.27	-0.13
865.562	-0.12
865.855	-0.12
866.147	-0.13
866.44	-0.12
866.732	-0.13
867.024	-0.13
867.316	-0.13
867.608	-0.14
867.9	-0.13
868.192	-0.14
868.484	-0.14
868.776	-0.14
869.068	-0.14
869.359	-0.15
869.651	-0.15
869.943	-0.16
870.234	-0.15
870.526	-0.17
870.817	-0.16
871.108	-0.15
871.4	-0.15
871.691	-0.17
871.982	-0.17
872.273	-0.18
872.564	-0.17
872.855	-0.17
873.146	-0.18
873.437	-0.17
873.728	-0.18
874.019	-0.17
874.309	-0.17
874.6	-0.18
874.89	-0.17
875.181	-0.18
875.471	-0.17
875.762	-0.17
876.052	-0.17
876.342	-0.16
876.632	-0.16
876.922	-0.18
877.213	-0.17
877.503	-0.18
877.792	-0.17
878.082	-0.18
878.372	-0.16
878.662	-0.19
878.952	-0.19
879.241	-0.17
879.531	-0.16
879.82	-0.17
880.11	-0.17
880.399	-0.17
880.688	-0.17
880.978	-0.17
881.267	-0.17
