Data from 12-12-AQDScycling_Absorbance__565__00565.txt Node

Date: Tue Dec 12 13:17:59 EST 2023
User: kyuminlee
Spectrometer: FLMS00943
Trigger mode: 0
Integration Time (sec): 1.000000E-1
Scans to average: 1
Electric dark correction enabled: true
Nonlinearity correction enabled: false
Boxcar width: 0
XAxis mode: Wavelengths
Number of Pixels in Spectrum: 2048
>>>>>Begin Spectral Data<<<<<
179.651	0.26
180.037	0.26
180.424	0.26
180.81	0.16
181.197	0.66
181.583	-0.23
181.97	0.07
182.356	-0
182.743	-1.13
183.129	0.69
183.515	1.31
183.901	-2.33
184.288	0.29
184.674	-0
185.06	-0.65
185.446	-0.41
185.832	-0.97
186.218	-0
186.604	-0.24
186.99	0.9
187.376	-0
187.762	0.07
188.148	-0
188.534	0.51
188.92	0.25
189.305	0.06
189.691	0.13
190.077	0.19
190.463	0.07
190.848	0.19
191.234	0.16
191.619	-0.01
192.005	0.1
192.391	0.17
192.776	0.18
193.161	0.24
193.547	0.12
193.932	0
194.318	0.04
194.703	0.15
195.088	0.04
195.473	0.21
195.859	0.14
196.244	0.21
196.629	0.11
197.014	0.03
197.399	0.16
197.784	0.13
198.169	0.14
198.554	0.22
198.939	0.03
199.324	-0.01
199.709	-0.02
200.094	0.11
200.478	0.02
200.863	0.18
201.248	0.22
201.633	0.16
202.017	0.09
202.402	0.12
202.787	0.11
203.171	0.05
203.556	0.12
203.94	0.14
204.325	0.11
204.709	0.14
205.093	0.13
205.478	0.1
205.862	0.01
206.246	0.13
206.631	0.2
207.015	0.03
207.399	0.21
207.783	0.15
208.167	0.14
208.551	0.18
208.935	0.22
209.319	0.29
209.703	0.16
210.087	0.23
210.471	0.1
210.855	0.16
211.239	0.09
211.623	0.34
212.007	0.24
212.39	0.28
212.774	0.18
213.158	0.04
213.541	0.17
213.925	0.14
214.309	0.33
214.692	0.25
215.076	0.26
215.459	0.2
215.842	0.2
216.226	0.18
216.609	0.21
216.993	0.29
217.376	0.32
217.759	0.15
218.142	0.28
218.525	0.44
218.909	0.36
219.292	0.42
219.675	0.45
220.058	0.35
220.441	0.56
220.824	0.49
221.207	0.63
221.59	0.49
221.973	0.44
222.355	0.61
222.738	0.71
223.121	0.54
223.504	0.5
223.886	0.76
224.269	0.68
224.652	0.68
225.034	0.74
225.417	0.64
225.799	0.69
226.182	0.89
226.564	0.78
226.947	0.78
227.329	0.73
227.711	0.92
228.094	1.04
228.476	0.89
228.858	0.71
229.24	0.72
229.623	1.05
230.005	0.83
230.387	0.8
230.769	0.83
231.151	0.9
231.533	0.92
231.915	1.04
232.297	0.99
232.679	1.02
233.061	0.97
233.442	1.02
233.824	1.08
234.206	1.07
234.588	1.04
234.969	1.2
235.351	1.05
235.733	1.11
236.114	1.3
236.496	1.04
236.877	1.12
237.259	1.1
237.64	1.03
238.022	1.04
238.403	1.09
238.784	1.05
239.165	0.95
239.547	1.03
239.928	1.13
240.309	1.05
240.69	1.03
241.071	1.11
241.452	1.08
241.834	1.12
242.215	1.04
242.595	1.03
242.976	1.21
243.357	1.02
243.738	1.09
244.119	1.69
244.5	1.1
244.881	1.16
245.261	1.24
245.642	1.14
246.023	1.11
246.403	1.17
246.784	1.24
247.164	1.3
247.545	1.18
247.925	1.39
248.306	1.2
248.686	1.36
249.067	1.19
249.447	1.36
249.827	1.7
250.207	1.43
250.588	1.3
250.968	1.32
251.348	1.34
251.728	1.36
252.108	1.31
252.488	1.4
252.868	1.27
253.248	1.2
253.628	1.34
254.008	1.34
254.388	1.34
254.768	1.38
255.147	1.39
255.527	1.29
255.907	1.31
256.287	1.28
256.666	1.32
257.046	1.54
257.425	1.51
257.805	1.35
258.184	1.3
258.564	1.4
258.943	1.38
259.323	1.64
259.702	1.37
260.081	1.44
260.461	1.37
260.84	1.64
261.219	1.72
261.598	1.54
261.977	1.48
262.356	1.63
262.736	1.51
263.115	1.58
263.494	1.42
263.873	1.36
264.251	1.44
264.63	1.51
265.009	1.41
265.388	1.45
265.767	1.31
266.145	1.41
266.524	1.48
266.903	1.42
267.281	1.3
267.66	1.44
268.039	1.48
268.417	1.33
268.796	1.4
269.174	1.45
269.552	1.38
269.931	1.57
270.309	1.44
270.687	1.63
271.066	1.63
271.444	1.37
271.822	1.52
272.2	1.54
272.578	1.41
272.956	1.33
273.334	1.23
273.712	1.38
274.09	1.46
274.468	1.35
274.846	1.39
275.224	1.34
275.602	1.38
275.98	1.36
276.357	1.4
276.735	1.42
277.113	1.43
277.49	1.29
277.868	1.29
278.246	1.42
278.623	1.34
279.001	1.34
279.378	1.33
279.756	1.45
280.133	1.47
280.51	1.42
280.888	1.58
281.265	1.29
281.642	1.6
282.019	1.63
282.396	1.46
282.773	1.38
283.151	1.53
283.528	1.53
283.905	1.44
284.282	1.43
284.659	1.62
285.035	1.21
285.412	1.35
285.789	1.44
286.166	1.49
286.543	1.4
286.919	1.54
287.296	1.32
287.673	1.66
288.049	1.43
288.426	1.49
288.802	1.53
289.179	1.42
289.555	1.63
289.932	1.54
290.308	1.27
290.684	1.32
291.061	1.35
291.437	1.45
291.813	1.32
292.189	1.35
292.565	1.5
292.942	1.26
293.318	1.32
293.694	1.44
294.07	1.32
294.446	1.45
294.822	1.54
295.197	1.35
295.573	1.37
295.949	1.42
296.325	1.46
296.701	1.52
297.076	1.45
297.452	1.41
297.828	1.37
298.203	1.62
298.579	1.43
298.954	1.33
299.33	1.33
299.705	1.36
300.081	1.44
300.456	1.33
300.831	1.3
301.206	1.21
301.582	1.35
301.957	1.24
302.332	1.28
302.707	1.2
303.082	1.18
303.457	1.16
303.832	1.16
304.207	1.1
304.582	1.07
304.957	1.09
305.332	1.1
305.707	1.04
306.082	1.04
306.456	1.05
306.831	1.01
307.206	1.06
307.58	1
307.955	1
308.33	0.94
308.704	0.94
309.079	0.92
309.453	0.96
309.828	0.9
310.202	0.89
310.576	0.89
310.951	0.88
311.325	0.88
311.699	0.86
312.073	0.8
312.447	0.82
312.821	0.82
313.196	0.82
313.57	0.8
313.944	0.77
314.317	0.75
314.691	0.78
315.065	0.79
315.439	0.76
315.813	0.75
316.187	0.74
316.56	0.78
316.934	0.75
317.308	0.71
317.681	0.73
318.055	0.7
318.428	0.71
318.802	0.7
319.175	0.67
319.549	0.69
319.922	0.69
320.295	0.68
320.669	0.71
321.042	0.69
321.415	0.7
321.788	0.72
322.162	0.67
322.535	0.68
322.908	0.68
323.281	0.67
323.654	0.68
324.027	0.65
324.4	0.68
324.773	0.68
325.145	0.68
325.518	0.68
325.891	0.66
326.264	0.71
326.636	0.68
327.009	0.68
327.382	0.69
327.754	0.7
328.127	0.69
328.499	0.68
328.872	0.68
329.244	0.69
329.616	0.69
329.989	0.69
330.361	0.71
330.733	0.69
331.106	0.7
331.478	0.73
331.85	0.7
332.222	0.69
332.594	0.75
332.966	0.73
333.338	0.81
333.71	0.77
334.082	0.78
334.454	0.76
334.826	0.78
335.197	0.79
335.569	0.8
335.941	0.81
336.312	0.83
336.684	0.84
337.056	0.87
337.427	0.89
337.799	0.87
338.17	0.87
338.542	0.87
338.913	0.88
339.284	0.9
339.656	0.93
340.027	0.9
340.398	0.92
340.769	0.9
341.141	0.93
341.512	0.95
341.883	0.94
342.254	0.95
342.625	1.01
342.996	0.96
343.367	0.96
343.738	1.03
344.108	0.99
344.479	1.05
344.85	0.98
345.221	1.02
345.591	1.05
345.962	1.09
346.333	1.04
346.703	1
347.074	1.11
347.444	1.05
347.815	1.08
348.185	1.08
348.556	1.1
348.926	1.09
349.296	1.14
349.666	1.16
350.037	1.13
350.407	1.07
350.777	1.12
351.147	1.21
351.517	1.3
351.887	1.25
352.257	1.27
352.627	1.22
352.997	1.2
353.367	1.34
353.737	1.28
354.106	1.32
354.476	1.31
354.846	1.37
355.216	1.37
355.585	1.43
355.955	1.48
356.324	1.41
356.694	1.46
357.063	1.35
357.433	1.34
357.802	1.48
358.171	1.48
358.541	1.41
358.91	1.48
359.279	1.5
359.648	1.4
360.017	1.47
360.387	1.49
360.756	1.46
361.125	1.63
361.494	1.55
361.863	1.42
362.231	1.48
362.6	1.58
362.969	1.51
363.338	1.43
363.707	1.81
364.075	1.67
364.444	1.41
364.813	1.46
365.181	1.57
365.55	1.57
365.918	1.9
366.287	1.63
366.655	1.54
367.024	1.52
367.392	1.66
367.76	1.49
368.128	1.65
368.497	1.51
368.865	1.69
369.233	1.57
369.601	1.58
369.969	1.56
370.337	1.86
370.705	1.49
371.073	1.61
371.441	1.53
371.809	1.43
372.177	1.39
372.544	1.64
372.912	1.42
373.28	1.64
373.647	1.6
374.015	1.71
374.383	1.62
374.75	1.82
375.118	1.56
375.485	1.67
375.853	1.49
376.22	1.52
376.587	1.56
376.955	1.71
377.322	1.53
377.689	1.46
378.056	1.57
378.423	1.46
378.79	1.62
379.157	1.7
379.524	1.7
379.891	1.55
380.258	1.63
380.625	1.61
380.992	1.51
381.359	1.55
381.726	1.7
382.092	1.52
382.459	1.45
382.826	1.64
383.192	1.61
383.559	1.57
383.925	1.56
384.292	1.46
384.658	1.63
385.025	1.63
385.391	1.67
385.757	1.66
386.123	1.59
386.49	1.54
386.856	1.5
387.222	1.64
387.588	1.54
387.954	1.75
388.32	1.61
388.686	1.68
389.052	1.4
389.418	1.59
389.784	1.65
390.15	1.71
390.515	1.39
390.881	1.67
391.247	1.47
391.613	1.73
391.978	1.5
392.344	1.66
392.709	1.58
393.075	1.57
393.44	1.62
393.806	1.51
394.171	1.64
394.536	1.41
394.902	1.56
395.267	1.52
395.632	1.47
395.997	1.54
396.362	1.55
396.727	1.55
397.092	1.61
397.457	1.7
397.822	1.47
398.187	1.55
398.552	1.49
398.917	1.79
399.282	1.48
399.646	1.51
400.011	1.73
400.376	1.58
400.74	1.55
401.105	1.53
401.47	1.72
401.834	1.69
402.199	1.69
402.563	1.61
402.927	1.51
403.292	1.57
403.656	1.76
404.02	1.76
404.384	1.64
404.749	1.5
405.113	1.66
405.477	1.57
405.841	1.66
406.205	1.56
406.569	1.48
406.933	1.5
407.296	1.53
407.66	1.47
408.024	1.72
408.388	1.87
408.752	1.64
409.115	1.5
409.479	1.7
409.842	1.58
410.206	1.47
410.569	1.52
410.933	1.59
411.296	1.5
411.66	1.66
412.023	1.44
412.386	1.69
412.749	1.52
413.113	1.66
413.476	1.6
413.839	1.49
414.202	1.46
414.565	1.45
414.928	1.44
415.291	1.47
415.654	1.38
416.017	1.53
416.38	1.48
416.742	1.49
417.105	1.3
417.468	1.47
417.83	1.51
418.193	1.6
418.556	1.46
418.918	1.47
419.281	1.51
419.643	1.63
420.005	1.59
420.368	1.51
420.73	1.47
421.092	1.6
421.455	1.56
421.817	1.37
422.179	1.46
422.541	1.48
422.903	1.73
423.265	1.55
423.627	1.5
423.989	1.62
424.351	1.52
424.713	1.5
425.075	1.55
425.436	1.59
425.798	1.54
426.16	1.49
426.521	1.72
426.883	1.55
427.245	1.55
427.606	1.65
427.967	1.5
428.329	1.57
428.69	1.49
429.052	1.55
429.413	1.56
429.774	1.58
430.135	1.67
430.497	1.65
430.858	1.58
431.219	1.6
431.58	1.44
431.941	1.58
432.302	1.49
432.663	1.6
433.024	1.62
433.384	1.65
433.745	1.54
434.106	1.72
434.467	1.55
434.827	1.49
435.188	1.55
435.548	1.67
435.909	1.6
436.269	1.68
436.63	1.54
436.99	1.49
437.351	1.45
437.711	1.59
438.071	1.52
438.431	1.42
438.792	1.52
439.152	1.51
439.512	1.53
439.872	1.45
440.232	1.47
440.592	1.51
440.952	1.55
441.312	1.38
441.671	1.4
442.031	1.59
442.391	1.51
442.751	1.49
443.11	1.51
443.47	1.42
443.83	1.46
444.189	1.44
444.549	1.4
444.908	1.4
445.267	1.44
445.627	1.47
445.986	1.43
446.345	1.39
446.705	1.48
447.064	1.41
447.423	1.36
447.782	1.38
448.141	1.36
448.5	1.33
448.859	1.33
449.218	1.34
449.577	1.36
449.936	1.36
450.295	1.37
450.653	1.34
451.012	1.31
451.371	1.37
451.729	1.3
452.088	1.34
452.447	1.36
452.805	1.28
453.163	1.32
453.522	1.3
453.88	1.27
454.239	1.26
454.597	1.21
454.955	1.19
455.313	1.23
455.671	1.21
456.029	1.19
456.388	1.17
456.746	1.19
457.104	1.18
457.461	1.14
457.819	1.11
458.177	1.12
458.535	1.08
458.893	1.08
459.25	1.09
459.608	1.06
459.966	1.06
460.323	1.05
460.681	1.01
461.038	1.03
461.396	1
461.753	0.99
462.111	0.98
462.468	0.96
462.825	0.92
463.182	0.92
463.54	0.91
463.897	0.92
464.254	0.9
464.611	0.88
464.968	0.87
465.325	0.86
465.682	0.85
466.039	0.84
466.395	0.8
466.752	0.8
467.109	0.8
467.466	0.78
467.822	0.77
468.179	0.76
468.535	0.75
468.892	0.74
469.248	0.71
469.605	0.7
469.961	0.69
470.318	0.7
470.674	0.68
471.03	0.67
471.386	0.67
471.743	0.65
472.099	0.63
472.455	0.64
472.811	0.61
473.167	0.61
473.523	0.6
473.879	0.58
474.235	0.58
474.59	0.57
474.946	0.54
475.302	0.54
475.657	0.53
476.013	0.51
476.369	0.52
476.724	0.51
477.08	0.49
477.435	0.48
477.791	0.48
478.146	0.47
478.501	0.45
478.857	0.46
479.212	0.44
479.567	0.43
479.922	0.42
480.277	0.41
480.632	0.4
480.987	0.4
481.342	0.4
481.697	0.38
482.052	0.38
482.407	0.37
482.762	0.36
483.116	0.35
483.471	0.34
483.826	0.34
484.18	0.33
484.535	0.32
484.89	0.32
485.244	0.32
485.598	0.31
485.953	0.3
486.307	0.29
486.661	0.29
487.016	0.28
487.37	0.28
487.724	0.27
488.078	0.27
488.432	0.27
488.786	0.26
489.14	0.25
489.494	0.25
489.848	0.24
490.202	0.23
490.556	0.23
490.91	0.23
491.263	0.23
491.617	0.22
491.971	0.22
492.324	0.21
492.678	0.21
493.031	0.21
493.385	0.2
493.738	0.2
494.091	0.2
494.445	0.19
494.798	0.19
495.151	0.18
495.504	0.18
495.857	0.17
496.21	0.18
496.564	0.17
496.916	0.17
497.269	0.16
497.622	0.16
497.975	0.15
498.328	0.16
498.681	0.15
499.033	0.15
499.386	0.14
499.739	0.14
500.091	0.14
500.444	0.14
500.796	0.14
501.149	0.13
501.501	0.14
501.854	0.13
502.206	0.13
502.558	0.12
502.91	0.13
503.263	0.13
503.615	0.12
503.967	0.12
504.319	0.12
504.671	0.11
505.023	0.12
505.375	0.11
505.726	0.11
506.078	0.11
506.43	0.11
506.782	0.1
507.133	0.1
507.485	0.11
507.837	0.12
508.188	0.11
508.54	0.1
508.891	0.1
509.243	0.09
509.594	0.1
509.945	0.09
510.296	0.09
510.648	0.09
510.999	0.09
511.35	0.09
511.701	0.1
512.052	0.1
512.403	0.09
512.754	0.09
513.105	0.09
513.456	0.09
513.807	0.08
514.157	0.09
514.508	0.08
514.859	0.08
515.209	0.08
515.56	0.09
515.91	0.08
516.261	0.08
516.611	0.08
516.962	0.08
517.312	0.08
517.662	0.08
518.013	0.08
518.363	0.08
518.713	0.09
519.063	0.08
519.413	0.08
519.763	0.08
520.113	0.08
520.463	0.08
520.813	0.08
521.163	0.08
521.512	0.08
521.862	0.08
522.212	0.08
522.562	0.08
522.911	0.08
523.261	0.08
523.61	0.08
523.96	0.08
524.309	0.08
524.658	0.08
525.008	0.07
525.357	0.07
525.706	0.08
526.056	0.07
526.405	0.07
526.754	0.07
527.103	0.07
527.452	0.08
527.801	0.07
528.15	0.07
528.499	0.07
528.847	0.07
529.196	0.08
529.545	0.07
529.893	0.08
530.242	0.07
530.591	0.08
530.939	0.08
531.288	0.08
531.636	0.08
531.985	0.07
532.333	0.07
532.681	0.08
533.029	0.07
533.378	0.08
533.726	0.08
534.074	0.08
534.422	0.07
534.77	0.08
535.118	0.07
535.466	0.07
535.814	0.07
536.162	0.08
536.509	0.07
536.857	0.08
537.205	0.08
537.552	0.08
537.9	0.07
538.248	0.07
538.595	0.08
538.943	0.08
539.29	0.07
539.637	0.07
539.985	0.07
540.332	0.07
540.679	0.07
541.026	0.07
541.373	0.08
541.721	0.07
542.068	0.07
542.415	0.07
542.762	0.06
543.108	0.06
543.455	0.06
543.802	0.06
544.149	0.06
544.496	0.06
544.842	0.06
545.189	0.06
545.535	0.05
545.882	0.06
546.228	0.06
546.575	0.05
546.921	0.06
547.267	0.06
547.614	0.06
547.96	0.06
548.306	0.06
548.652	0.06
548.998	0.06
549.344	0.06
549.69	0.06
550.036	0.06
550.382	0.06
550.728	0.06
551.074	0.06
551.42	0.07
551.765	0.07
552.111	0.07
552.457	0.06
552.802	0.06
553.148	0.06
553.493	0.06
553.839	0.07
554.184	0.07
554.529	0.06
554.875	0.06
555.22	0.07
555.565	0.07
555.91	0.06
556.255	0.07
556.6	0.07
556.945	0.05
557.29	0.06
557.635	0.07
557.98	0.06
558.325	0.06
558.67	0.06
559.014	0.06
559.359	0.06
559.704	0.06
560.048	0.05
560.393	0.06
560.737	0.05
561.082	0.07
561.426	0.06
561.77	0.06
562.115	0.06
562.459	0.06
562.803	0.06
563.147	0.05
563.491	0.06
563.835	0.07
564.179	0.06
564.523	0.06
564.867	0.05
565.211	0.06
565.555	0.07
565.899	0.07
566.242	0.06
566.586	0.05
566.93	0.06
567.273	0.06
567.617	0.07
567.96	0.06
568.304	0.06
568.647	0.05
568.99	0.06
569.334	0.07
569.677	0.06
570.02	0.07
570.363	0.06
570.706	0.06
571.049	0.07
571.392	0.07
571.735	0.06
572.078	0.07
572.421	0.07
572.764	0.07
573.106	0.07
573.449	0.06
573.792	0.06
574.134	0.06
574.477	0.07
574.819	0.06
575.162	0.06
575.504	0.06
575.847	0.06
576.189	0.07
576.531	0.06
576.873	0.06
577.215	0.06
577.558	0.06
577.9	0.05
578.242	0.06
578.584	0.06
578.926	0.06
579.267	0.06
579.609	0.06
579.951	0.06
580.293	0.06
580.634	0.06
580.976	0.06
581.318	0.06
581.659	0.06
582.001	0.06
582.342	0.06
582.683	0.07
583.025	0.05
583.366	0.05
583.707	0.06
584.049	0.05
584.39	0.05
584.731	0.05
585.072	0.05
585.413	0.06
585.754	0.05
586.095	0.06
586.435	0.05
586.776	0.06
587.117	0.05
587.458	0.05
587.798	0.06
588.139	0.06
588.48	0.05
588.82	0.05
589.161	0.05
589.501	0.05
589.841	0.06
590.182	0.05
590.522	0.05
590.862	0.06
591.202	0.06
591.542	0.06
591.882	0.06
592.222	0.06
592.562	0.05
592.902	0.06
593.242	0.05
593.582	0.06
593.922	0.06
594.261	0.05
594.601	0.05
594.941	0.05
595.28	0.06
595.62	0.06
595.959	0.05
596.299	0.05
596.638	0.05
596.977	0.06
597.317	0.06
597.656	0.05
597.995	0.06
598.334	0.06
598.673	0.07
599.012	0.06
599.351	0.07
599.69	0.06
600.029	0.06
600.368	0.07
600.707	0.06
601.046	0.06
601.384	0.06
601.723	0.07
602.061	0.06
602.4	0.06
602.738	0.07
603.077	0.06
603.415	0.05
603.754	0.07
604.092	0.06
604.43	0.06
604.768	0.06
605.107	0.06
605.445	0.05
605.783	0.05
606.121	0.05
606.459	0.06
606.796	0.06
607.134	0.06
607.472	0.05
607.81	0.06
608.148	0.05
608.485	0.06
608.823	0.06
609.16	0.06
609.498	0.05
609.835	0.05
610.173	0.05
610.51	0.06
610.847	0.05
611.185	0.07
611.522	0.06
611.859	0.06
612.196	0.06
612.533	0.06
612.87	0.07
613.207	0.07
613.544	0.06
613.881	0.07
614.217	0.07
614.554	0.06
614.891	0.07
615.228	0.07
615.564	0.07
615.901	0.07
616.237	0.07
616.574	0.06
616.91	0.08
617.246	0.07
617.583	0.06
617.919	0.07
618.255	0.07
618.591	0.07
618.927	0.07
619.263	0.07
619.599	0.07
619.935	0.07
620.271	0.07
620.607	0.07
620.943	0.07
621.279	0.07
621.614	0.07
621.95	0.07
622.286	0.07
622.621	0.06
622.957	0.07
623.292	0.07
623.627	0.06
623.963	0.06
624.298	0.06
624.633	0.06
624.968	0.06
625.304	0.06
625.639	0.06
625.974	0.06
626.309	0.06
626.644	0.06
626.979	0.07
627.313	0.07
627.648	0.05
627.983	0.07
628.318	0.06
628.652	0.06
628.987	0.06
629.321	0.06
629.656	0.05
629.99	0.05
630.325	0.05
630.659	0.06
630.993	0.05
631.327	0.05
631.662	0.04
631.996	0.05
632.33	0.05
632.664	0.05
632.998	0.05
633.332	0.05
633.666	0.05
633.999	0.06
634.333	0.05
634.667	0.05
635.001	0.05
635.334	0.05
635.668	0.05
636.001	0.06
636.335	0.05
636.668	0.05
637.001	0.04
637.335	0.05
637.668	0.05
638.001	0.05
638.334	0.05
638.668	0.05
639.001	0.05
639.334	0.05
639.667	0.05
639.999	0.05
640.332	0.05
640.665	0.05
640.998	0.05
641.331	0.06
641.663	0.05
641.996	0.05
642.328	0.06
642.661	0.05
642.993	0.05
643.326	0.05
643.658	0.05
643.99	0.04
644.323	0.05
644.655	0.05
644.987	0.05
645.319	0.05
645.651	0.06
645.983	0.05
646.315	0.05
646.647	0.05
646.979	0.06
647.31	0.06
647.642	0.05
647.974	0.05
648.305	0.06
648.637	0.05
648.968	0.06
649.3	0.06
649.631	0.05
649.963	0.05
650.294	0.06
650.625	0.05
650.957	0.06
651.288	0.06
651.619	0.06
651.95	0.06
652.281	0.05
652.612	0.06
652.943	0.06
653.274	0.07
653.604	0.06
653.935	0.06
654.266	0.06
654.596	0.06
654.927	0.05
655.258	0.06
655.588	0.06
655.918	0.06
656.249	0.04
656.579	0.05
656.909	0.05
657.24	0.05
657.57	0.05
657.9	0.06
658.23	0.06
658.56	0.06
658.89	0.06
659.22	0.05
659.55	0.06
659.88	0.06
660.209	0.06
660.539	0.07
660.869	0.06
661.198	0.06
661.528	0.06
661.857	0.06
662.187	0.06
662.516	0.06
662.846	0.05
663.175	0.05
663.504	0.05
663.833	0.05
664.163	0.06
664.492	0.05
664.821	0.06
665.15	0.06
665.479	0.06
665.807	0.06
666.136	0.06
666.465	0.06
666.794	0.06
667.122	0.06
667.451	0.06
667.78	0.06
668.108	0.06
668.437	0.06
668.765	0.06
669.093	0.06
669.422	0.06
669.75	0.06
670.078	0.06
670.406	0.05
670.734	0.06
671.062	0.06
671.39	0.05
671.718	0.06
672.046	0.05
672.374	0.05
672.702	0.05
673.029	0.05
673.357	0.06
673.685	0.06
674.012	0.06
674.34	0.05
674.667	0.06
674.995	0.06
675.322	0.06
675.649	0.05
675.977	0.06
676.304	0.05
676.631	0.06
676.958	0.06
677.285	0.05
677.612	0.05
677.939	0.06
678.266	0.06
678.593	0.06
678.92	0.05
679.246	0.05
679.573	0.05
679.9	0.05
680.226	0.06
680.553	0.05
680.879	0.06
681.206	0.06
681.532	0.05
681.858	0.05
682.184	0.06
682.511	0.06
682.837	0.05
683.163	0.06
683.489	0.05
683.815	0.05
684.141	0.06
684.467	0.06
684.793	0.05
685.118	0.05
685.444	0.06
685.77	0.06
686.095	0.05
686.421	0.05
686.746	0.05
687.072	0.05
687.397	0.05
687.723	0.06
688.048	0.06
688.373	0.06
688.698	0.06
689.023	0.06
689.349	0.05
689.674	0.06
689.999	0.05
690.323	0.05
690.648	0.05
690.973	0.05
691.298	0.05
691.623	0.05
691.947	0.05
692.272	0.05
692.596	0.06
692.921	0.06
693.245	0.05
693.57	0.06
693.894	0.06
694.218	0.06
694.543	0.05
694.867	0.06
695.191	0.06
695.515	0.06
695.839	0.05
696.163	0.06
696.487	0.06
696.811	0.05
697.135	0.05
697.458	0.06
697.782	0.06
698.106	0.05
698.429	0.06
698.753	0.05
699.076	0.05
699.4	0.05
699.723	0.05
700.046	0.05
700.37	0.06
700.693	0.06
701.016	0.05
701.339	0.06
701.662	0.06
701.985	0.06
702.308	0.05
702.631	0.06
702.954	0.06
703.277	0.06
703.599	0.06
703.922	0.05
704.245	0.05
704.567	0.05
704.89	0.05
705.212	0.05
705.535	0.05
705.857	0.05
706.179	0.05
706.502	0.04
706.824	0.05
707.146	0.05
707.468	0.05
707.79	0.05
708.112	0.05
708.434	0.05
708.756	0.05
709.078	0.05
709.399	0.04
709.721	0.04
710.043	0.05
710.364	0.05
710.686	0.06
711.007	0.05
711.329	0.06
711.65	0.05
711.972	0.05
712.293	0.05
712.614	0.06
712.935	0.06
713.256	0.06
713.577	0.05
713.898	0.06
714.219	0.05
714.54	0.05
714.861	0.05
715.182	0.05
715.503	0.05
715.823	0.05
716.144	0.04
716.464	0.04
716.785	0.04
717.105	0.05
717.426	0.05
717.746	0.05
718.066	0.04
718.387	0.05
718.707	0.04
719.027	0.05
719.347	0.04
719.667	0.04
719.987	0.04
720.307	0.04
720.627	0.04
720.947	0.04
721.266	0.05
721.586	0.04
721.906	0.05
722.225	0.04
722.545	0.04
722.864	0.04
723.184	0.05
723.503	0.04
723.823	0.05
724.142	0.04
724.461	0.04
724.78	0.04
725.099	0.04
725.418	0.05
725.737	0.05
726.056	0.05
726.375	0.05
726.694	0.04
727.013	0.04
727.331	0.04
727.65	0.04
727.969	0.05
728.287	0.05
728.606	0.04
728.924	0.04
729.242	0.05
729.561	0.04
729.879	0.05
730.197	0.05
730.515	0.05
730.834	0.04
731.152	0.05
731.47	0.05
731.788	0.05
732.105	0.05
732.423	0.04
732.741	0.05
733.059	0.04
733.376	0.05
733.694	0.05
734.012	0.05
734.329	0.06
734.647	0.05
734.964	0.05
735.281	0.05
735.599	0.05
735.916	0.05
736.233	0.06
736.55	0.05
736.867	0.05
737.184	0.05
737.501	0.05
737.818	0.05
738.135	0.05
738.452	0.05
738.768	0.05
739.085	0.05
739.402	0.04
739.718	0.05
740.035	0.04
740.351	0.05
740.668	0.05
740.984	0.04
741.3	0.04
741.617	0.05
741.933	0.05
742.249	0.05
742.565	0.04
742.881	0.05
743.197	0.05
743.513	0.04
743.829	0.04
744.144	0.05
744.46	0.04
744.776	0.04
745.091	0.04
745.407	0.05
745.722	0.04
746.038	0.04
746.353	0.03
746.669	0.05
746.984	0.03
747.299	0.04
747.614	0.05
747.93	0.04
748.245	0.04
748.56	0.04
748.875	0.03
749.189	0.04
749.504	0.04
749.819	0.04
750.134	0.03
750.448	0.04
750.763	0.04
751.078	0.03
751.392	0.04
751.707	0.05
752.021	0.05
752.335	0.05
752.65	0.05
752.964	0.04
753.278	0.05
753.592	0.04
753.906	0.04
754.22	0.05
754.534	0.05
754.848	0.04
755.162	0.05
755.476	0.05
755.789	0.05
756.103	0.04
756.417	0.05
756.73	0.05
757.044	0.05
757.357	0.04
757.671	0.05
757.984	0.05
758.297	0.05
758.61	0.05
758.924	0.05
759.237	0.05
759.55	0.05
759.863	0.04
760.176	0.05
760.488	0.05
760.801	0.04
761.114	0.04
761.427	0.04
761.739	0.05
762.052	0.04
762.365	0.04
762.677	0.04
762.99	0.04
763.302	0.04
763.614	0.05
763.926	0.04
764.239	0.04
764.551	0.04
764.863	0.04
765.175	0.05
765.487	0.05
765.799	0.04
766.111	0.04
766.423	0.04
766.734	0.05
767.046	0.04
767.358	0.05
767.669	0.05
767.981	0.04
768.292	0.04
768.604	0.04
768.915	0.04
769.226	0.04
769.537	0.03
769.849	0.05
770.16	0.04
770.471	0.04
770.782	0.04
771.093	0.04
771.404	0.03
771.715	0.03
772.025	0.04
772.336	0.04
772.647	0.04
772.957	0.04
773.268	0.04
773.578	0.04
773.889	0.05
774.199	0.06
774.51	0.05
774.82	0.05
775.13	0.05
775.44	0.05
775.75	0.05
776.06	0.05
776.37	0.04
776.68	0.05
776.99	0.05
777.3	0.04
777.61	0.05
777.92	0.05
778.229	0.04
778.539	0.04
778.848	0.04
779.158	0.04
779.467	0.05
779.777	0.04
780.086	0.04
780.395	0.04
780.704	0.03
781.013	0.03
781.323	0.03
781.632	0.04
781.941	0.04
782.249	0.04
782.558	0.04
782.867	0.04
783.176	0.03
783.485	0.04
783.793	0.04
784.102	0.04
784.41	0.03
784.719	0.04
785.027	0.04
785.335	0.03
785.644	0.04
785.952	0.03
786.26	0.04
786.568	0.03
786.876	0.04
787.184	0.04
787.492	0.04
787.8	0.04
788.108	0.04
788.416	0.04
788.723	0.03
789.031	0.04
789.338	0.04
789.646	0.04
789.953	0.05
790.261	0.04
790.568	0.04
790.876	0.04
791.183	0.04
791.49	0.03
791.797	0.04
792.104	0.04
792.411	0.05
792.718	0.04
793.025	0.05
793.332	0.04
793.639	0.05
793.945	0.05
794.252	0.05
794.559	0.05
794.865	0.05
795.172	0.04
795.478	0.04
795.784	0.05
796.091	0.05
796.397	0.05
796.703	0.05
797.009	0.06
797.315	0.05
797.622	0.06
797.927	0.05
798.233	0.05
798.539	0.05
798.845	0.06
799.151	0.06
799.456	0.06
799.762	0.05
800.068	0.05
800.373	0.06
800.679	0.06
800.984	0.05
801.289	0.05
801.595	0.05
801.9	0.06
802.205	0.05
802.51	0.05
802.815	0.05
803.12	0.05
803.425	0.05
803.73	0.04
804.035	0.05
804.339	0.05
804.644	0.05
804.949	0.05
805.253	0.04
805.558	0.05
805.862	0.04
806.167	0.05
806.471	0.04
806.775	0.04
807.08	0.04
807.384	0.04
807.688	0.05
807.992	0.05
808.296	0.04
808.6	0.05
808.904	0.05
809.207	0.04
809.511	0.06
809.815	0.05
810.119	0.05
810.422	0.06
810.726	0.06
811.029	0.06
811.332	0.06
811.636	0.06
811.939	0.05
812.242	0.06
812.546	0.06
812.849	0.06
813.152	0.06
813.455	0.06
813.758	0.06
814.06	0.06
814.363	0.07
814.666	0.07
814.969	0.07
815.271	0.06
815.574	0.06
815.877	0.05
816.179	0.06
816.481	0.05
816.784	0.06
817.086	0.05
817.388	0.04
817.69	0.04
817.993	0.05
818.295	0.04
818.597	0.04
818.899	0.03
819.2	0.04
819.502	0.04
819.804	0.05
820.106	0.05
820.407	0.04
820.709	0.04
821.01	0.04
821.312	0.05
821.613	0.04
821.915	0.04
822.216	0.03
822.517	0.03
822.818	0.03
823.119	0.04
823.42	0.04
823.721	0.03
824.022	0.04
824.323	0.03
824.624	0.03
824.925	0.04
825.226	0.04
825.526	0.04
825.827	0.03
826.127	0.03
826.428	0.04
826.728	0.03
827.028	0.03
827.329	0.03
827.629	0.03
827.929	0.03
828.229	0.04
828.529	0.04
828.829	0.03
829.129	0.03
829.429	0.03
829.729	0.03
830.029	0.03
830.328	0.03
830.628	0.03
830.927	0.03
831.227	0.02
831.526	0.03
831.826	0.03
832.125	0.03
832.424	0.02
832.724	0.03
833.023	0.03
833.322	0.03
833.621	0.03
833.92	0.02
834.219	0.03
834.518	0.02
834.816	0.02
835.115	0.01
835.414	0.02
835.712	0.01
836.011	0.02
836.309	0.01
836.608	0.01
836.906	0
837.205	0.01
837.503	0.01
837.801	-0
838.099	-0
838.397	-0.01
838.695	-0.01
838.993	-0.01
839.291	-0.01
839.589	-0.01
839.887	-0
840.184	-0.01
840.482	-0.01
840.78	-0.01
841.077	-0.01
841.375	-0.01
841.672	-0.01
841.969	-0.01
842.267	-0.01
842.564	-0.01
842.861	-0.01
843.158	-0.02
843.455	-0.03
843.752	-0.02
844.049	-0.03
844.346	-0.02
844.643	-0.03
844.94	-0.03
845.236	-0.01
845.533	-0.02
845.83	-0.02
846.126	-0.03
846.423	-0.03
846.719	-0.04
847.015	-0.03
847.312	-0.04
847.608	-0.04
847.904	-0.04
848.2	-0.04
848.496	-0.04
848.792	-0.04
849.088	-0.04
849.384	-0.04
849.68	-0.05
849.975	-0.04
850.271	-0.05
850.567	-0.05
850.862	-0.06
851.158	-0.05
851.453	-0.04
851.748	-0.05
852.044	-0.05
852.339	-0.05
852.634	-0.06
852.929	-0.05
853.224	-0.06
853.519	-0.06
853.814	-0.06
854.109	-0.06
854.404	-0.05
854.699	-0.06
854.994	-0.05
855.288	-0.05
855.583	-0.06
855.877	-0.07
856.172	-0.07
856.466	-0.07
856.76	-0.08
857.055	-0.07
857.349	-0.08
857.643	-0.08
857.937	-0.1
858.231	-0.09
858.525	-0.09
858.819	-0.1
859.113	-0.11
859.407	-0.11
859.701	-0.12
859.994	-0.12
860.288	-0.09
860.581	-0.1
860.875	-0.11
861.168	-0.11
861.462	-0.1
861.755	-0.11
862.048	-0.11
862.341	-0.1
862.634	-0.11
862.928	-0.11
863.221	-0.11
863.513	-0.12
863.806	-0.11
864.099	-0.12
864.392	-0.12
864.685	-0.11
864.977	-0.12
865.27	-0.11
865.562	-0.12
865.855	-0.11
866.147	-0.13
866.44	-0.11
866.732	-0.12
867.024	-0.12
867.316	-0.12
867.608	-0.13
867.9	-0.12
868.192	-0.12
868.484	-0.12
868.776	-0.13
869.068	-0.13
869.359	-0.13
869.651	-0.13
869.943	-0.14
870.234	-0.14
870.526	-0.15
870.817	-0.15
871.108	-0.13
871.4	-0.13
871.691	-0.14
871.982	-0.15
872.273	-0.16
872.564	-0.15
872.855	-0.16
873.146	-0.16
873.437	-0.17
873.728	-0.17
874.019	-0.16
874.309	-0.17
874.6	-0.17
874.89	-0.16
875.181	-0.16
875.471	-0.15
875.762	-0.16
876.052	-0.17
876.342	-0.15
876.632	-0.17
876.922	-0.17
877.213	-0.18
877.503	-0.18
877.792	-0.17
878.082	-0.17
878.372	-0.15
878.662	-0.17
878.952	-0.17
879.241	-0.16
879.531	-0.15
879.82	-0.15
880.11	-0.15
880.399	-0.16
880.688	-0.14
880.978	-0.14
881.267	-0.14
