Data from 12-12-AQDScycling_Absorbance__429__00429.txt Node

Date: Tue Dec 12 12:43:59 EST 2023
User: kyuminlee
Spectrometer: FLMS00943
Trigger mode: 0
Integration Time (sec): 1.000000E-1
Scans to average: 1
Electric dark correction enabled: true
Nonlinearity correction enabled: false
Boxcar width: 0
XAxis mode: Wavelengths
Number of Pixels in Spectrum: 2048
>>>>>Begin Spectral Data<<<<<
179.651	-0.17
180.037	-0.17
180.424	-0.17
180.81	-0.43
181.197	0.1
181.583	-0
181.97	-0.4
182.356	-0
182.743	-1.28
183.129	0.09
183.515	-0
183.901	-0
184.288	0.18
184.674	0.41
185.06	-0.65
185.446	-0
185.832	-0
186.218	1.35
186.604	0.51
186.99	-0
187.376	0.19
187.762	0.47
188.148	1.27
188.534	-0.03
188.92	0.01
189.305	0
189.691	0.24
190.077	0.2
190.463	0.11
190.848	0.2
191.234	0.04
191.619	0.06
192.005	0.18
192.391	0.22
192.776	0.24
193.161	0.16
193.547	0.11
193.932	0.13
194.318	0.15
194.703	0.15
195.088	0.09
195.473	0.2
195.859	0.26
196.244	0.32
196.629	0.06
197.014	0.17
197.399	0.12
197.784	0.16
198.169	0.27
198.554	0.55
198.939	0.11
199.324	0.14
199.709	0.06
200.094	0.16
200.478	0.25
200.863	0.23
201.248	0.09
201.633	0.06
202.017	0.11
202.402	0.13
202.787	0.2
203.171	0.35
203.556	0.12
203.94	0.4
204.325	0.22
204.709	0.19
205.093	0.09
205.478	0.12
205.862	0.32
206.246	0.12
206.631	0.16
207.015	0.11
207.399	0.35
207.783	0.16
208.167	0.05
208.551	0.34
208.935	0.15
209.319	0.08
209.703	0.16
210.087	0.38
210.471	0.19
210.855	0.18
211.239	0.26
211.623	0.33
212.007	0.2
212.39	0.33
212.774	0.07
213.158	0.12
213.541	0.32
213.925	0.22
214.309	0.43
214.692	0.34
215.076	0.28
215.459	0.16
215.842	0.26
216.226	0.26
216.609	0.25
216.993	0.24
217.376	0.61
217.759	0.26
218.142	0.35
218.525	0.42
218.909	0.58
219.292	0.34
219.675	0.7
220.058	0.59
220.441	0.53
220.824	0.48
221.207	0.82
221.59	0.52
221.973	0.65
222.355	0.69
222.738	0.69
223.121	0.57
223.504	0.65
223.886	0.64
224.269	0.73
224.652	0.74
225.034	0.8
225.417	0.71
225.799	0.82
226.182	1.03
226.564	0.81
226.947	0.79
227.329	0.87
227.711	0.99
228.094	0.97
228.476	1.12
228.858	0.81
229.24	0.79
229.623	1.02
230.005	0.89
230.387	0.91
230.769	0.77
231.151	1.06
231.533	0.86
231.915	1.08
232.297	1.08
232.679	1.02
233.061	1.04
233.442	1.02
233.824	1.11
234.206	1.2
234.588	1.29
234.969	1.02
235.351	0.96
235.733	1.18
236.114	1.29
236.496	1.11
236.877	1.16
237.259	1.05
237.64	1.14
238.022	1.11
238.403	1
238.784	1.1
239.165	0.93
239.547	1.08
239.928	1.12
240.309	1.09
240.69	1.02
241.071	1.27
241.452	1.35
241.834	1.2
242.215	1.11
242.595	0.98
242.976	1.19
243.357	1.09
243.738	1.06
244.119	1.34
244.5	1.12
244.881	1.41
245.261	1.14
245.642	1.15
246.023	1.23
246.403	1.16
246.784	1.17
247.164	1.27
247.545	1.38
247.925	1.39
248.306	1.18
248.686	1.43
249.067	1.25
249.447	1.46
249.827	1.42
250.207	1.44
250.588	1.26
250.968	1.76
251.348	1.38
251.728	1.45
252.108	1.39
252.488	1.36
252.868	1.31
253.248	1.37
253.628	1.55
254.008	1.49
254.388	1.44
254.768	1.3
255.147	1.55
255.527	1.52
255.907	1.32
256.287	1.4
256.666	1.41
257.046	1.49
257.425	1.68
257.805	1.45
258.184	1.39
258.564	1.38
258.943	1.38
259.323	1.47
259.702	1.63
260.081	1.44
260.461	1.5
260.84	1.43
261.219	1.69
261.598	1.64
261.977	1.43
262.356	1.45
262.736	1.58
263.115	1.64
263.494	1.49
263.873	1.55
264.251	1.56
264.63	1.57
265.009	1.51
265.388	1.45
265.767	1.38
266.145	1.34
266.524	1.35
266.903	1.45
267.281	1.31
267.66	1.52
268.039	1.53
268.417	1.44
268.796	1.37
269.174	1.35
269.552	1.5
269.931	1.5
270.309	1.56
270.687	1.42
271.066	1.54
271.444	1.46
271.822	1.55
272.2	1.43
272.578	1.46
272.956	1.48
273.334	1.29
273.712	1.43
274.09	1.39
274.468	1.33
274.846	1.41
275.224	1.5
275.602	1.49
275.98	1.77
276.357	1.42
276.735	1.45
277.113	1.45
277.49	1.47
277.868	1.39
278.246	1.42
278.623	1.34
279.001	1.37
279.378	1.32
279.756	1.55
280.133	1.48
280.51	1.5
280.888	1.43
281.265	1.37
281.642	1.64
282.019	1.63
282.396	1.65
282.773	1.47
283.151	1.55
283.528	1.37
283.905	1.37
284.282	1.68
284.659	1.54
285.035	1.36
285.412	1.44
285.789	1.47
286.166	1.39
286.543	1.56
286.919	1.74
287.296	1.38
287.673	1.75
288.049	1.51
288.426	1.57
288.802	1.56
289.179	1.43
289.555	1.63
289.932	1.56
290.308	1.42
290.684	1.48
291.061	1.29
291.437	1.6
291.813	1.37
292.189	1.3
292.565	1.3
292.942	1.41
293.318	1.5
293.694	1.33
294.07	1.4
294.446	1.33
294.822	1.61
295.197	1.49
295.573	1.59
295.949	1.51
296.325	1.5
296.701	1.52
297.076	1.72
297.452	1.61
297.828	1.5
298.203	1.82
298.579	1.55
298.954	1.51
299.33	1.42
299.705	1.49
300.081	1.44
300.456	1.54
300.831	1.54
301.206	1.41
301.582	1.56
301.957	1.63
302.332	1.54
302.707	1.48
303.082	1.43
303.457	1.5
303.832	1.48
304.207	1.37
304.582	1.37
304.957	1.43
305.332	1.44
305.707	1.48
306.082	1.46
306.456	1.62
306.831	1.44
307.206	1.59
307.58	1.62
307.955	1.46
308.33	1.37
308.704	1.52
309.079	1.47
309.453	1.72
309.828	1.49
310.202	1.39
310.576	1.44
310.951	1.49
311.325	1.47
311.699	1.45
312.073	1.37
312.447	1.43
312.821	1.4
313.196	1.61
313.57	1.43
313.944	1.55
314.317	1.39
314.691	1.51
315.065	1.53
315.439	1.52
315.813	1.52
316.187	1.43
316.56	1.56
316.934	1.51
317.308	1.35
317.681	1.64
318.055	1.47
318.428	1.48
318.802	1.55
319.175	1.54
319.549	1.5
319.922	1.36
320.295	1.49
320.669	1.66
321.042	1.41
321.415	1.58
321.788	1.42
322.162	1.38
322.535	1.53
322.908	1.56
323.281	1.52
323.654	1.7
324.027	1.41
324.4	1.54
324.773	1.46
325.145	1.66
325.518	1.52
325.891	1.46
326.264	1.47
326.636	1.44
327.009	1.51
327.382	1.45
327.754	1.56
328.127	1.55
328.499	1.61
328.872	1.65
329.244	1.61
329.616	1.51
329.989	1.49
330.361	1.47
330.733	1.46
331.106	1.43
331.478	1.67
331.85	1.49
332.222	1.5
332.594	1.57
332.966	1.57
333.338	1.76
333.71	1.69
334.082	1.72
334.454	1.45
334.826	1.57
335.197	1.6
335.569	1.67
335.941	1.44
336.312	1.5
336.684	1.48
337.056	1.53
337.427	1.66
337.799	1.59
338.17	1.56
338.542	1.5
338.913	1.52
339.284	1.65
339.656	1.56
340.027	1.53
340.398	1.59
340.769	1.44
341.141	1.71
341.512	1.47
341.883	1.59
342.254	1.56
342.625	1.58
342.996	1.46
343.367	1.56
343.738	1.48
344.108	1.46
344.479	1.66
344.85	1.44
345.221	1.68
345.591	1.36
345.962	1.65
346.333	1.47
346.703	1.39
347.074	1.45
347.444	1.34
347.815	1.43
348.185	1.4
348.556	1.34
348.926	1.36
349.296	1.32
349.666	1.39
350.037	1.24
350.407	1.41
350.777	1.38
351.147	1.35
351.517	1.42
351.887	1.37
352.257	1.4
352.627	1.3
352.997	1.3
353.367	1.38
353.737	1.46
354.106	1.34
354.476	1.33
354.846	1.38
355.216	1.44
355.585	1.4
355.955	1.35
356.324	1.35
356.694	1.36
357.063	1.33
357.433	1.28
357.802	1.36
358.171	1.36
358.541	1.34
358.91	1.41
359.279	1.34
359.648	1.32
360.017	1.39
360.387	1.36
360.756	1.27
361.125	1.32
361.494	1.25
361.863	1.28
362.231	1.26
362.6	1.22
362.969	1.33
363.338	1.21
363.707	1.3
364.075	1.35
364.444	1.18
364.813	1.26
365.181	1.26
365.55	1.24
365.918	1.28
366.287	1.23
366.655	1.31
367.024	1.25
367.392	1.2
367.76	1.18
368.128	1.24
368.497	1.24
368.865	1.29
369.233	1.33
369.601	1.28
369.969	1.2
370.337	1.26
370.705	1.24
371.073	1.24
371.441	1.16
371.809	1.23
372.177	1.19
372.544	1.23
372.912	1.25
373.28	1.19
373.647	1.28
374.015	1.28
374.383	1.39
374.75	1.3
375.118	1.23
375.485	1.27
375.853	1.31
376.22	1.3
376.587	1.27
376.955	1.25
377.322	1.31
377.689	1.3
378.056	1.22
378.423	1.23
378.79	1.32
379.157	1.27
379.524	1.29
379.891	1.27
380.258	1.35
380.625	1.26
380.992	1.27
381.359	1.31
381.726	1.41
382.092	1.32
382.459	1.32
382.826	1.33
383.192	1.37
383.559	1.33
383.925	1.41
384.292	1.28
384.658	1.42
385.025	1.27
385.391	1.51
385.757	1.43
386.123	1.39
386.49	1.45
386.856	1.48
387.222	1.41
387.588	1.42
387.954	1.51
388.32	1.5
388.686	1.43
389.052	1.41
389.418	1.45
389.784	1.44
390.15	1.41
390.515	1.33
390.881	1.59
391.247	1.39
391.613	1.5
391.978	1.3
392.344	1.5
392.709	1.45
393.075	1.41
393.44	1.42
393.806	1.52
394.171	1.33
394.536	1.37
394.902	1.39
395.267	1.43
395.632	1.41
395.997	1.34
396.362	1.4
396.727	1.4
397.092	1.37
397.457	1.39
397.822	1.36
398.187	1.38
398.552	1.38
398.917	1.53
399.282	1.3
399.646	1.35
400.011	1.36
400.376	1.31
400.74	1.33
401.105	1.4
401.47	1.36
401.834	1.4
402.199	1.36
402.563	1.31
402.927	1.23
403.292	1.37
403.656	1.39
404.02	1.32
404.384	1.33
404.749	1.31
405.113	1.29
405.477	1.3
405.841	1.26
406.205	1.27
406.569	1.32
406.933	1.21
407.296	1.25
407.66	1.3
408.024	1.25
408.388	1.21
408.752	1.15
409.115	1.27
409.479	1.27
409.842	1.15
410.206	1.09
410.569	1.1
410.933	1.15
411.296	1.1
411.66	1.14
412.023	1.13
412.386	1.13
412.749	1.11
413.113	1.1
413.476	1.08
413.839	1.12
414.202	1.1
414.565	1.02
414.928	1.13
415.291	1.07
415.654	1.04
416.017	1.11
416.38	1.06
416.742	1.07
417.105	1
417.468	1.02
417.83	1.01
418.193	1.08
418.556	1.08
418.918	1.01
419.281	1.03
419.643	1.1
420.005	1.04
420.368	1.04
420.73	1.04
421.092	1.04
421.455	1.07
421.817	0.96
422.179	1.02
422.541	1.01
422.903	1.01
423.265	1.03
423.627	0.96
423.989	1.02
424.351	1
424.713	1
425.075	0.99
425.436	0.99
425.798	0.99
426.16	1.02
426.521	1
426.883	1.03
427.245	0.98
427.606	0.96
427.967	0.95
428.329	0.99
428.69	0.99
429.052	0.95
429.413	0.99
429.774	0.99
430.135	0.94
430.497	0.95
430.858	0.94
431.219	0.94
431.58	0.92
431.941	0.9
432.302	0.89
432.663	0.91
433.024	0.98
433.384	0.94
433.745	0.9
434.106	0.94
434.467	0.92
434.827	0.92
435.188	0.92
435.548	0.94
435.909	0.88
436.269	0.91
436.63	0.87
436.99	0.91
437.351	0.88
437.711	0.91
438.071	0.86
438.431	0.87
438.792	0.87
439.152	0.87
439.512	0.86
439.872	0.84
440.232	0.88
440.592	0.87
440.952	0.83
441.312	0.84
441.671	0.83
442.031	0.83
442.391	0.8
442.751	0.83
443.11	0.82
443.47	0.8
443.83	0.78
444.189	0.78
444.549	0.78
444.908	0.79
445.267	0.77
445.627	0.78
445.986	0.77
446.345	0.76
446.705	0.75
447.064	0.77
447.423	0.75
447.782	0.75
448.141	0.77
448.5	0.71
448.859	0.73
449.218	0.73
449.577	0.73
449.936	0.74
450.295	0.72
450.653	0.71
451.012	0.73
451.371	0.73
451.729	0.7
452.088	0.71
452.447	0.7
452.805	0.69
453.163	0.7
453.522	0.68
453.88	0.68
454.239	0.68
454.597	0.66
454.955	0.66
455.313	0.67
455.671	0.65
456.029	0.64
456.388	0.63
456.746	0.63
457.104	0.63
457.461	0.61
457.819	0.62
458.177	0.6
458.535	0.6
458.893	0.59
459.25	0.59
459.608	0.57
459.966	0.58
460.323	0.57
460.681	0.56
461.038	0.56
461.396	0.54
461.753	0.55
462.111	0.54
462.468	0.53
462.825	0.52
463.182	0.52
463.54	0.51
463.897	0.51
464.254	0.51
464.611	0.5
464.968	0.49
465.325	0.49
465.682	0.48
466.039	0.49
466.395	0.47
466.752	0.46
467.109	0.46
467.466	0.45
467.822	0.46
468.179	0.45
468.535	0.44
468.892	0.44
469.248	0.42
469.605	0.41
469.961	0.41
470.318	0.42
470.674	0.41
471.03	0.41
471.386	0.41
471.743	0.41
472.099	0.39
472.455	0.39
472.811	0.39
473.167	0.39
473.523	0.37
473.879	0.37
474.235	0.36
474.59	0.35
474.946	0.35
475.302	0.35
475.657	0.34
476.013	0.33
476.369	0.33
476.724	0.33
477.08	0.32
477.435	0.32
477.791	0.31
478.146	0.32
478.501	0.32
478.857	0.31
479.212	0.31
479.567	0.3
479.922	0.3
480.277	0.29
480.632	0.29
480.987	0.29
481.342	0.28
481.697	0.27
482.052	0.28
482.407	0.27
482.762	0.27
483.116	0.27
483.471	0.26
483.826	0.25
484.18	0.25
484.535	0.25
484.89	0.25
485.244	0.24
485.598	0.25
485.953	0.24
486.307	0.24
486.661	0.24
487.016	0.23
487.37	0.23
487.724	0.24
488.078	0.23
488.432	0.23
488.786	0.22
489.14	0.22
489.494	0.21
489.848	0.21
490.202	0.21
490.556	0.21
490.91	0.21
491.263	0.21
491.617	0.2
491.971	0.2
492.324	0.21
492.678	0.2
493.031	0.2
493.385	0.2
493.738	0.2
494.091	0.2
494.445	0.19
494.798	0.2
495.151	0.19
495.504	0.19
495.857	0.19
496.21	0.19
496.564	0.18
496.916	0.19
497.269	0.18
497.622	0.18
497.975	0.19
498.328	0.18
498.681	0.18
499.033	0.18
499.386	0.18
499.739	0.18
500.091	0.17
500.444	0.18
500.796	0.17
501.149	0.17
501.501	0.17
501.854	0.17
502.206	0.17
502.558	0.17
502.91	0.17
503.263	0.17
503.615	0.16
503.967	0.17
504.319	0.17
504.671	0.17
505.023	0.16
505.375	0.16
505.726	0.16
506.078	0.16
506.43	0.16
506.782	0.16
507.133	0.16
507.485	0.17
507.837	0.17
508.188	0.16
508.54	0.16
508.891	0.16
509.243	0.16
509.594	0.15
509.945	0.16
510.296	0.16
510.648	0.16
510.999	0.15
511.35	0.16
511.701	0.16
512.052	0.16
512.403	0.16
512.754	0.16
513.105	0.16
513.456	0.15
513.807	0.15
514.157	0.16
514.508	0.15
514.859	0.16
515.209	0.15
515.56	0.16
515.91	0.15
516.261	0.16
516.611	0.15
516.962	0.16
517.312	0.16
517.662	0.16
518.013	0.15
518.363	0.16
518.713	0.15
519.063	0.15
519.413	0.16
519.763	0.15
520.113	0.15
520.463	0.16
520.813	0.16
521.163	0.16
521.512	0.16
521.862	0.16
522.212	0.16
522.562	0.15
522.911	0.15
523.261	0.15
523.61	0.16
523.96	0.16
524.309	0.16
524.658	0.16
525.008	0.15
525.357	0.16
525.706	0.16
526.056	0.16
526.405	0.16
526.754	0.16
527.103	0.15
527.452	0.15
527.801	0.16
528.15	0.16
528.499	0.16
528.847	0.16
529.196	0.16
529.545	0.16
529.893	0.16
530.242	0.16
530.591	0.16
530.939	0.17
531.288	0.17
531.636	0.17
531.985	0.16
532.333	0.16
532.681	0.16
533.029	0.17
533.378	0.17
533.726	0.17
534.074	0.17
534.422	0.16
534.77	0.17
535.118	0.16
535.466	0.17
535.814	0.17
536.162	0.17
536.509	0.17
536.857	0.16
537.205	0.17
537.552	0.17
537.9	0.17
538.248	0.16
538.595	0.17
538.943	0.17
539.29	0.16
539.637	0.17
539.985	0.17
540.332	0.17
540.679	0.16
541.026	0.17
541.373	0.17
541.721	0.16
542.068	0.17
542.415	0.16
542.762	0.16
543.108	0.15
543.455	0.15
543.802	0.15
544.149	0.16
544.496	0.16
544.842	0.16
545.189	0.15
545.535	0.15
545.882	0.16
546.228	0.16
546.575	0.16
546.921	0.15
547.267	0.16
547.614	0.16
547.96	0.16
548.306	0.16
548.652	0.15
548.998	0.16
549.344	0.16
549.69	0.16
550.036	0.16
550.382	0.16
550.728	0.16
551.074	0.17
551.42	0.17
551.765	0.17
552.111	0.17
552.457	0.17
552.802	0.16
553.148	0.16
553.493	0.15
553.839	0.16
554.184	0.17
554.529	0.15
554.875	0.17
555.22	0.17
555.565	0.17
555.91	0.15
556.255	0.17
556.6	0.17
556.945	0.16
557.29	0.16
557.635	0.17
557.98	0.17
558.325	0.17
558.67	0.17
559.014	0.17
559.359	0.17
559.704	0.18
560.048	0.17
560.393	0.17
560.737	0.16
561.082	0.17
561.426	0.16
561.77	0.17
562.115	0.17
562.459	0.16
562.803	0.17
563.147	0.16
563.491	0.16
563.835	0.17
564.179	0.17
564.523	0.16
564.867	0.15
565.211	0.16
565.555	0.17
565.899	0.17
566.242	0.17
566.586	0.16
566.93	0.17
567.273	0.17
567.617	0.16
567.96	0.17
568.304	0.18
568.647	0.17
568.99	0.17
569.334	0.17
569.677	0.17
570.02	0.18
570.363	0.17
570.706	0.17
571.049	0.17
571.392	0.17
571.735	0.17
572.078	0.17
572.421	0.18
572.764	0.17
573.106	0.17
573.449	0.17
573.792	0.17
574.134	0.17
574.477	0.17
574.819	0.16
575.162	0.17
575.504	0.16
575.847	0.17
576.189	0.17
576.531	0.17
576.873	0.17
577.215	0.17
577.558	0.17
577.9	0.16
578.242	0.17
578.584	0.17
578.926	0.17
579.267	0.17
579.609	0.17
579.951	0.17
580.293	0.17
580.634	0.17
580.976	0.17
581.318	0.17
581.659	0.17
582.001	0.17
582.342	0.17
582.683	0.17
583.025	0.16
583.366	0.17
583.707	0.17
584.049	0.16
584.39	0.17
584.731	0.16
585.072	0.16
585.413	0.17
585.754	0.17
586.095	0.17
586.435	0.17
586.776	0.17
587.117	0.17
587.458	0.17
587.798	0.16
588.139	0.16
588.48	0.17
588.82	0.17
589.161	0.16
589.501	0.16
589.841	0.16
590.182	0.17
590.522	0.16
590.862	0.17
591.202	0.17
591.542	0.16
591.882	0.17
592.222	0.16
592.562	0.17
592.902	0.16
593.242	0.16
593.582	0.17
593.922	0.17
594.261	0.16
594.601	0.16
594.941	0.17
595.28	0.17
595.62	0.17
595.959	0.17
596.299	0.17
596.638	0.17
596.977	0.17
597.317	0.17
597.656	0.17
597.995	0.17
598.334	0.17
598.673	0.17
599.012	0.16
599.351	0.17
599.69	0.16
600.029	0.17
600.368	0.17
600.707	0.17
601.046	0.16
601.384	0.17
601.723	0.17
602.061	0.17
602.4	0.17
602.738	0.17
603.077	0.17
603.415	0.16
603.754	0.16
604.092	0.16
604.43	0.17
604.768	0.17
605.107	0.17
605.445	0.15
605.783	0.16
606.121	0.16
606.459	0.16
606.796	0.16
607.134	0.16
607.472	0.16
607.81	0.16
608.148	0.16
608.485	0.16
608.823	0.17
609.16	0.16
609.498	0.17
609.835	0.16
610.173	0.16
610.51	0.17
610.847	0.16
611.185	0.17
611.522	0.17
611.859	0.17
612.196	0.17
612.533	0.17
612.87	0.17
613.207	0.18
613.544	0.17
613.881	0.18
614.217	0.18
614.554	0.18
614.891	0.17
615.228	0.17
615.564	0.17
615.901	0.17
616.237	0.17
616.574	0.17
616.91	0.17
617.246	0.17
617.583	0.17
617.919	0.17
618.255	0.18
618.591	0.16
618.927	0.18
619.263	0.18
619.599	0.18
619.935	0.18
620.271	0.17
620.607	0.17
620.943	0.16
621.279	0.17
621.614	0.17
621.95	0.18
622.286	0.17
622.621	0.17
622.957	0.17
623.292	0.16
623.627	0.17
623.963	0.16
624.298	0.16
624.633	0.16
624.968	0.15
625.304	0.15
625.639	0.16
625.974	0.16
626.309	0.15
626.644	0.16
626.979	0.16
627.313	0.16
627.648	0.15
627.983	0.15
628.318	0.15
628.652	0.15
628.987	0.15
629.321	0.15
629.656	0.15
629.99	0.15
630.325	0.15
630.659	0.15
630.993	0.15
631.327	0.15
631.662	0.14
631.996	0.14
632.33	0.15
632.664	0.15
632.998	0.15
633.332	0.15
633.666	0.14
633.999	0.15
634.333	0.15
634.667	0.15
635.001	0.15
635.334	0.15
635.668	0.14
636.001	0.15
636.335	0.14
636.668	0.15
637.001	0.14
637.335	0.15
637.668	0.15
638.001	0.14
638.334	0.14
638.668	0.14
639.001	0.14
639.334	0.14
639.667	0.14
639.999	0.14
640.332	0.14
640.665	0.14
640.998	0.14
641.331	0.14
641.663	0.14
641.996	0.13
642.328	0.14
642.661	0.14
642.993	0.14
643.326	0.14
643.658	0.14
643.99	0.13
644.323	0.13
644.655	0.13
644.987	0.14
645.319	0.14
645.651	0.14
645.983	0.14
646.315	0.13
646.647	0.14
646.979	0.14
647.31	0.15
647.642	0.14
647.974	0.14
648.305	0.15
648.637	0.14
648.968	0.14
649.3	0.14
649.631	0.14
649.963	0.14
650.294	0.14
650.625	0.14
650.957	0.15
651.288	0.14
651.619	0.14
651.95	0.14
652.281	0.14
652.612	0.14
652.943	0.15
653.274	0.14
653.604	0.14
653.935	0.14
654.266	0.13
654.596	0.14
654.927	0.14
655.258	0.14
655.588	0.14
655.918	0.14
656.249	0.13
656.579	0.14
656.909	0.14
657.24	0.13
657.57	0.15
657.9	0.14
658.23	0.14
658.56	0.14
658.89	0.14
659.22	0.14
659.55	0.14
659.88	0.14
660.209	0.14
660.539	0.15
660.869	0.14
661.198	0.15
661.528	0.14
661.857	0.14
662.187	0.15
662.516	0.14
662.846	0.14
663.175	0.14
663.504	0.14
663.833	0.14
664.163	0.14
664.492	0.14
664.821	0.14
665.15	0.14
665.479	0.14
665.807	0.13
666.136	0.14
666.465	0.13
666.794	0.13
667.122	0.13
667.451	0.13
667.78	0.13
668.108	0.13
668.437	0.13
668.765	0.13
669.093	0.13
669.422	0.13
669.75	0.13
670.078	0.12
670.406	0.13
670.734	0.14
671.062	0.13
671.39	0.13
671.718	0.13
672.046	0.12
672.374	0.13
672.702	0.13
673.029	0.13
673.357	0.13
673.685	0.13
674.012	0.13
674.34	0.12
674.667	0.14
674.995	0.13
675.322	0.13
675.649	0.12
675.977	0.13
676.304	0.13
676.631	0.13
676.958	0.12
677.285	0.12
677.612	0.12
677.939	0.13
678.266	0.13
678.593	0.13
678.92	0.12
679.246	0.12
679.573	0.13
679.9	0.12
680.226	0.13
680.553	0.12
680.879	0.12
681.206	0.13
681.532	0.12
681.858	0.12
682.184	0.13
682.511	0.12
682.837	0.12
683.163	0.13
683.489	0.12
683.815	0.11
684.141	0.12
684.467	0.11
684.793	0.11
685.118	0.12
685.444	0.12
685.77	0.11
686.095	0.12
686.421	0.12
686.746	0.11
687.072	0.12
687.397	0.11
687.723	0.12
688.048	0.12
688.373	0.12
688.698	0.12
689.023	0.13
689.349	0.12
689.674	0.13
689.999	0.11
690.323	0.11
690.648	0.11
690.973	0.11
691.298	0.12
691.623	0.12
691.947	0.12
692.272	0.12
692.596	0.12
692.921	0.12
693.245	0.12
693.57	0.11
693.894	0.12
694.218	0.12
694.543	0.12
694.867	0.11
695.191	0.11
695.515	0.11
695.839	0.11
696.163	0.11
696.487	0.11
696.811	0.1
697.135	0.11
697.458	0.11
697.782	0.11
698.106	0.11
698.429	0.11
698.753	0.11
699.076	0.11
699.4	0.1
699.723	0.11
700.046	0.1
700.37	0.11
700.693	0.11
701.016	0.1
701.339	0.11
701.662	0.11
701.985	0.11
702.308	0.11
702.631	0.11
702.954	0.11
703.277	0.1
703.599	0.11
703.922	0.1
704.245	0.1
704.567	0.1
704.89	0.1
705.212	0.1
705.535	0.09
705.857	0.09
706.179	0.09
706.502	0.09
706.824	0.09
707.146	0.09
707.468	0.09
707.79	0.09
708.112	0.09
708.434	0.09
708.756	0.1
709.078	0.09
709.399	0.09
709.721	0.09
710.043	0.1
710.364	0.1
710.686	0.1
711.007	0.09
711.329	0.1
711.65	0.1
711.972	0.1
712.293	0.1
712.614	0.11
712.935	0.1
713.256	0.1
713.577	0.1
713.898	0.1
714.219	0.1
714.54	0.09
714.861	0.1
715.182	0.09
715.503	0.09
715.823	0.09
716.144	0.1
716.464	0.08
716.785	0.09
717.105	0.09
717.426	0.09
717.746	0.08
718.066	0.08
718.387	0.09
718.707	0.08
719.027	0.08
719.347	0.07
719.667	0.08
719.987	0.08
720.307	0.08
720.627	0.08
720.947	0.08
721.266	0.08
721.586	0.08
721.906	0.08
722.225	0.08
722.545	0.07
722.864	0.08
723.184	0.09
723.503	0.09
723.823	0.08
724.142	0.08
724.461	0.08
724.78	0.08
725.099	0.08
725.418	0.07
725.737	0.08
726.056	0.08
726.375	0.08
726.694	0.07
727.013	0.08
727.331	0.07
727.65	0.07
727.969	0.08
728.287	0.08
728.606	0.08
728.924	0.08
729.242	0.09
729.561	0.08
729.879	0.08
730.197	0.08
730.515	0.08
730.834	0.08
731.152	0.08
731.47	0.07
731.788	0.07
732.105	0.07
732.423	0.08
732.741	0.07
733.059	0.08
733.376	0.09
733.694	0.07
734.012	0.07
734.329	0.08
734.647	0.07
734.964	0.08
735.281	0.08
735.599	0.08
735.916	0.08
736.233	0.07
736.55	0.08
736.867	0.08
737.184	0.08
737.501	0.07
737.818	0.08
738.135	0.08
738.452	0.08
738.768	0.08
739.085	0.08
739.402	0.07
739.718	0.08
740.035	0.08
740.351	0.07
740.668	0.09
740.984	0.08
741.3	0.07
741.617	0.07
741.933	0.07
742.249	0.08
742.565	0.07
742.881	0.08
743.197	0.07
743.513	0.07
743.829	0.06
744.144	0.07
744.46	0.07
744.776	0.08
745.091	0.07
745.407	0.07
745.722	0.06
746.038	0.06
746.353	0.06
746.669	0.08
746.984	0.06
747.299	0.06
747.614	0.07
747.93	0.07
748.245	0.07
748.56	0.07
748.875	0.07
749.189	0.07
749.504	0.06
749.819	0.07
750.134	0.06
750.448	0.06
750.763	0.08
751.078	0.06
751.392	0.06
751.707	0.08
752.021	0.08
752.335	0.08
752.65	0.08
752.964	0.07
753.278	0.07
753.592	0.07
753.906	0.06
754.22	0.07
754.534	0.07
754.848	0.07
755.162	0.06
755.476	0.07
755.789	0.07
756.103	0.07
756.417	0.08
756.73	0.06
757.044	0.07
757.357	0.07
757.671	0.08
757.984	0.07
758.297	0.07
758.61	0.08
758.924	0.07
759.237	0.07
759.55	0.07
759.863	0.07
760.176	0.07
760.488	0.07
760.801	0.07
761.114	0.06
761.427	0.06
761.739	0.07
762.052	0.06
762.365	0.06
762.677	0.07
762.99	0.05
763.302	0.06
763.614	0.06
763.926	0.07
764.239	0.06
764.551	0.07
764.863	0.07
765.175	0.06
765.487	0.06
765.799	0.06
766.111	0.05
766.423	0.06
766.734	0.06
767.046	0.06
767.358	0.06
767.669	0.06
767.981	0.06
768.292	0.06
768.604	0.07
768.915	0.06
769.226	0.06
769.537	0.05
769.849	0.07
770.16	0.05
770.471	0.05
770.782	0.05
771.093	0.06
771.404	0.05
771.715	0.05
772.025	0.05
772.336	0.06
772.647	0.05
772.957	0.05
773.268	0.05
773.578	0.05
773.889	0.06
774.199	0.07
774.51	0.06
774.82	0.05
775.13	0.06
775.44	0.05
775.75	0.06
776.06	0.06
776.37	0.06
776.68	0.07
776.99	0.06
777.3	0.05
777.61	0.06
777.92	0.06
778.229	0.06
778.539	0.06
778.848	0.06
779.158	0.06
779.467	0.06
779.777	0.06
780.086	0.07
780.395	0.05
780.704	0.06
781.013	0.05
781.323	0.05
781.632	0.06
781.941	0.05
782.249	0.06
782.558	0.05
782.867	0.06
783.176	0.05
783.485	0.05
783.793	0.05
784.102	0.05
784.41	0.05
784.719	0.05
785.027	0.05
785.335	0.05
785.644	0.06
785.952	0.05
786.26	0.05
786.568	0.05
786.876	0.04
787.184	0.05
787.492	0.05
787.8	0.05
788.108	0.05
788.416	0.04
788.723	0.05
789.031	0.05
789.338	0.05
789.646	0.05
789.953	0.06
790.261	0.06
790.568	0.06
790.876	0.05
791.183	0.07
791.49	0.05
791.797	0.05
792.104	0.04
792.411	0.05
792.718	0.05
793.025	0.05
793.332	0.05
793.639	0.06
793.945	0.06
794.252	0.07
794.559	0.05
794.865	0.06
795.172	0.06
795.478	0.06
795.784	0.07
796.091	0.06
796.397	0.07
796.703	0.06
797.009	0.07
797.315	0.06
797.622	0.06
797.927	0.06
798.233	0.06
798.539	0.06
798.845	0.06
799.151	0.06
799.456	0.06
799.762	0.06
800.068	0.06
800.373	0.07
800.679	0.06
800.984	0.06
801.289	0.06
801.595	0.06
801.9	0.06
802.205	0.05
802.51	0.05
802.815	0.06
803.12	0.06
803.425	0.05
803.73	0.06
804.035	0.06
804.339	0.05
804.644	0.06
804.949	0.05
805.253	0.05
805.558	0.05
805.862	0.05
806.167	0.05
806.471	0.04
806.775	0.05
807.08	0.06
807.384	0.05
807.688	0.05
807.992	0.06
808.296	0.05
808.6	0.05
808.904	0.06
809.207	0.05
809.511	0.06
809.815	0.06
810.119	0.06
810.422	0.06
810.726	0.07
811.029	0.08
811.332	0.07
811.636	0.07
811.939	0.06
812.242	0.07
812.546	0.07
812.849	0.07
813.152	0.08
813.455	0.07
813.758	0.07
814.06	0.07
814.363	0.07
814.666	0.07
814.969	0.07
815.271	0.07
815.574	0.06
815.877	0.06
816.179	0.06
816.481	0.05
816.784	0.06
817.086	0.05
817.388	0.04
817.69	0.05
817.993	0.05
818.295	0.05
818.597	0.05
818.899	0.05
819.2	0.04
819.502	0.05
819.804	0.05
820.106	0.05
820.407	0.04
820.709	0.05
821.01	0.04
821.312	0.05
821.613	0.05
821.915	0.04
822.216	0.04
822.517	0.04
822.818	0.04
823.119	0.05
823.42	0.05
823.721	0.03
824.022	0.03
824.323	0.04
824.624	0.04
824.925	0.04
825.226	0.04
825.526	0.04
825.827	0.04
826.127	0.05
826.428	0.04
826.728	0.04
827.028	0.04
827.329	0.04
827.629	0.03
827.929	0.03
828.229	0.04
828.529	0.04
828.829	0.04
829.129	0.04
829.429	0.04
829.729	0.04
830.029	0.03
830.328	0.04
830.628	0.03
830.927	0.03
831.227	0.03
831.526	0.03
831.826	0.03
832.125	0.04
832.424	0.03
832.724	0.03
833.023	0.03
833.322	0.03
833.621	0.03
833.92	0.02
834.219	0.02
834.518	0.03
834.816	0.02
835.115	0.02
835.414	0.01
835.712	0.02
836.011	0.02
836.309	0.01
836.608	0.01
836.906	0.01
837.205	0
837.503	0
837.801	0.01
838.099	-0
838.397	-0
838.695	-0
838.993	-0
839.291	-0
839.589	0.01
839.887	-0
840.184	0
840.482	-0
840.78	0
841.077	-0.01
841.375	-0.01
841.672	-0
841.969	-0.01
842.267	-0
842.564	-0.01
842.861	-0
843.158	-0.02
843.455	-0.03
843.752	-0.02
844.049	-0.02
844.346	-0.02
844.643	-0.03
844.94	-0.02
845.236	-0.02
845.533	-0.03
845.83	-0.03
846.126	-0.03
846.423	-0.03
846.719	-0.04
847.015	-0.03
847.312	-0.04
847.608	-0.04
847.904	-0.04
848.2	-0.04
848.496	-0.05
848.792	-0.05
849.088	-0.02
849.384	-0.04
849.68	-0.05
849.975	-0.04
850.271	-0.05
850.567	-0.05
850.862	-0.05
851.158	-0.05
851.453	-0.06
851.748	-0.07
852.044	-0.06
852.339	-0.06
852.634	-0.07
852.929	-0.06
853.224	-0.07
853.519	-0.06
853.814	-0.06
854.109	-0.07
854.404	-0.07
854.699	-0.08
854.994	-0.07
855.288	-0.06
855.583	-0.07
855.877	-0.07
856.172	-0.07
856.466	-0.07
856.76	-0.07
857.055	-0.07
857.349	-0.08
857.643	-0.09
857.937	-0.09
858.231	-0.09
858.525	-0.09
858.819	-0.1
859.113	-0.1
859.407	-0.1
859.701	-0.1
859.994	-0.11
860.288	-0.09
860.581	-0.11
860.875	-0.1
861.168	-0.1
861.462	-0.11
861.755	-0.09
862.048	-0.11
862.341	-0.11
862.634	-0.1
862.928	-0.09
863.221	-0.1
863.513	-0.12
863.806	-0.1
864.099	-0.1
864.392	-0.11
864.685	-0.1
864.977	-0.11
865.27	-0.12
865.562	-0.11
865.855	-0.11
866.147	-0.12
866.44	-0.11
866.732	-0.12
867.024	-0.12
867.316	-0.12
867.608	-0.12
867.9	-0.12
868.192	-0.13
868.484	-0.13
868.776	-0.13
869.068	-0.13
869.359	-0.12
869.651	-0.13
869.943	-0.14
870.234	-0.14
870.526	-0.15
870.817	-0.15
871.108	-0.13
871.4	-0.13
871.691	-0.14
871.982	-0.16
872.273	-0.16
872.564	-0.15
872.855	-0.17
873.146	-0.17
873.437	-0.16
873.728	-0.17
874.019	-0.16
874.309	-0.17
874.6	-0.16
874.89	-0.17
875.181	-0.16
875.471	-0.15
875.762	-0.15
876.052	-0.15
876.342	-0.14
876.632	-0.16
876.922	-0.17
877.213	-0.15
877.503	-0.18
877.792	-0.16
878.082	-0.17
878.372	-0.15
878.662	-0.18
878.952	-0.18
879.241	-0.17
879.531	-0.15
879.82	-0.16
880.11	-0.16
880.399	-0.17
880.688	-0.14
880.978	-0.14
881.267	-0.14
