Data from 12-12-AQDScycling_Absorbance__478__00478.txt Node

Date: Tue Dec 12 12:56:14 EST 2023
User: kyuminlee
Spectrometer: FLMS00943
Trigger mode: 0
Integration Time (sec): 1.000000E-1
Scans to average: 1
Electric dark correction enabled: true
Nonlinearity correction enabled: false
Boxcar width: 0
XAxis mode: Wavelengths
Number of Pixels in Spectrum: 2048
>>>>>Begin Spectral Data<<<<<
179.651	-0
180.037	-0
180.424	-0
180.81	-0.05
181.197	0.29
181.583	-0
181.97	0.43
182.356	-0
182.743	-0.96
183.129	-0
183.515	-0
183.901	-2.3
184.288	0.66
184.674	-0
185.06	-0.95
185.446	-0
185.832	-1.5
186.218	0.93
186.604	0.49
186.99	-0
187.376	-0
187.762	-0
188.148	1.52
188.534	-0.18
188.92	0.14
189.305	0.05
189.691	0.14
190.077	0.11
190.463	0.17
190.848	0.05
191.234	-0.01
191.619	0.03
192.005	0.22
192.391	0.09
192.776	0.13
193.161	0.22
193.547	0.16
193.932	0.09
194.318	0.11
194.703	0.06
195.088	0.05
195.473	0.16
195.859	0.09
196.244	0.17
196.629	0.11
197.014	0.15
197.399	0.13
197.784	0.16
198.169	0.1
198.554	0.23
198.939	0.06
199.324	0.03
199.709	0.06
200.094	0.04
200.478	0.16
200.863	0.18
201.248	0.25
201.633	0.09
202.017	0.15
202.402	0.22
202.787	0.06
203.171	0.12
203.556	0.24
203.94	0.19
204.325	0.28
204.709	0.15
205.093	0.13
205.478	0.26
205.862	0.09
206.246	0.28
206.631	0.49
207.015	0.03
207.399	0.14
207.783	0.1
208.167	0.13
208.551	0.18
208.935	0.19
209.319	0.16
209.703	0.08
210.087	0.29
210.471	0.06
210.855	0.21
211.239	0.25
211.623	0.26
212.007	0.14
212.39	0.28
212.774	0.19
213.158	0.1
213.541	0.27
213.925	0.15
214.309	0.32
214.692	0.31
215.076	0.22
215.459	0.28
215.842	0.13
216.226	0.2
216.609	0.32
216.993	0.15
217.376	0.52
217.759	0.26
218.142	0.26
218.525	0.35
218.909	0.45
219.292	0.33
219.675	0.39
220.058	0.46
220.441	0.4
220.824	0.49
221.207	0.78
221.59	0.52
221.973	0.54
222.355	0.7
222.738	0.63
223.121	0.56
223.504	0.67
223.886	0.71
224.269	0.77
224.652	0.7
225.034	0.81
225.417	0.67
225.799	0.9
226.182	0.87
226.564	0.75
226.947	0.85
227.329	0.69
227.711	0.97
228.094	0.86
228.476	0.93
228.858	0.79
229.24	0.82
229.623	1
230.005	0.79
230.387	0.87
230.769	0.74
231.151	0.98
231.533	0.98
231.915	0.97
232.297	1.15
232.679	1.03
233.061	0.95
233.442	0.93
233.824	0.99
234.206	1.07
234.588	1.03
234.969	1.09
235.351	0.89
235.733	1.05
236.114	1.18
236.496	1.04
236.877	1.09
237.259	1.03
237.64	1.02
238.022	1
238.403	0.95
238.784	1.02
239.165	0.89
239.547	1.12
239.928	1.13
240.309	1.02
240.69	0.96
241.071	1.1
241.452	1.12
241.834	0.98
242.215	1.02
242.595	1.07
242.976	1.14
243.357	1.11
243.738	1.13
244.119	1.47
244.5	1.11
244.881	1.26
245.261	1.23
245.642	1.16
246.023	1.13
246.403	1.11
246.784	1.21
247.164	1.13
247.545	1.28
247.925	1.15
248.306	1.23
248.686	1.41
249.067	1.3
249.447	1.28
249.827	1.48
250.207	1.45
250.588	1.32
250.968	1.54
251.348	1.44
251.728	1.58
252.108	1.42
252.488	1.38
252.868	1.35
253.248	1.27
253.628	1.29
254.008	1.37
254.388	1.31
254.768	1.32
255.147	1.32
255.527	1.35
255.907	1.25
256.287	1.37
256.666	1.45
257.046	1.52
257.425	1.6
257.805	1.3
258.184	1.22
258.564	1.32
258.943	1.27
259.323	1.39
259.702	1.48
260.081	1.5
260.461	1.43
260.84	1.37
261.219	1.6
261.598	1.41
261.977	1.57
262.356	1.43
262.736	1.52
263.115	1.57
263.494	1.54
263.873	1.43
264.251	1.48
264.63	1.53
265.009	1.37
265.388	1.45
265.767	1.28
266.145	1.45
266.524	1.54
266.903	1.51
267.281	1.37
267.66	1.48
268.039	1.39
268.417	1.31
268.796	1.43
269.174	1.42
269.552	1.3
269.931	1.62
270.309	1.47
270.687	1.48
271.066	1.68
271.444	1.4
271.822	1.39
272.2	1.35
272.578	1.4
272.956	1.52
273.334	1.51
273.712	1.47
274.09	1.48
274.468	1.48
274.846	1.23
275.224	1.4
275.602	1.4
275.98	1.45
276.357	1.3
276.735	1.4
277.113	1.43
277.49	1.26
277.868	1.39
278.246	1.39
278.623	1.35
279.001	1.33
279.378	1.43
279.756	1.56
280.133	1.56
280.51	1.46
280.888	1.36
281.265	1.36
281.642	1.4
282.019	1.37
282.396	1.44
282.773	1.49
283.151	1.54
283.528	1.48
283.905	1.38
284.282	1.67
284.659	1.69
285.035	1.33
285.412	1.24
285.789	1.37
286.166	1.45
286.543	1.42
286.919	1.51
287.296	1.49
287.673	1.76
288.049	1.47
288.426	1.44
288.802	1.44
289.179	1.6
289.555	1.49
289.932	1.42
290.308	1.31
290.684	1.41
291.061	1.31
291.437	1.55
291.813	1.39
292.189	1.28
292.565	1.4
292.942	1.33
293.318	1.47
293.694	1.37
294.07	1.36
294.446	1.44
294.822	1.73
295.197	1.32
295.573	1.41
295.949	1.47
296.325	1.58
296.701	1.47
297.076	1.46
297.452	1.51
297.828	1.42
298.203	1.66
298.579	1.44
298.954	1.4
299.33	1.5
299.705	1.49
300.081	1.55
300.456	1.56
300.831	1.44
301.206	1.39
301.582	1.53
301.957	1.47
302.332	1.54
302.707	1.52
303.082	1.35
303.457	1.53
303.832	1.58
304.207	1.43
304.582	1.47
304.957	1.44
305.332	1.63
305.707	1.53
306.082	1.52
306.456	1.71
306.831	1.5
307.206	1.55
307.58	1.65
307.955	1.53
308.33	1.55
308.704	1.52
309.079	1.53
309.453	1.64
309.828	1.48
310.202	1.48
310.576	1.46
310.951	1.67
311.325	1.6
311.699	1.59
312.073	1.46
312.447	1.47
312.821	1.5
313.196	1.69
313.57	1.35
313.944	1.38
314.317	1.35
314.691	1.6
315.065	1.71
315.439	1.53
315.813	1.46
316.187	1.58
316.56	1.68
316.934	1.48
317.308	1.43
317.681	1.61
318.055	1.41
318.428	1.45
318.802	1.56
319.175	1.52
319.549	1.57
319.922	1.35
320.295	1.46
320.669	1.61
321.042	1.46
321.415	1.57
321.788	1.51
322.162	1.46
322.535	1.61
322.908	1.5
323.281	1.51
323.654	1.54
324.027	1.44
324.4	1.63
324.773	1.57
325.145	1.49
325.518	1.5
325.891	1.51
326.264	1.69
326.636	1.43
327.009	1.51
327.382	1.58
327.754	1.64
328.127	1.59
328.499	1.52
328.872	1.45
329.244	1.5
329.616	1.44
329.989	1.42
330.361	1.59
330.733	1.5
331.106	1.43
331.478	1.62
331.85	1.46
332.222	1.4
332.594	1.51
332.966	1.42
333.338	1.75
333.71	1.53
334.082	1.71
334.454	1.52
334.826	1.58
335.197	1.61
335.569	1.54
335.941	1.6
336.312	1.38
336.684	1.47
337.056	1.61
337.427	1.5
337.799	1.59
338.17	1.52
338.542	1.42
338.913	1.58
339.284	1.56
339.656	1.54
340.027	1.55
340.398	1.58
340.769	1.39
341.141	1.71
341.512	1.57
341.883	1.49
342.254	1.58
342.625	1.56
342.996	1.57
343.367	1.5
343.738	1.4
344.108	1.44
344.479	1.43
344.85	1.37
345.221	1.51
345.591	1.41
345.962	1.38
346.333	1.55
346.703	1.27
347.074	1.54
347.444	1.42
347.815	1.31
348.185	1.32
348.556	1.32
348.926	1.33
349.296	1.39
349.666	1.41
350.037	1.4
350.407	1.2
350.777	1.3
351.147	1.35
351.517	1.39
351.887	1.3
352.257	1.41
352.627	1.32
352.997	1.37
353.367	1.47
353.737	1.45
354.106	1.35
354.476	1.27
354.846	1.45
355.216	1.35
355.585	1.4
355.955	1.26
356.324	1.35
356.694	1.34
357.063	1.29
357.433	1.26
357.802	1.24
358.171	1.27
358.541	1.18
358.91	1.23
359.279	1.16
359.648	1.12
360.017	1.21
360.387	1.09
360.756	1.06
361.125	1.06
361.494	1.09
361.863	1.04
362.231	1.02
362.6	0.99
362.969	0.99
363.338	0.95
363.707	0.98
364.075	0.99
364.444	0.89
364.813	0.91
365.181	0.92
365.55	0.86
365.918	0.86
366.287	0.86
366.655	0.83
367.024	0.81
367.392	0.82
367.76	0.79
368.128	0.79
368.497	0.78
368.865	0.74
369.233	0.71
369.601	0.76
369.969	0.7
370.337	0.7
370.705	0.67
371.073	0.67
371.441	0.64
371.809	0.67
372.177	0.64
372.544	0.64
372.912	0.65
373.28	0.63
373.647	0.64
374.015	0.64
374.383	0.62
374.75	0.6
375.118	0.59
375.485	0.6
375.853	0.59
376.22	0.55
376.587	0.56
376.955	0.59
377.322	0.55
377.689	0.53
378.056	0.55
378.423	0.55
378.79	0.56
379.157	0.56
379.524	0.54
379.891	0.55
380.258	0.54
380.625	0.51
380.992	0.54
381.359	0.51
381.726	0.54
382.092	0.52
382.459	0.51
382.826	0.52
383.192	0.51
383.559	0.51
383.925	0.5
384.292	0.5
384.658	0.52
385.025	0.51
385.391	0.52
385.757	0.51
386.123	0.51
386.49	0.52
386.856	0.52
387.222	0.51
387.588	0.52
387.954	0.53
388.32	0.52
388.686	0.52
389.052	0.52
389.418	0.5
389.784	0.52
390.15	0.51
390.515	0.49
390.881	0.52
391.247	0.51
391.613	0.51
391.978	0.52
392.344	0.5
392.709	0.51
393.075	0.49
393.44	0.5
393.806	0.5
394.171	0.49
394.536	0.49
394.902	0.48
395.267	0.48
395.632	0.48
395.997	0.49
396.362	0.47
396.727	0.5
397.092	0.51
397.457	0.49
397.822	0.49
398.187	0.46
398.552	0.46
398.917	0.45
399.282	0.46
399.646	0.44
400.011	0.45
400.376	0.45
400.74	0.44
401.105	0.46
401.47	0.44
401.834	0.44
402.199	0.44
402.563	0.41
402.927	0.41
403.292	0.44
403.656	0.43
404.02	0.44
404.384	0.41
404.749	0.42
405.113	0.43
405.477	0.41
405.841	0.41
406.205	0.41
406.569	0.41
406.933	0.4
407.296	0.39
407.66	0.39
408.024	0.39
408.388	0.4
408.752	0.38
409.115	0.38
409.479	0.39
409.842	0.38
410.206	0.37
410.569	0.38
410.933	0.36
411.296	0.36
411.66	0.37
412.023	0.37
412.386	0.36
412.749	0.36
413.113	0.36
413.476	0.33
413.839	0.35
414.202	0.35
414.565	0.33
414.928	0.34
415.291	0.34
415.654	0.33
416.017	0.34
416.38	0.34
416.742	0.32
417.105	0.33
417.468	0.32
417.83	0.33
418.193	0.35
418.556	0.34
418.918	0.31
419.281	0.31
419.643	0.32
420.005	0.32
420.368	0.32
420.73	0.3
421.092	0.32
421.455	0.32
421.817	0.3
422.179	0.29
422.541	0.3
422.903	0.3
423.265	0.3
423.627	0.3
423.989	0.3
424.351	0.29
424.713	0.28
425.075	0.28
425.436	0.29
425.798	0.28
426.16	0.29
426.521	0.3
426.883	0.3
427.245	0.29
427.606	0.28
427.967	0.27
428.329	0.28
428.69	0.3
429.052	0.29
429.413	0.29
429.774	0.28
430.135	0.27
430.497	0.27
430.858	0.28
431.219	0.27
431.58	0.28
431.941	0.26
432.302	0.27
432.663	0.26
433.024	0.28
433.384	0.28
433.745	0.25
434.106	0.26
434.467	0.28
434.827	0.28
435.188	0.27
435.548	0.28
435.909	0.26
436.269	0.28
436.63	0.26
436.99	0.26
437.351	0.26
437.711	0.26
438.071	0.27
438.431	0.27
438.792	0.27
439.152	0.25
439.512	0.25
439.872	0.27
440.232	0.26
440.592	0.26
440.952	0.25
441.312	0.25
441.671	0.23
442.031	0.24
442.391	0.24
442.751	0.25
443.11	0.24
443.47	0.23
443.83	0.25
444.189	0.23
444.549	0.23
444.908	0.24
445.267	0.23
445.627	0.23
445.986	0.22
446.345	0.22
446.705	0.22
447.064	0.22
447.423	0.23
447.782	0.23
448.141	0.23
448.5	0.2
448.859	0.23
449.218	0.21
449.577	0.22
449.936	0.23
450.295	0.22
450.653	0.22
451.012	0.22
451.371	0.22
451.729	0.22
452.088	0.22
452.447	0.22
452.805	0.22
453.163	0.22
453.522	0.22
453.88	0.22
454.239	0.2
454.597	0.21
454.955	0.21
455.313	0.2
455.671	0.21
456.029	0.19
456.388	0.19
456.746	0.2
457.104	0.19
457.461	0.19
457.819	0.19
458.177	0.19
458.535	0.19
458.893	0.18
459.25	0.18
459.608	0.18
459.966	0.18
460.323	0.17
460.681	0.16
461.038	0.17
461.396	0.17
461.753	0.17
462.111	0.17
462.468	0.17
462.825	0.16
463.182	0.15
463.54	0.16
463.897	0.15
464.254	0.16
464.611	0.16
464.968	0.16
465.325	0.17
465.682	0.15
466.039	0.16
466.395	0.15
466.752	0.15
467.109	0.15
467.466	0.15
467.822	0.15
468.179	0.14
468.535	0.15
468.892	0.14
469.248	0.14
469.605	0.14
469.961	0.14
470.318	0.15
470.674	0.15
471.03	0.14
471.386	0.14
471.743	0.14
472.099	0.14
472.455	0.14
472.811	0.13
473.167	0.14
473.523	0.12
473.879	0.13
474.235	0.12
474.59	0.12
474.946	0.12
475.302	0.13
475.657	0.11
476.013	0.12
476.369	0.11
476.724	0.12
477.08	0.12
477.435	0.11
477.791	0.11
478.146	0.12
478.501	0.12
478.857	0.11
479.212	0.12
479.567	0.11
479.922	0.11
480.277	0.11
480.632	0.11
480.987	0.11
481.342	0.11
481.697	0.11
482.052	0.1
482.407	0.1
482.762	0.1
483.116	0.1
483.471	0.1
483.826	0.09
484.18	0.1
484.535	0.09
484.89	0.09
485.244	0.1
485.598	0.1
485.953	0.09
486.307	0.09
486.661	0.1
487.016	0.09
487.37	0.09
487.724	0.09
488.078	0.09
488.432	0.09
488.786	0.09
489.14	0.09
489.494	0.08
489.848	0.08
490.202	0.08
490.556	0.08
490.91	0.08
491.263	0.08
491.617	0.08
491.971	0.09
492.324	0.08
492.678	0.09
493.031	0.09
493.385	0.08
493.738	0.08
494.091	0.08
494.445	0.08
494.798	0.08
495.151	0.08
495.504	0.08
495.857	0.07
496.21	0.08
496.564	0.08
496.916	0.08
497.269	0.07
497.622	0.08
497.975	0.07
498.328	0.08
498.681	0.07
499.033	0.08
499.386	0.08
499.739	0.07
500.091	0.07
500.444	0.07
500.796	0.07
501.149	0.07
501.501	0.07
501.854	0.07
502.206	0.07
502.558	0.07
502.91	0.07
503.263	0.07
503.615	0.07
503.967	0.07
504.319	0.07
504.671	0.08
505.023	0.07
505.375	0.06
505.726	0.07
506.078	0.07
506.43	0.07
506.782	0.06
507.133	0.07
507.485	0.07
507.837	0.08
508.188	0.07
508.54	0.07
508.891	0.07
509.243	0.07
509.594	0.07
509.945	0.07
510.296	0.06
510.648	0.07
510.999	0.06
511.35	0.07
511.701	0.07
512.052	0.06
512.403	0.07
512.754	0.07
513.105	0.07
513.456	0.06
513.807	0.06
514.157	0.07
514.508	0.06
514.859	0.06
515.209	0.06
515.56	0.07
515.91	0.06
516.261	0.07
516.611	0.07
516.962	0.07
517.312	0.07
517.662	0.06
518.013	0.07
518.363	0.07
518.713	0.07
519.063	0.07
519.413	0.06
519.763	0.07
520.113	0.06
520.463	0.07
520.813	0.07
521.163	0.07
521.512	0.07
521.862	0.07
522.212	0.07
522.562	0.07
522.911	0.07
523.261	0.06
523.61	0.06
523.96	0.07
524.309	0.07
524.658	0.07
525.008	0.06
525.357	0.06
525.706	0.07
526.056	0.06
526.405	0.07
526.754	0.06
527.103	0.06
527.452	0.06
527.801	0.07
528.15	0.07
528.499	0.07
528.847	0.07
529.196	0.08
529.545	0.07
529.893	0.07
530.242	0.07
530.591	0.08
530.939	0.08
531.288	0.07
531.636	0.08
531.985	0.07
532.333	0.07
532.681	0.08
533.029	0.07
533.378	0.07
533.726	0.07
534.074	0.08
534.422	0.07
534.77	0.08
535.118	0.07
535.466	0.07
535.814	0.07
536.162	0.07
536.509	0.08
536.857	0.07
537.205	0.07
537.552	0.07
537.9	0.07
538.248	0.06
538.595	0.07
538.943	0.07
539.29	0.07
539.637	0.07
539.985	0.07
540.332	0.07
540.679	0.07
541.026	0.07
541.373	0.08
541.721	0.06
542.068	0.07
542.415	0.07
542.762	0.07
543.108	0.05
543.455	0.06
543.802	0.06
544.149	0.06
544.496	0.06
544.842	0.06
545.189	0.05
545.535	0.06
545.882	0.07
546.228	0.05
546.575	0.06
546.921	0.05
547.267	0.06
547.614	0.06
547.96	0.06
548.306	0.06
548.652	0.06
548.998	0.07
549.344	0.06
549.69	0.05
550.036	0.06
550.382	0.05
550.728	0.05
551.074	0.06
551.42	0.06
551.765	0.06
552.111	0.07
552.457	0.07
552.802	0.06
553.148	0.06
553.493	0.06
553.839	0.06
554.184	0.07
554.529	0.05
554.875	0.07
555.22	0.06
555.565	0.06
555.91	0.06
556.255	0.06
556.6	0.07
556.945	0.05
557.29	0.06
557.635	0.07
557.98	0.07
558.325	0.06
558.67	0.07
559.014	0.06
559.359	0.07
559.704	0.07
560.048	0.06
560.393	0.07
560.737	0.06
561.082	0.07
561.426	0.06
561.77	0.06
562.115	0.06
562.459	0.05
562.803	0.07
563.147	0.06
563.491	0.06
563.835	0.06
564.179	0.07
564.523	0.06
564.867	0.06
565.211	0.06
565.555	0.06
565.899	0.06
566.242	0.06
566.586	0.05
566.93	0.06
567.273	0.06
567.617	0.06
567.96	0.06
568.304	0.07
568.647	0.06
568.99	0.06
569.334	0.07
569.677	0.07
570.02	0.07
570.363	0.07
570.706	0.07
571.049	0.07
571.392	0.07
571.735	0.06
572.078	0.06
572.421	0.07
572.764	0.06
573.106	0.06
573.449	0.06
573.792	0.06
574.134	0.06
574.477	0.07
574.819	0.06
575.162	0.06
575.504	0.06
575.847	0.06
576.189	0.07
576.531	0.07
576.873	0.06
577.215	0.06
577.558	0.06
577.9	0.05
578.242	0.06
578.584	0.06
578.926	0.06
579.267	0.07
579.609	0.06
579.951	0.06
580.293	0.06
580.634	0.07
580.976	0.07
581.318	0.06
581.659	0.06
582.001	0.06
582.342	0.06
582.683	0.06
583.025	0.06
583.366	0.05
583.707	0.06
584.049	0.06
584.39	0.06
584.731	0.05
585.072	0.06
585.413	0.06
585.754	0.06
586.095	0.06
586.435	0.06
586.776	0.06
587.117	0.06
587.458	0.06
587.798	0.06
588.139	0.06
588.48	0.05
588.82	0.06
589.161	0.06
589.501	0.06
589.841	0.06
590.182	0.06
590.522	0.06
590.862	0.06
591.202	0.06
591.542	0.06
591.882	0.06
592.222	0.06
592.562	0.06
592.902	0.06
593.242	0.06
593.582	0.07
593.922	0.06
594.261	0.07
594.601	0.05
594.941	0.06
595.28	0.06
595.62	0.07
595.959	0.06
596.299	0.06
596.638	0.06
596.977	0.06
597.317	0.07
597.656	0.06
597.995	0.06
598.334	0.07
598.673	0.06
599.012	0.06
599.351	0.07
599.69	0.06
600.029	0.07
600.368	0.06
600.707	0.07
601.046	0.07
601.384	0.07
601.723	0.07
602.061	0.06
602.4	0.06
602.738	0.06
603.077	0.07
603.415	0.06
603.754	0.07
604.092	0.06
604.43	0.06
604.768	0.06
605.107	0.06
605.445	0.06
605.783	0.06
606.121	0.06
606.459	0.06
606.796	0.06
607.134	0.06
607.472	0.06
607.81	0.07
608.148	0.06
608.485	0.06
608.823	0.06
609.16	0.06
609.498	0.06
609.835	0.05
610.173	0.06
610.51	0.06
610.847	0.07
611.185	0.06
611.522	0.07
611.859	0.07
612.196	0.07
612.533	0.07
612.87	0.07
613.207	0.07
613.544	0.07
613.881	0.08
614.217	0.07
614.554	0.07
614.891	0.07
615.228	0.07
615.564	0.07
615.901	0.08
616.237	0.07
616.574	0.07
616.91	0.08
617.246	0.08
617.583	0.07
617.919	0.08
618.255	0.08
618.591	0.07
618.927	0.08
619.263	0.08
619.599	0.08
619.935	0.08
620.271	0.07
620.607	0.08
620.943	0.07
621.279	0.08
621.614	0.07
621.95	0.08
622.286	0.07
622.621	0.07
622.957	0.07
623.292	0.06
623.627	0.07
623.963	0.07
624.298	0.07
624.633	0.07
624.968	0.06
625.304	0.07
625.639	0.06
625.974	0.06
626.309	0.06
626.644	0.06
626.979	0.07
627.313	0.07
627.648	0.06
627.983	0.07
628.318	0.06
628.652	0.06
628.987	0.06
629.321	0.06
629.656	0.06
629.99	0.05
630.325	0.06
630.659	0.06
630.993	0.05
631.327	0.06
631.662	0.05
631.996	0.06
632.33	0.06
632.664	0.06
632.998	0.06
633.332	0.06
633.666	0.05
633.999	0.07
634.333	0.06
634.667	0.06
635.001	0.05
635.334	0.06
635.668	0.06
636.001	0.06
636.335	0.06
636.668	0.06
637.001	0.05
637.335	0.05
637.668	0.05
638.001	0.05
638.334	0.05
638.668	0.06
639.001	0.06
639.334	0.05
639.667	0.06
639.999	0.05
640.332	0.05
640.665	0.05
640.998	0.06
641.331	0.06
641.663	0.05
641.996	0.05
642.328	0.06
642.661	0.06
642.993	0.06
643.326	0.06
643.658	0.04
643.99	0.05
644.323	0.05
644.655	0.05
644.987	0.05
645.319	0.05
645.651	0.05
645.983	0.05
646.315	0.05
646.647	0.05
646.979	0.06
647.31	0.07
647.642	0.06
647.974	0.05
648.305	0.06
648.637	0.06
648.968	0.06
649.3	0.06
649.631	0.06
649.963	0.06
650.294	0.06
650.625	0.06
650.957	0.06
651.288	0.06
651.619	0.06
651.95	0.06
652.281	0.06
652.612	0.06
652.943	0.07
653.274	0.07
653.604	0.06
653.935	0.06
654.266	0.06
654.596	0.06
654.927	0.06
655.258	0.06
655.588	0.06
655.918	0.06
656.249	0.04
656.579	0.06
656.909	0.06
657.24	0.06
657.57	0.06
657.9	0.06
658.23	0.06
658.56	0.07
658.89	0.07
659.22	0.06
659.55	0.06
659.88	0.07
660.209	0.06
660.539	0.08
660.869	0.07
661.198	0.07
661.528	0.06
661.857	0.06
662.187	0.06
662.516	0.06
662.846	0.06
663.175	0.06
663.504	0.06
663.833	0.06
664.163	0.07
664.492	0.06
664.821	0.06
665.15	0.06
665.479	0.07
665.807	0.06
666.136	0.06
666.465	0.07
666.794	0.06
667.122	0.07
667.451	0.06
667.78	0.07
668.108	0.06
668.437	0.06
668.765	0.06
669.093	0.06
669.422	0.06
669.75	0.07
670.078	0.06
670.406	0.06
670.734	0.07
671.062	0.06
671.39	0.06
671.718	0.06
672.046	0.06
672.374	0.06
672.702	0.06
673.029	0.06
673.357	0.06
673.685	0.06
674.012	0.06
674.34	0.06
674.667	0.06
674.995	0.06
675.322	0.07
675.649	0.06
675.977	0.06
676.304	0.06
676.631	0.06
676.958	0.06
677.285	0.06
677.612	0.06
677.939	0.06
678.266	0.06
678.593	0.06
678.92	0.06
679.246	0.06
679.573	0.06
679.9	0.06
680.226	0.06
680.553	0.06
680.879	0.06
681.206	0.06
681.532	0.06
681.858	0.06
682.184	0.06
682.511	0.06
682.837	0.06
683.163	0.06
683.489	0.06
683.815	0.06
684.141	0.06
684.467	0.06
684.793	0.05
685.118	0.05
685.444	0.05
685.77	0.05
686.095	0.06
686.421	0.05
686.746	0.06
687.072	0.06
687.397	0.06
687.723	0.06
688.048	0.07
688.373	0.06
688.698	0.06
689.023	0.06
689.349	0.06
689.674	0.06
689.999	0.06
690.323	0.05
690.648	0.06
690.973	0.06
691.298	0.05
691.623	0.06
691.947	0.06
692.272	0.06
692.596	0.06
692.921	0.06
693.245	0.06
693.57	0.06
693.894	0.06
694.218	0.06
694.543	0.06
694.867	0.06
695.191	0.05
695.515	0.06
695.839	0.05
696.163	0.06
696.487	0.06
696.811	0.06
697.135	0.06
697.458	0.06
697.782	0.06
698.106	0.06
698.429	0.06
698.753	0.06
699.076	0.05
699.4	0.05
699.723	0.06
700.046	0.05
700.37	0.06
700.693	0.06
701.016	0.06
701.339	0.06
701.662	0.06
701.985	0.06
702.308	0.06
702.631	0.06
702.954	0.06
703.277	0.06
703.599	0.06
703.922	0.05
704.245	0.05
704.567	0.06
704.89	0.05
705.212	0.05
705.535	0.06
705.857	0.05
706.179	0.05
706.502	0.04
706.824	0.05
707.146	0.05
707.468	0.05
707.79	0.05
708.112	0.05
708.434	0.05
708.756	0.06
709.078	0.06
709.399	0.05
709.721	0.05
710.043	0.05
710.364	0.06
710.686	0.05
711.007	0.05
711.329	0.06
711.65	0.05
711.972	0.05
712.293	0.06
712.614	0.06
712.935	0.06
713.256	0.06
713.577	0.06
713.898	0.06
714.219	0.05
714.54	0.05
714.861	0.04
715.182	0.05
715.503	0.05
715.823	0.05
716.144	0.04
716.464	0.04
716.785	0.04
717.105	0.04
717.426	0.05
717.746	0.05
718.066	0.05
718.387	0.04
718.707	0.05
719.027	0.05
719.347	0.04
719.667	0.05
719.987	0.04
720.307	0.04
720.627	0.04
720.947	0.05
721.266	0.05
721.586	0.04
721.906	0.04
722.225	0.04
722.545	0.05
722.864	0.04
723.184	0.05
723.503	0.04
723.823	0.04
724.142	0.04
724.461	0.04
724.78	0.04
725.099	0.04
725.418	0.05
725.737	0.03
726.056	0.05
726.375	0.04
726.694	0.04
727.013	0.04
727.331	0.04
727.65	0.04
727.969	0.04
728.287	0.05
728.606	0.04
728.924	0.05
729.242	0.04
729.561	0.05
729.879	0.05
730.197	0.05
730.515	0.05
730.834	0.04
731.152	0.04
731.47	0.05
731.788	0.05
732.105	0.04
732.423	0.05
732.741	0.04
733.059	0.04
733.376	0.05
733.694	0.04
734.012	0.04
734.329	0.05
734.647	0.05
734.964	0.05
735.281	0.05
735.599	0.05
735.916	0.05
736.233	0.05
736.55	0.05
736.867	0.05
737.184	0.05
737.501	0.05
737.818	0.05
738.135	0.05
738.452	0.04
738.768	0.05
739.085	0.05
739.402	0.04
739.718	0.04
740.035	0.05
740.351	0.05
740.668	0.05
740.984	0.05
741.3	0.04
741.617	0.05
741.933	0.04
742.249	0.05
742.565	0.05
742.881	0.05
743.197	0.05
743.513	0.04
743.829	0.03
744.144	0.04
744.46	0.04
744.776	0.05
745.091	0.04
745.407	0.04
745.722	0.04
746.038	0.04
746.353	0.03
746.669	0.05
746.984	0.03
747.299	0.03
747.614	0.05
747.93	0.04
748.245	0.04
748.56	0.03
748.875	0.03
749.189	0.04
749.504	0.04
749.819	0.05
750.134	0.04
750.448	0.04
750.763	0.04
751.078	0.03
751.392	0.04
751.707	0.05
752.021	0.05
752.335	0.05
752.65	0.05
752.964	0.05
753.278	0.05
753.592	0.05
753.906	0.05
754.22	0.04
754.534	0.04
754.848	0.04
755.162	0.04
755.476	0.04
755.789	0.05
756.103	0.05
756.417	0.05
756.73	0.05
757.044	0.05
757.357	0.05
757.671	0.05
757.984	0.05
758.297	0.06
758.61	0.05
758.924	0.05
759.237	0.04
759.55	0.05
759.863	0.04
760.176	0.05
760.488	0.04
760.801	0.04
761.114	0.05
761.427	0.04
761.739	0.05
762.052	0.04
762.365	0.05
762.677	0.05
762.99	0.04
763.302	0.04
763.614	0.04
763.926	0.05
764.239	0.04
764.551	0.04
764.863	0.04
765.175	0.05
765.487	0.04
765.799	0.04
766.111	0.04
766.423	0.04
766.734	0.04
767.046	0.04
767.358	0.05
767.669	0.05
767.981	0.04
768.292	0.04
768.604	0.04
768.915	0.04
769.226	0.04
769.537	0.03
769.849	0.05
770.16	0.04
770.471	0.04
770.782	0.03
771.093	0.04
771.404	0.02
771.715	0.03
772.025	0.04
772.336	0.04
772.647	0.03
772.957	0.04
773.268	0.04
773.578	0.03
773.889	0.04
774.199	0.05
774.51	0.04
774.82	0.03
775.13	0.04
775.44	0.04
775.75	0.04
776.06	0.04
776.37	0.04
776.68	0.05
776.99	0.05
777.3	0.04
777.61	0.05
777.92	0.04
778.229	0.04
778.539	0.04
778.848	0.04
779.158	0.04
779.467	0.05
779.777	0.04
780.086	0.04
780.395	0.04
780.704	0.04
781.013	0.03
781.323	0.04
781.632	0.04
781.941	0.04
782.249	0.04
782.558	0.04
782.867	0.03
783.176	0.03
783.485	0.03
783.793	0.04
784.102	0.03
784.41	0.03
784.719	0.03
785.027	0.03
785.335	0.04
785.644	0.04
785.952	0.03
786.26	0.04
786.568	0.03
786.876	0.03
787.184	0.04
787.492	0.04
787.8	0.03
788.108	0.04
788.416	0.03
788.723	0.04
789.031	0.04
789.338	0.03
789.646	0.03
789.953	0.04
790.261	0.04
790.568	0.04
790.876	0.04
791.183	0.04
791.49	0.04
791.797	0.03
792.104	0.03
792.411	0.05
792.718	0.04
793.025	0.05
793.332	0.04
793.639	0.05
793.945	0.05
794.252	0.04
794.559	0.04
794.865	0.05
795.172	0.04
795.478	0.04
795.784	0.05
796.091	0.05
796.397	0.05
796.703	0.05
797.009	0.06
797.315	0.05
797.622	0.05
797.927	0.05
798.233	0.05
798.539	0.06
798.845	0.05
799.151	0.05
799.456	0.06
799.762	0.05
800.068	0.06
800.373	0.06
800.679	0.05
800.984	0.05
801.289	0.05
801.595	0.05
801.9	0.05
802.205	0.05
802.51	0.04
802.815	0.05
803.12	0.05
803.425	0.05
803.73	0.05
804.035	0.04
804.339	0.04
804.644	0.05
804.949	0.04
805.253	0.04
805.558	0.04
805.862	0.04
806.167	0.04
806.471	0.04
806.775	0.05
807.08	0.04
807.384	0.04
807.688	0.04
807.992	0.04
808.296	0.04
808.6	0.04
808.904	0.05
809.207	0.04
809.511	0.05
809.815	0.05
810.119	0.04
810.422	0.05
810.726	0.06
811.029	0.06
811.332	0.06
811.636	0.06
811.939	0.05
812.242	0.06
812.546	0.06
812.849	0.06
813.152	0.07
813.455	0.06
813.758	0.07
814.06	0.07
814.363	0.06
814.666	0.06
814.969	0.07
815.271	0.06
815.574	0.05
815.877	0.05
816.179	0.05
816.481	0.05
816.784	0.05
817.086	0.05
817.388	0.04
817.69	0.04
817.993	0.04
818.295	0.04
818.597	0.05
818.899	0.04
819.2	0.03
819.502	0.03
819.804	0.04
820.106	0.03
820.407	0.03
820.709	0.04
821.01	0.04
821.312	0.04
821.613	0.03
821.915	0.04
822.216	0.03
822.517	0.03
822.818	0.03
823.119	0.04
823.42	0.03
823.721	0.02
824.022	0.03
824.323	0.03
824.624	0.03
824.925	0.03
825.226	0.04
825.526	0.03
825.827	0.04
826.127	0.03
826.428	0.04
826.728	0.03
827.028	0.03
827.329	0.03
827.629	0.03
827.929	0.03
828.229	0.04
828.529	0.04
828.829	0.03
829.129	0.04
829.429	0.04
829.729	0.03
830.029	0.03
830.328	0.03
830.628	0.02
830.927	0.02
831.227	0.02
831.526	0.03
831.826	0.03
832.125	0.03
832.424	0.02
832.724	0.02
833.023	0.02
833.322	0.02
833.621	0.02
833.92	0.02
834.219	0.02
834.518	0.03
834.816	0.01
835.115	0.01
835.414	0.02
835.712	0.02
836.011	0.01
836.309	0.01
836.608	0
836.906	0.01
837.205	-0
837.503	0
837.801	-0
838.099	-0
838.397	-0.01
838.695	-0
838.993	-0
839.291	-0.01
839.589	-0.01
839.887	-0.01
840.184	-0.01
840.482	-0.01
840.78	-0.01
841.077	-0.01
841.375	-0.01
841.672	-0.01
841.969	-0.01
842.267	-0.01
842.564	-0.02
842.861	-0
843.158	-0.02
843.455	-0.03
843.752	-0.02
844.049	-0.03
844.346	-0.02
844.643	-0.03
844.94	-0.02
845.236	-0.03
845.533	-0.03
845.83	-0.03
846.126	-0.04
846.423	-0.03
846.719	-0.05
847.015	-0.03
847.312	-0.03
847.608	-0.04
847.904	-0.05
848.2	-0.05
848.496	-0.05
848.792	-0.04
849.088	-0.03
849.384	-0.05
849.68	-0.05
849.975	-0.04
850.271	-0.05
850.567	-0.05
850.862	-0.05
851.158	-0.05
851.453	-0.05
851.748	-0.07
852.044	-0.06
852.339	-0.05
852.634	-0.07
852.929	-0.06
853.224	-0.07
853.519	-0.07
853.814	-0.05
854.109	-0.07
854.404	-0.07
854.699	-0.07
854.994	-0.06
855.288	-0.06
855.583	-0.06
855.877	-0.07
856.172	-0.07
856.466	-0.08
856.76	-0.07
857.055	-0.08
857.349	-0.09
857.643	-0.09
857.937	-0.1
858.231	-0.1
858.525	-0.1
858.819	-0.1
859.113	-0.11
859.407	-0.1
859.701	-0.11
859.994	-0.11
860.288	-0.1
860.581	-0.11
860.875	-0.11
861.168	-0.1
861.462	-0.11
861.755	-0.11
862.048	-0.11
862.341	-0.11
862.634	-0.11
862.928	-0.11
863.221	-0.11
863.513	-0.12
863.806	-0.11
864.099	-0.12
864.392	-0.12
864.685	-0.1
864.977	-0.11
865.27	-0.12
865.562	-0.11
865.855	-0.11
866.147	-0.11
866.44	-0.12
866.732	-0.12
867.024	-0.12
867.316	-0.12
867.608	-0.13
867.9	-0.13
868.192	-0.13
868.484	-0.13
868.776	-0.13
869.068	-0.13
869.359	-0.14
869.651	-0.14
869.943	-0.15
870.234	-0.14
870.526	-0.15
870.817	-0.15
871.108	-0.15
871.4	-0.14
871.691	-0.15
871.982	-0.15
872.273	-0.16
872.564	-0.15
872.855	-0.16
873.146	-0.16
873.437	-0.16
873.728	-0.17
874.019	-0.17
874.309	-0.17
874.6	-0.17
874.89	-0.17
875.181	-0.17
875.471	-0.17
875.762	-0.17
876.052	-0.17
876.342	-0.15
876.632	-0.16
876.922	-0.17
877.213	-0.16
877.503	-0.18
877.792	-0.17
878.082	-0.17
878.372	-0.15
878.662	-0.18
878.952	-0.17
879.241	-0.17
879.531	-0.16
879.82	-0.16
880.11	-0.16
880.399	-0.17
880.688	-0.15
880.978	-0.15
881.267	-0.15
