Data from 12-12-AQDScycling_Absorbance__342__00342.txt Node

Date: Tue Dec 12 12:22:14 EST 2023
User: kyuminlee
Spectrometer: FLMS00943
Trigger mode: 0
Integration Time (sec): 1.000000E-1
Scans to average: 1
Electric dark correction enabled: true
Nonlinearity correction enabled: false
Boxcar width: 0
XAxis mode: Wavelengths
Number of Pixels in Spectrum: 2048
>>>>>Begin Spectral Data<<<<<
179.651	-0
180.037	-0
180.424	-0
180.81	-0.42
181.197	0.56
181.583	-0
181.97	-0.23
182.356	-0
182.743	-0
183.129	1.14
183.515	0.1
183.901	-2.63
184.288	-0
184.674	0.5
185.06	-0
185.446	-0.63
185.832	-0.76
186.218	0.14
186.604	-0.17
186.99	-0
187.376	-0.05
187.762	-0
188.148	0.48
188.534	0.25
188.92	0.1
189.305	0.08
189.691	0.1
190.077	0.19
190.463	0.15
190.848	0.04
191.234	0.05
191.619	0.09
192.005	0.11
192.391	0.16
192.776	0.12
193.161	0.02
193.547	0.13
193.932	0.08
194.318	0.02
194.703	0.07
195.088	0.33
195.473	0.16
195.859	0.1
196.244	0.35
196.629	0.11
197.014	0.08
197.399	0.14
197.784	0.28
198.169	0.1
198.554	0.29
198.939	0.06
199.324	0.12
199.709	0.06
200.094	0.19
200.478	0.07
200.863	0.09
201.248	0.18
201.633	0.06
202.017	0.39
202.402	0.07
202.787	0.02
203.171	0.11
203.556	0.15
203.94	0.12
204.325	0.17
204.709	0.15
205.093	-0.01
205.478	0.23
205.862	0.24
206.246	0.19
206.631	0.04
207.015	0.06
207.399	0.1
207.783	0.16
208.167	0.15
208.551	0.14
208.935	0.22
209.319	0.15
209.703	0.11
210.087	0.32
210.471	0.21
210.855	0.18
211.239	0.31
211.623	0.32
212.007	0.18
212.39	0.21
212.774	0.13
213.158	0.26
213.541	0.28
213.925	0.24
214.309	0.26
214.692	0.29
215.076	0.19
215.459	0.21
215.842	0.24
216.226	0.33
216.609	0.26
216.993	0.17
217.376	0.34
217.759	0.18
218.142	0.3
218.525	0.7
218.909	0.25
219.292	0.36
219.675	0.41
220.058	0.43
220.441	0.44
220.824	0.37
221.207	0.56
221.59	0.42
221.973	0.58
222.355	0.55
222.738	0.73
223.121	0.5
223.504	0.54
223.886	0.74
224.269	0.65
224.652	0.66
225.034	0.79
225.417	0.81
225.799	0.83
226.182	0.83
226.564	0.73
226.947	0.79
227.329	0.77
227.711	0.9
228.094	0.95
228.476	0.97
228.858	0.79
229.24	0.75
229.623	0.91
230.005	0.89
230.387	0.89
230.769	0.84
231.151	0.93
231.533	0.94
231.915	0.81
232.297	0.9
232.679	0.96
233.061	1.02
233.442	1.02
233.824	1.06
234.206	1.05
234.588	1.06
234.969	1.03
235.351	0.94
235.733	1.07
236.114	1.22
236.496	1.1
236.877	1.28
237.259	1.09
237.64	1.06
238.022	1.01
238.403	0.99
238.784	0.95
239.165	0.94
239.547	0.99
239.928	1.06
240.309	1.02
240.69	1.13
241.071	0.95
241.452	1.06
241.834	0.95
242.215	1
242.595	1
242.976	1.16
243.357	1.06
243.738	0.94
244.119	1.21
244.5	1.13
244.881	1.32
245.261	1.21
245.642	1.25
246.023	1.16
246.403	1.21
246.784	1.24
247.164	1.31
247.545	1.41
247.925	1.3
248.306	1.18
248.686	1.36
249.067	1.24
249.447	1.29
249.827	1.55
250.207	1.36
250.588	1.3
250.968	1.41
251.348	1.29
251.728	1.6
252.108	1.3
252.488	1.48
252.868	1.43
253.248	1.39
253.628	1.29
254.008	1.46
254.388	1.25
254.768	1.44
255.147	1.31
255.527	1.37
255.907	1.37
256.287	1.41
256.666	1.37
257.046	1.34
257.425	1.35
257.805	1.26
258.184	1.36
258.564	1.38
258.943	1.31
259.323	1.53
259.702	1.53
260.081	1.43
260.461	1.38
260.84	1.47
261.219	1.63
261.598	1.47
261.977	1.47
262.356	1.52
262.736	1.39
263.115	1.61
263.494	1.44
263.873	1.38
264.251	1.48
264.63	1.63
265.009	1.4
265.388	1.34
265.767	1.34
266.145	1.55
266.524	1.37
266.903	1.33
267.281	1.32
267.66	1.6
268.039	1.48
268.417	1.45
268.796	1.33
269.174	1.42
269.552	1.29
269.931	1.73
270.309	1.33
270.687	1.5
271.066	1.55
271.444	1.46
271.822	1.42
272.2	1.52
272.578	1.27
272.956	1.42
273.334	1.33
273.712	1.37
274.09	1.55
274.468	1.45
274.846	1.32
275.224	1.46
275.602	1.38
275.98	1.57
276.357	1.41
276.735	1.47
277.113	1.5
277.49	1.31
277.868	1.4
278.246	1.23
278.623	1.42
279.001	1.29
279.378	1.43
279.756	1.59
280.133	1.58
280.51	1.5
280.888	1.35
281.265	1.28
281.642	1.53
282.019	1.51
282.396	1.56
282.773	1.48
283.151	1.5
283.528	1.49
283.905	1.44
284.282	1.51
284.659	1.54
285.035	1.37
285.412	1.39
285.789	1.41
286.166	1.54
286.543	1.44
286.919	1.48
287.296	1.45
287.673	1.64
288.049	1.46
288.426	1.76
288.802	1.51
289.179	1.44
289.555	1.56
289.932	1.41
290.308	1.33
290.684	1.36
291.061	1.32
291.437	1.5
291.813	1.39
292.189	1.27
292.565	1.31
292.942	1.4
293.318	1.39
293.694	1.38
294.07	1.34
294.446	1.29
294.822	1.5
295.197	1.28
295.573	1.34
295.949	1.53
296.325	1.38
296.701	1.41
297.076	1.44
297.452	1.54
297.828	1.36
298.203	1.44
298.579	1.36
298.954	1.32
299.33	1.3
299.705	1.26
300.081	1.29
300.456	1.29
300.831	1.2
301.206	1.23
301.582	1.32
301.957	1.24
302.332	1.31
302.707	1.15
303.082	1.11
303.457	1.16
303.832	1.09
304.207	1.03
304.582	1.05
304.957	1.04
305.332	1.06
305.707	1.05
306.082	1
306.456	1.08
306.831	0.96
307.206	0.96
307.58	0.95
307.955	0.9
308.33	0.88
308.704	0.89
309.079	0.83
309.453	0.88
309.828	0.85
310.202	0.85
310.576	0.81
310.951	0.82
311.325	0.77
311.699	0.77
312.073	0.74
312.447	0.76
312.821	0.77
313.196	0.76
313.57	0.7
313.944	0.71
314.317	0.67
314.691	0.69
315.065	0.7
315.439	0.68
315.813	0.65
316.187	0.64
316.56	0.66
316.934	0.63
317.308	0.63
317.681	0.61
318.055	0.63
318.428	0.62
318.802	0.61
319.175	0.6
319.549	0.61
319.922	0.6
320.295	0.59
320.669	0.59
321.042	0.58
321.415	0.6
321.788	0.57
322.162	0.55
322.535	0.56
322.908	0.57
323.281	0.57
323.654	0.57
324.027	0.54
324.4	0.56
324.773	0.58
325.145	0.54
325.518	0.53
325.891	0.56
326.264	0.55
326.636	0.54
327.009	0.57
327.382	0.56
327.754	0.57
328.127	0.58
328.499	0.6
328.872	0.58
329.244	0.6
329.616	0.56
329.989	0.59
330.361	0.61
330.733	0.58
331.106	0.59
331.478	0.61
331.85	0.59
332.222	0.58
332.594	0.63
332.966	0.64
333.338	0.66
333.71	0.65
334.082	0.67
334.454	0.67
334.826	0.67
335.197	0.69
335.569	0.69
335.941	0.72
336.312	0.72
336.684	0.73
337.056	0.72
337.427	0.73
337.799	0.76
338.17	0.76
338.542	0.76
338.913	0.79
339.284	0.81
339.656	0.81
340.027	0.82
340.398	0.85
340.769	0.82
341.141	0.86
341.512	0.87
341.883	0.86
342.254	0.86
342.625	0.92
342.996	0.93
343.367	0.85
343.738	0.89
344.108	0.94
344.479	0.97
344.85	0.9
345.221	1.01
345.591	0.94
345.962	1.02
346.333	1
346.703	0.96
347.074	1.04
347.444	1.07
347.815	1.11
348.185	1.08
348.556	1.08
348.926	1.07
349.296	1.07
349.666	1.08
350.037	1.12
350.407	1.09
350.777	1.16
351.147	1.22
351.517	1.16
351.887	1.18
352.257	1.16
352.627	1.18
352.997	1.25
353.367	1.25
353.737	1.38
354.106	1.38
354.476	1.31
354.846	1.44
355.216	1.35
355.585	1.4
355.955	1.32
356.324	1.44
356.694	1.31
357.063	1.35
357.433	1.47
357.802	1.49
358.171	1.59
358.541	1.46
358.91	1.49
359.279	1.56
359.648	1.51
360.017	1.47
360.387	1.55
360.756	1.52
361.125	1.48
361.494	1.55
361.863	1.65
362.231	1.53
362.6	1.54
362.969	1.6
363.338	1.43
363.707	1.52
364.075	1.56
364.444	1.38
364.813	1.44
365.181	1.64
365.55	1.56
365.918	1.68
366.287	1.68
366.655	1.77
367.024	1.63
367.392	1.54
367.76	1.44
368.128	1.49
368.497	1.59
368.865	1.53
369.233	1.51
369.601	1.67
369.969	1.6
370.337	1.52
370.705	1.47
371.073	1.57
371.441	1.63
371.809	1.41
372.177	1.49
372.544	1.47
372.912	1.62
373.28	1.52
373.647	1.46
374.015	1.59
374.383	1.79
374.75	1.63
375.118	1.58
375.485	1.51
375.853	1.57
376.22	1.59
376.587	1.54
376.955	1.53
377.322	1.62
377.689	1.56
378.056	1.56
378.423	1.5
378.79	1.45
379.157	1.55
379.524	1.6
379.891	1.47
380.258	1.62
380.625	1.64
380.992	1.58
381.359	1.6
381.726	1.47
382.092	1.57
382.459	1.58
382.826	1.54
383.192	1.56
383.559	1.42
383.925	1.6
384.292	1.47
384.658	1.78
385.025	1.48
385.391	1.54
385.757	1.7
386.123	1.64
386.49	1.61
386.856	1.56
387.222	1.59
387.588	1.55
387.954	1.67
388.32	1.72
388.686	1.61
389.052	1.52
389.418	1.54
389.784	1.48
390.15	1.71
390.515	1.43
390.881	1.64
391.247	1.48
391.613	1.66
391.978	1.55
392.344	1.63
392.709	1.57
393.075	1.6
393.44	1.81
393.806	1.58
394.171	1.57
394.536	1.53
394.902	1.62
395.267	1.68
395.632	1.43
395.997	1.53
396.362	1.48
396.727	1.66
397.092	1.63
397.457	1.48
397.822	1.55
398.187	1.67
398.552	1.64
398.917	1.61
399.282	1.54
399.646	1.55
400.011	1.76
400.376	1.47
400.74	1.38
401.105	1.6
401.47	1.69
401.834	1.49
402.199	1.5
402.563	1.53
402.927	1.66
403.292	1.67
403.656	1.54
404.02	1.59
404.384	1.71
404.749	1.7
405.113	1.64
405.477	1.63
405.841	1.54
406.205	1.51
406.569	1.57
406.933	1.54
407.296	1.47
407.66	1.52
408.024	1.56
408.388	1.61
408.752	1.56
409.115	1.63
409.479	1.69
409.842	1.63
410.206	1.56
410.569	1.58
410.933	1.57
411.296	1.42
411.66	1.77
412.023	1.38
412.386	1.53
412.749	1.41
413.113	1.63
413.476	1.49
413.839	1.57
414.202	1.46
414.565	1.46
414.928	1.42
415.291	1.37
415.654	1.49
416.017	1.62
416.38	1.48
416.742	1.46
417.105	1.49
417.468	1.38
417.83	1.45
418.193	1.55
418.556	1.44
418.918	1.46
419.281	1.57
419.643	1.59
420.005	1.42
420.368	1.53
420.73	1.42
421.092	1.6
421.455	1.61
421.817	1.38
422.179	1.46
422.541	1.55
422.903	1.63
423.265	1.59
423.627	1.47
423.989	1.56
424.351	1.5
424.713	1.59
425.075	1.58
425.436	1.56
425.798	1.43
426.16	1.6
426.521	1.5
426.883	1.61
427.245	1.67
427.606	1.55
427.967	1.39
428.329	1.48
428.69	1.49
429.052	1.51
429.413	1.77
429.774	1.51
430.135	1.61
430.497	1.81
430.858	1.61
431.219	1.61
431.58	1.5
431.941	1.53
432.302	1.49
432.663	1.63
433.024	1.6
433.384	1.5
433.745	1.48
434.106	1.73
434.467	1.53
434.827	1.5
435.188	1.5
435.548	1.62
435.909	1.54
436.269	1.6
436.63	1.59
436.99	1.47
437.351	1.39
437.711	1.57
438.071	1.44
438.431	1.53
438.792	1.48
439.152	1.54
439.512	1.49
439.872	1.49
440.232	1.62
440.592	1.53
440.952	1.54
441.312	1.5
441.671	1.52
442.031	1.53
442.391	1.44
442.751	1.5
443.11	1.48
443.47	1.4
443.83	1.41
444.189	1.41
444.549	1.46
444.908	1.41
445.267	1.39
445.627	1.45
445.986	1.38
446.345	1.39
446.705	1.45
447.064	1.5
447.423	1.42
447.782	1.39
448.141	1.35
448.5	1.33
448.859	1.35
449.218	1.4
449.577	1.39
449.936	1.4
450.295	1.34
450.653	1.34
451.012	1.4
451.371	1.34
451.729	1.31
452.088	1.35
452.447	1.33
452.805	1.29
453.163	1.3
453.522	1.33
453.88	1.3
454.239	1.26
454.597	1.25
454.955	1.23
455.313	1.26
455.671	1.25
456.029	1.23
456.388	1.2
456.746	1.19
457.104	1.16
457.461	1.16
457.819	1.16
458.177	1.14
458.535	1.13
458.893	1.12
459.25	1.14
459.608	1.11
459.966	1.05
460.323	1.06
460.681	1.03
461.038	1.03
461.396	1
461.753	1
462.111	1
462.468	0.97
462.825	0.95
463.182	0.96
463.54	0.94
463.897	0.94
464.254	0.9
464.611	0.9
464.968	0.87
465.325	0.87
465.682	0.86
466.039	0.87
466.395	0.82
466.752	0.82
467.109	0.81
467.466	0.78
467.822	0.79
468.179	0.75
468.535	0.76
468.892	0.74
469.248	0.73
469.605	0.72
469.961	0.71
470.318	0.71
470.674	0.69
471.03	0.68
471.386	0.66
471.743	0.65
472.099	0.62
472.455	0.63
472.811	0.61
473.167	0.6
473.523	0.59
473.879	0.58
474.235	0.57
474.59	0.56
474.946	0.55
475.302	0.54
475.657	0.52
476.013	0.52
476.369	0.5
476.724	0.5
477.08	0.5
477.435	0.48
477.791	0.47
478.146	0.46
478.501	0.45
478.857	0.45
479.212	0.44
479.567	0.43
479.922	0.41
480.277	0.41
480.632	0.4
480.987	0.39
481.342	0.38
481.697	0.38
482.052	0.37
482.407	0.36
482.762	0.35
483.116	0.34
483.471	0.33
483.826	0.32
484.18	0.32
484.535	0.31
484.89	0.31
485.244	0.3
485.598	0.3
485.953	0.29
486.307	0.28
486.661	0.28
487.016	0.27
487.37	0.27
487.724	0.26
488.078	0.25
488.432	0.25
488.786	0.25
489.14	0.24
489.494	0.23
489.848	0.22
490.202	0.21
490.556	0.21
490.91	0.21
491.263	0.2
491.617	0.21
491.971	0.2
492.324	0.19
492.678	0.19
493.031	0.19
493.385	0.18
493.738	0.18
494.091	0.17
494.445	0.17
494.798	0.17
495.151	0.16
495.504	0.16
495.857	0.15
496.21	0.15
496.564	0.15
496.916	0.15
497.269	0.14
497.622	0.14
497.975	0.14
498.328	0.14
498.681	0.14
499.033	0.13
499.386	0.13
499.739	0.12
500.091	0.12
500.444	0.12
500.796	0.11
501.149	0.11
501.501	0.11
501.854	0.11
502.206	0.11
502.558	0.11
502.91	0.1
503.263	0.1
503.615	0.1
503.967	0.09
504.319	0.09
504.671	0.09
505.023	0.08
505.375	0.08
505.726	0.08
506.078	0.08
506.43	0.07
506.782	0.07
507.133	0.08
507.485	0.08
507.837	0.08
508.188	0.08
508.54	0.08
508.891	0.08
509.243	0.07
509.594	0.07
509.945	0.07
510.296	0.06
510.648	0.06
510.999	0.05
511.35	0.06
511.701	0.06
512.052	0.07
512.403	0.06
512.754	0.06
513.105	0.06
513.456	0.05
513.807	0.05
514.157	0.06
514.508	0.06
514.859	0.04
515.209	0.05
515.56	0.05
515.91	0.05
516.261	0.05
516.611	0.05
516.962	0.05
517.312	0.05
517.662	0.04
518.013	0.04
518.363	0.05
518.713	0.05
519.063	0.04
519.413	0.05
519.763	0.04
520.113	0.04
520.463	0.05
520.813	0.04
521.163	0.04
521.512	0.04
521.862	0.04
522.212	0.05
522.562	0.04
522.911	0.04
523.261	0.04
523.61	0.05
523.96	0.04
524.309	0.04
524.658	0.04
525.008	0.03
525.357	0.04
525.706	0.04
526.056	0.04
526.405	0.04
526.754	0.04
527.103	0.02
527.452	0.03
527.801	0.04
528.15	0.04
528.499	0.04
528.847	0.03
529.196	0.04
529.545	0.04
529.893	0.04
530.242	0.03
530.591	0.04
530.939	0.05
531.288	0.04
531.636	0.04
531.985	0.04
532.333	0.04
532.681	0.04
533.029	0.04
533.378	0.04
533.726	0.03
534.074	0.05
534.422	0.03
534.77	0.04
535.118	0.03
535.466	0.03
535.814	0.03
536.162	0.04
536.509	0.04
536.857	0.03
537.205	0.04
537.552	0.04
537.9	0.04
538.248	0.03
538.595	0.04
538.943	0.04
539.29	0.04
539.637	0.03
539.985	0.03
540.332	0.03
540.679	0.04
541.026	0.03
541.373	0.04
541.721	0.02
542.068	0.03
542.415	0.03
542.762	0.02
543.108	0.02
543.455	0.01
543.802	0.02
544.149	0.02
544.496	0.02
544.842	0.02
545.189	0.02
545.535	0.02
545.882	0.02
546.228	0.02
546.575	0.02
546.921	0.02
547.267	0.02
547.614	0.02
547.96	0.02
548.306	0.02
548.652	0.02
548.998	0.03
549.344	0.01
549.69	0.02
550.036	0.02
550.382	0.02
550.728	0.02
551.074	0.02
551.42	0.02
551.765	0.02
552.111	0.02
552.457	0.03
552.802	0.03
553.148	0.02
553.493	0.01
553.839	0.02
554.184	0.03
554.529	0.01
554.875	0.03
555.22	0.02
555.565	0.03
555.91	0.01
556.255	0.03
556.6	0.03
556.945	0.02
557.29	0.03
557.635	0.03
557.98	0.03
558.325	0.03
558.67	0.02
559.014	0.03
559.359	0.03
559.704	0.02
560.048	0.01
560.393	0.03
560.737	0.02
561.082	0.03
561.426	0.01
561.77	0.02
562.115	0.01
562.459	0.02
562.803	0.02
563.147	0.02
563.491	0.02
563.835	0.02
564.179	0.01
564.523	0.02
564.867	0.02
565.211	0.02
565.555	0.02
565.899	0.03
566.242	0.02
566.586	0.01
566.93	0.02
567.273	0.02
567.617	0.02
567.96	0.02
568.304	0.03
568.647	0.02
568.99	0.02
569.334	0.03
569.677	0.02
570.02	0.03
570.363	0.03
570.706	0.02
571.049	0.02
571.392	0.02
571.735	0.01
572.078	0.03
572.421	0.03
572.764	0.02
573.106	0.03
573.449	0.02
573.792	0.02
574.134	0.02
574.477	0.02
574.819	0.01
575.162	0.01
575.504	0.01
575.847	0.02
576.189	0.02
576.531	0.02
576.873	0.02
577.215	0.02
577.558	0.03
577.9	0.02
578.242	0.02
578.584	0.03
578.926	0.02
579.267	0.02
579.609	0.03
579.951	0.01
580.293	0.02
580.634	0.02
580.976	0.02
581.318	0.02
581.659	0.02
582.001	0.02
582.342	0.02
582.683	0.03
583.025	0.01
583.366	0.01
583.707	0.01
584.049	0.02
584.39	0.02
584.731	0.01
585.072	0.01
585.413	0.02
585.754	0.02
586.095	0.02
586.435	0.02
586.776	0.02
587.117	0.02
587.458	0.02
587.798	0.02
588.139	0.02
588.48	0.01
588.82	0.01
589.161	0.02
589.501	0.01
589.841	0.02
590.182	0.02
590.522	0.01
590.862	0.02
591.202	0.02
591.542	0.01
591.882	0.01
592.222	0.02
592.562	0.02
592.902	0.01
593.242	0.01
593.582	0.02
593.922	0.02
594.261	0.02
594.601	0.02
594.941	0.01
595.28	0.02
595.62	0.02
595.959	0.02
596.299	0.02
596.638	0.01
596.977	0.02
597.317	0.03
597.656	0.02
597.995	0.02
598.334	0.03
598.673	0.02
599.012	0.02
599.351	0.02
599.69	0.01
600.029	0.02
600.368	0.01
600.707	0.02
601.046	0.02
601.384	0.02
601.723	0.02
602.061	0.01
602.4	0.02
602.738	0.03
603.077	0.02
603.415	0.01
603.754	0.02
604.092	0.02
604.43	0.02
604.768	0.02
605.107	0.02
605.445	0.02
605.783	0.02
606.121	0.01
606.459	0.02
606.796	0.02
607.134	0.01
607.472	0.01
607.81	0.02
608.148	0.01
608.485	0.02
608.823	0.02
609.16	0.02
609.498	0.02
609.835	0.02
610.173	0.02
610.51	0.02
610.847	0.02
611.185	0.03
611.522	0.02
611.859	0.02
612.196	0.03
612.533	0.04
612.87	0.04
613.207	0.03
613.544	0.03
613.881	0.04
614.217	0.03
614.554	0.03
614.891	0.03
615.228	0.03
615.564	0.03
615.901	0.03
616.237	0.03
616.574	0.03
616.91	0.03
617.246	0.03
617.583	0.03
617.919	0.04
618.255	0.04
618.591	0.03
618.927	0.03
619.263	0.04
619.599	0.04
619.935	0.04
620.271	0.04
620.607	0.04
620.943	0.04
621.279	0.03
621.614	0.03
621.95	0.03
622.286	0.03
622.621	0.03
622.957	0.02
623.292	0.02
623.627	0.02
623.963	0.02
624.298	0.03
624.633	0.02
624.968	0.02
625.304	0.02
625.639	0.02
625.974	0.02
626.309	0.02
626.644	0.02
626.979	0.02
627.313	0.02
627.648	0.02
627.983	0.03
628.318	0.02
628.652	0.02
628.987	0.02
629.321	0.02
629.656	0.01
629.99	0.02
630.325	0.02
630.659	0.02
630.993	0.01
631.327	0.02
631.662	0.02
631.996	0.01
632.33	0.02
632.664	0.02
632.998	0.02
633.332	0.02
633.666	0.02
633.999	0.01
634.333	0.02
634.667	0.02
635.001	0.01
635.334	0.02
635.668	0.02
636.001	0.02
636.335	0.02
636.668	0.02
637.001	0.02
637.335	0.02
637.668	0.02
638.001	0.01
638.334	0.02
638.668	0.02
639.001	0.01
639.334	0.02
639.667	0
639.999	0.01
640.332	0.01
640.665	0.01
640.998	0.01
641.331	0.01
641.663	0.01
641.996	0.01
642.328	0.01
642.661	0.01
642.993	0.02
643.326	0.01
643.658	0.01
643.99	0.01
644.323	0.01
644.655	0.01
644.987	0.01
645.319	0.02
645.651	0.01
645.983	0.01
646.315	0.01
646.647	0.01
646.979	0.02
647.31	0.02
647.642	0.02
647.974	0.02
648.305	0.02
648.637	0.03
648.968	0.03
649.3	0.02
649.631	0.03
649.963	0.02
650.294	0.03
650.625	0.02
650.957	0.03
651.288	0.03
651.619	0.03
651.95	0.03
652.281	0.03
652.612	0.03
652.943	0.03
653.274	0.03
653.604	0.03
653.935	0.03
654.266	0.03
654.596	0.03
654.927	0.02
655.258	0.03
655.588	0.03
655.918	0.03
656.249	0.01
656.579	0.03
656.909	0.02
657.24	0.02
657.57	0.03
657.9	0.03
658.23	0.03
658.56	0.03
658.89	0.03
659.22	0.03
659.55	0.03
659.88	0.03
660.209	0.04
660.539	0.04
660.869	0.04
661.198	0.04
661.528	0.04
661.857	0.03
662.187	0.04
662.516	0.04
662.846	0.03
663.175	0.03
663.504	0.03
663.833	0.03
664.163	0.03
664.492	0.03
664.821	0.03
665.15	0.03
665.479	0.03
665.807	0.03
666.136	0.03
666.465	0.02
666.794	0.03
667.122	0.03
667.451	0.03
667.78	0.03
668.108	0.03
668.437	0.02
668.765	0.03
669.093	0.04
669.422	0.03
669.75	0.03
670.078	0.02
670.406	0.03
670.734	0.03
671.062	0.03
671.39	0.03
671.718	0.03
672.046	0.03
672.374	0.03
672.702	0.03
673.029	0.03
673.357	0.03
673.685	0.04
674.012	0.02
674.34	0.04
674.667	0.03
674.995	0.03
675.322	0.03
675.649	0.03
675.977	0.03
676.304	0.04
676.631	0.04
676.958	0.03
677.285	0.03
677.612	0.03
677.939	0.03
678.266	0.04
678.593	0.03
678.92	0.03
679.246	0.03
679.573	0.03
679.9	0.03
680.226	0.03
680.553	0.03
680.879	0.03
681.206	0.03
681.532	0.02
681.858	0.03
682.184	0.03
682.511	0.02
682.837	0.03
683.163	0.03
683.489	0.03
683.815	0.03
684.141	0.03
684.467	0.03
684.793	0.02
685.118	0.02
685.444	0.03
685.77	0.03
686.095	0.03
686.421	0.03
686.746	0.04
687.072	0.03
687.397	0.03
687.723	0.04
688.048	0.04
688.373	0.03
688.698	0.04
689.023	0.03
689.349	0.04
689.674	0.03
689.999	0.03
690.323	0.03
690.648	0.03
690.973	0.03
691.298	0.03
691.623	0.03
691.947	0.03
692.272	0.03
692.596	0.03
692.921	0.04
693.245	0.03
693.57	0.03
693.894	0.03
694.218	0.03
694.543	0.03
694.867	0.03
695.191	0.03
695.515	0.03
695.839	0.02
696.163	0.03
696.487	0.03
696.811	0.03
697.135	0.03
697.458	0.04
697.782	0.03
698.106	0.03
698.429	0.04
698.753	0.03
699.076	0.03
699.4	0.03
699.723	0.03
700.046	0.02
700.37	0.03
700.693	0.03
701.016	0.03
701.339	0.03
701.662	0.04
701.985	0.04
702.308	0.03
702.631	0.03
702.954	0.03
703.277	0.03
703.599	0.03
703.922	0.02
704.245	0.03
704.567	0.02
704.89	0.03
705.212	0.03
705.535	0.01
705.857	0.02
706.179	0.01
706.502	0.02
706.824	0.02
707.146	0.01
707.468	0.02
707.79	0.02
708.112	0.02
708.434	0.03
708.756	0.03
709.078	0.03
709.399	0.02
709.721	0.02
710.043	0.03
710.364	0.03
710.686	0.03
711.007	0.02
711.329	0.03
711.65	0.04
711.972	0.04
712.293	0.03
712.614	0.03
712.935	0.03
713.256	0.03
713.577	0.03
713.898	0.03
714.219	0.03
714.54	0.03
714.861	0.02
715.182	0.03
715.503	0.02
715.823	0.02
716.144	0.02
716.464	0.02
716.785	0.02
717.105	0.02
717.426	0.02
717.746	0.02
718.066	0.02
718.387	0.02
718.707	0.02
719.027	0.03
719.347	0.02
719.667	0.02
719.987	0.02
720.307	0.02
720.627	0.02
720.947	0.02
721.266	0.02
721.586	0.02
721.906	0.02
722.225	0.02
722.545	0.01
722.864	0.01
723.184	0.03
723.503	0.02
723.823	0.02
724.142	0.01
724.461	0.01
724.78	0.02
725.099	0.02
725.418	0.01
725.737	0.01
726.056	0.02
726.375	0.02
726.694	0.02
727.013	0.02
727.331	0.01
727.65	0.02
727.969	0.02
728.287	0.03
728.606	0.02
728.924	0.03
729.242	0.02
729.561	0.02
729.879	0.02
730.197	0.02
730.515	0.03
730.834	0.02
731.152	0.03
731.47	0.02
731.788	0.01
732.105	0.02
732.423	0.02
732.741	0.02
733.059	0.01
733.376	0.03
733.694	0.02
734.012	0.02
734.329	0.03
734.647	0.02
734.964	0.02
735.281	0.02
735.599	0.03
735.916	0.03
736.233	0.02
736.55	0.03
736.867	0.03
737.184	0.03
737.501	0.02
737.818	0.02
738.135	0.03
738.452	0.02
738.768	0.03
739.085	0.02
739.402	0.02
739.718	0.02
740.035	0.03
740.351	0.02
740.668	0.03
740.984	0.02
741.3	0.02
741.617	0.03
741.933	0.02
742.249	0.03
742.565	0.03
742.881	0.04
743.197	0.03
743.513	0.02
743.829	0.02
744.144	0.02
744.46	0.02
744.776	0.03
745.091	0.03
745.407	0.03
745.722	0.02
746.038	0.03
746.353	0.01
746.669	0.03
746.984	0.02
747.299	0.02
747.614	0.02
747.93	0.03
748.245	0.02
748.56	0.03
748.875	0.02
749.189	0.03
749.504	0.03
749.819	0.03
750.134	0.02
750.448	0.03
750.763	0.03
751.078	0.02
751.392	0.03
751.707	0.04
752.021	0.04
752.335	0.04
752.65	0.04
752.964	0.03
753.278	0.04
753.592	0.02
753.906	0.02
754.22	0.03
754.534	0.03
754.848	0.03
755.162	0.03
755.476	0.03
755.789	0.03
756.103	0.03
756.417	0.04
756.73	0.04
757.044	0.03
757.357	0.03
757.671	0.03
757.984	0.03
758.297	0.04
758.61	0.04
758.924	0.03
759.237	0.04
759.55	0.03
759.863	0.03
760.176	0.03
760.488	0.04
760.801	0.03
761.114	0.03
761.427	0.03
761.739	0.04
762.052	0.03
762.365	0.03
762.677	0.03
762.99	0.03
763.302	0.03
763.614	0.03
763.926	0.04
764.239	0.03
764.551	0.03
764.863	0.03
765.175	0.03
765.487	0.03
765.799	0.02
766.111	0.02
766.423	0.03
766.734	0.03
767.046	0.03
767.358	0.03
767.669	0.03
767.981	0.03
768.292	0.03
768.604	0.03
768.915	0.02
769.226	0.03
769.537	0.02
769.849	0.03
770.16	0.03
770.471	0.03
770.782	0.02
771.093	0.03
771.404	0.01
771.715	0.02
772.025	0.03
772.336	0.02
772.647	0.01
772.957	0.02
773.268	0.03
773.578	0.02
773.889	0.03
774.199	0.03
774.51	0.02
774.82	0.02
775.13	0.02
775.44	0.03
775.75	0.03
776.06	0.02
776.37	0.02
776.68	0.03
776.99	0.03
777.3	0.02
777.61	0.04
777.92	0.03
778.229	0.03
778.539	0.03
778.848	0.03
779.158	0.03
779.467	0.04
779.777	0.03
780.086	0.04
780.395	0.03
780.704	0.02
781.013	0.02
781.323	0.03
781.632	0.03
781.941	0.03
782.249	0.03
782.558	0.03
782.867	0.03
783.176	0.02
783.485	0.02
783.793	0.03
784.102	0.03
784.41	0.03
784.719	0.02
785.027	0.02
785.335	0.02
785.644	0.02
785.952	0.02
786.26	0.03
786.568	0.02
786.876	0.02
787.184	0.03
787.492	0.02
787.8	0.03
788.108	0.03
788.416	0.03
788.723	0.03
789.031	0.02
789.338	0.02
789.646	0.02
789.953	0.02
790.261	0.04
790.568	0.03
790.876	0.02
791.183	0.04
791.49	0.03
791.797	0.03
792.104	0.02
792.411	0.03
792.718	0.03
793.025	0.03
793.332	0.03
793.639	0.04
793.945	0.04
794.252	0.03
794.559	0.03
794.865	0.03
795.172	0.03
795.478	0.04
795.784	0.04
796.091	0.04
796.397	0.04
796.703	0.04
797.009	0.04
797.315	0.04
797.622	0.04
797.927	0.04
798.233	0.04
798.539	0.04
798.845	0.05
799.151	0.05
799.456	0.05
799.762	0.04
800.068	0.04
800.373	0.05
800.679	0.03
800.984	0.04
801.289	0.04
801.595	0.04
801.9	0.03
802.205	0.03
802.51	0.03
802.815	0.04
803.12	0.04
803.425	0.04
803.73	0.03
804.035	0.04
804.339	0.03
804.644	0.03
804.949	0.03
805.253	0.04
805.558	0.03
805.862	0.03
806.167	0.03
806.471	0.03
806.775	0.04
807.08	0.04
807.384	0.03
807.688	0.04
807.992	0.03
808.296	0.04
808.6	0.03
808.904	0.05
809.207	0.03
809.511	0.04
809.815	0.05
810.119	0.04
810.422	0.04
810.726	0.06
811.029	0.05
811.332	0.05
811.636	0.05
811.939	0.04
812.242	0.05
812.546	0.05
812.849	0.04
813.152	0.05
813.455	0.04
813.758	0.05
814.06	0.05
814.363	0.04
814.666	0.05
814.969	0.05
815.271	0.05
815.574	0.04
815.877	0.03
816.179	0.04
816.481	0.04
816.784	0.04
817.086	0.04
817.388	0.03
817.69	0.03
817.993	0.02
818.295	0.04
818.597	0.03
818.899	0.03
819.2	0.03
819.502	0.03
819.804	0.03
820.106	0.03
820.407	0.02
820.709	0.03
821.01	0.04
821.312	0.03
821.613	0.02
821.915	0.02
822.216	0.02
822.517	0.02
822.818	0.02
823.119	0.03
823.42	0.04
823.721	0.02
824.022	0.02
824.323	0.03
824.624	0.02
824.925	0.03
825.226	0.04
825.526	0.03
825.827	0.02
826.127	0.03
826.428	0.03
826.728	0.02
827.028	0.03
827.329	0.02
827.629	0.02
827.929	0.03
828.229	0.03
828.529	0.03
828.829	0.03
829.129	0.03
829.429	0.03
829.729	0.03
830.029	0.02
830.328	0.03
830.628	0.02
830.927	0.02
831.227	0.02
831.526	0.02
831.826	0.02
832.125	0.02
832.424	0.01
832.724	0.02
833.023	0.02
833.322	0.02
833.621	0.02
833.92	0.01
834.219	0.02
834.518	0.02
834.816	0
835.115	0.01
835.414	0.01
835.712	0.01
836.011	0
836.309	0.01
836.608	0
836.906	-0.01
837.205	-0
837.503	-0.01
837.801	0
838.099	-0.01
838.397	-0.01
838.695	-0.01
838.993	-0
839.291	-0.01
839.589	-0.01
839.887	-0
840.184	-0.01
840.482	-0.02
840.78	-0.01
841.077	-0.01
841.375	-0.02
841.672	-0.01
841.969	-0.02
842.267	-0.02
842.564	-0.02
842.861	-0.02
843.158	-0.02
843.455	-0.04
843.752	-0.03
844.049	-0.03
844.346	-0.03
844.643	-0.04
844.94	-0.04
845.236	-0.02
845.533	-0.04
845.83	-0.04
846.126	-0.04
846.423	-0.04
846.719	-0.06
847.015	-0.05
847.312	-0.05
847.608	-0.06
847.904	-0.06
848.2	-0.05
848.496	-0.06
848.792	-0.06
849.088	-0.04
849.384	-0.06
849.68	-0.07
849.975	-0.05
850.271	-0.07
850.567	-0.06
850.862	-0.07
851.158	-0.07
851.453	-0.06
851.748	-0.08
852.044	-0.07
852.339	-0.07
852.634	-0.09
852.929	-0.07
853.224	-0.09
853.519	-0.08
853.814	-0.07
854.109	-0.08
854.404	-0.08
854.699	-0.09
854.994	-0.08
855.288	-0.08
855.583	-0.08
855.877	-0.08
856.172	-0.08
856.466	-0.08
856.76	-0.08
857.055	-0.08
857.349	-0.1
857.643	-0.09
857.937	-0.1
858.231	-0.1
858.525	-0.1
858.819	-0.1
859.113	-0.11
859.407	-0.11
859.701	-0.11
859.994	-0.11
860.288	-0.1
860.581	-0.11
860.875	-0.11
861.168	-0.11
861.462	-0.11
861.755	-0.1
862.048	-0.12
862.341	-0.11
862.634	-0.11
862.928	-0.11
863.221	-0.12
863.513	-0.12
863.806	-0.12
864.099	-0.12
864.392	-0.12
864.685	-0.12
864.977	-0.12
865.27	-0.13
865.562	-0.12
865.855	-0.12
866.147	-0.13
866.44	-0.12
866.732	-0.13
867.024	-0.14
867.316	-0.14
867.608	-0.13
867.9	-0.13
868.192	-0.13
868.484	-0.14
868.776	-0.14
869.068	-0.14
869.359	-0.14
869.651	-0.15
869.943	-0.16
870.234	-0.17
870.526	-0.17
870.817	-0.16
871.108	-0.14
871.4	-0.16
871.691	-0.16
871.982	-0.17
872.273	-0.17
872.564	-0.18
872.855	-0.17
873.146	-0.17
873.437	-0.17
873.728	-0.18
874.019	-0.17
874.309	-0.18
874.6	-0.17
874.89	-0.18
875.181	-0.17
875.471	-0.17
875.762	-0.17
876.052	-0.17
876.342	-0.16
876.632	-0.17
876.922	-0.18
877.213	-0.17
877.503	-0.18
877.792	-0.17
878.082	-0.19
878.372	-0.17
878.662	-0.18
878.952	-0.19
879.241	-0.18
879.531	-0.17
879.82	-0.18
880.11	-0.18
880.399	-0.17
880.688	-0.18
880.978	-0.18
881.267	-0.18
