Data from 12-12-AQDScycling_Absorbance__808__00808.txt Node

Date: Tue Dec 12 14:18:44 EST 2023
User: kyuminlee
Spectrometer: FLMS00943
Trigger mode: 0
Integration Time (sec): 1.000000E-1
Scans to average: 1
Electric dark correction enabled: true
Nonlinearity correction enabled: false
Boxcar width: 0
XAxis mode: Wavelengths
Number of Pixels in Spectrum: 2048
>>>>>Begin Spectral Data<<<<<
179.651	0.26
180.037	0.26
180.424	0.26
180.81	-0.45
181.197	0.25
181.583	-0
181.97	0.45
182.356	-0
182.743	-0.97
183.129	0.35
183.515	1.13
183.901	-2.66
184.288	0.1
184.674	-0
185.06	-0.21
185.446	-0
185.832	-0.91
186.218	0.06
186.604	-0
186.99	-0
187.376	-0
187.762	-0.52
188.148	-0
188.534	-0
188.92	0.03
189.305	0.07
189.691	0.09
190.077	0.13
190.463	0.02
190.848	0.09
191.234	-0.02
191.619	-0.02
192.005	0.1
192.391	0.25
192.776	0.06
193.161	0.21
193.547	0.09
193.932	0.06
194.318	0.11
194.703	0.04
195.088	0.27
195.473	0.16
195.859	0.14
196.244	0.15
196.629	0.2
197.014	0.08
197.399	0.16
197.784	0.03
198.169	0.19
198.554	0.28
198.939	0.08
199.324	0.36
199.709	0.19
200.094	0.02
200.478	0.13
200.863	0.16
201.248	0.17
201.633	0.09
202.017	0.02
202.402	0.24
202.787	0.14
203.171	0.22
203.556	0.21
203.94	0.11
204.325	0.17
204.709	0.2
205.093	0.11
205.478	0.16
205.862	0.12
206.246	0.12
206.631	0.03
207.015	0.14
207.399	0.11
207.783	0.06
208.167	0.14
208.551	0.11
208.935	0.19
209.319	0.1
209.703	0.04
210.087	0.24
210.471	0.17
210.855	0.07
211.239	0.22
211.623	0.29
212.007	0.18
212.39	0.36
212.774	0.08
213.158	0.23
213.541	0.25
213.925	0.21
214.309	0.28
214.692	0.21
215.076	0.24
215.459	0.25
215.842	0.13
216.226	0.24
216.609	0.22
216.993	0.15
217.376	0.42
217.759	0.2
218.142	0.41
218.525	0.49
218.909	0.34
219.292	0.36
219.675	0.45
220.058	0.39
220.441	0.54
220.824	0.52
221.207	0.52
221.59	0.57
221.973	0.43
222.355	0.54
222.738	0.67
223.121	0.59
223.504	0.61
223.886	0.59
224.269	0.66
224.652	0.55
225.034	0.66
225.417	0.61
225.799	0.9
226.182	0.9
226.564	0.78
226.947	0.79
227.329	0.77
227.711	0.87
228.094	0.97
228.476	0.92
228.858	0.77
229.24	0.81
229.623	0.83
230.005	0.84
230.387	0.94
230.769	0.88
231.151	0.88
231.533	0.93
231.915	0.91
232.297	1
232.679	0.92
233.061	0.99
233.442	0.98
233.824	0.97
234.206	1.16
234.588	1.19
234.969	0.93
235.351	1.07
235.733	0.99
236.114	1.18
236.496	1.05
236.877	1.09
237.259	1.05
237.64	0.99
238.022	1.05
238.403	1.11
238.784	1.05
239.165	1.01
239.547	1.04
239.928	0.95
240.309	1.03
240.69	0.98
241.071	1.08
241.452	1.2
241.834	1.07
242.215	1.11
242.595	1.05
242.976	1.16
243.357	1.14
243.738	1.05
244.119	1.2
244.5	1.18
244.881	1.24
245.261	1.18
245.642	1.07
246.023	1.16
246.403	1.13
246.784	1.14
247.164	1.25
247.545	1.22
247.925	1.25
248.306	1.33
248.686	1.53
249.067	1.15
249.447	1.46
249.827	1.34
250.207	1.5
250.588	1.25
250.968	1.46
251.348	1.38
251.728	1.35
252.108	1.38
252.488	1.41
252.868	1.33
253.248	1.23
253.628	1.31
254.008	1.52
254.388	1.32
254.768	1.29
255.147	1.35
255.527	1.4
255.907	1.36
256.287	1.28
256.666	1.55
257.046	1.39
257.425	1.53
257.805	1.39
258.184	1.33
258.564	1.33
258.943	1.33
259.323	1.49
259.702	1.57
260.081	1.46
260.461	1.42
260.84	1.39
261.219	1.85
261.598	1.45
261.977	1.38
262.356	1.39
262.736	1.62
263.115	1.5
263.494	1.37
263.873	1.55
264.251	1.45
264.63	1.52
265.009	1.44
265.388	1.43
265.767	1.31
266.145	1.51
266.524	1.36
266.903	1.47
267.281	1.29
267.66	1.56
268.039	1.35
268.417	1.36
268.796	1.37
269.174	1.43
269.552	1.33
269.931	1.53
270.309	1.37
270.687	1.68
271.066	1.62
271.444	1.34
271.822	1.63
272.2	1.37
272.578	1.42
272.956	1.54
273.334	1.28
273.712	1.44
274.09	1.28
274.468	1.47
274.846	1.3
275.224	1.43
275.602	1.43
275.98	1.48
276.357	1.41
276.735	1.48
277.113	1.31
277.49	1.3
277.868	1.25
278.246	1.34
278.623	1.38
279.001	1.3
279.378	1.31
279.756	1.41
280.133	1.56
280.51	1.42
280.888	1.43
281.265	1.41
281.642	1.65
282.019	1.64
282.396	1.45
282.773	1.51
283.151	1.45
283.528	1.43
283.905	1.42
284.282	1.42
284.659	1.5
285.035	1.34
285.412	1.39
285.789	1.32
286.166	1.35
286.543	1.39
286.919	1.65
287.296	1.39
287.673	1.64
288.049	1.42
288.426	1.51
288.802	1.43
289.179	1.52
289.555	1.77
289.932	1.46
290.308	1.32
290.684	1.26
291.061	1.34
291.437	1.59
291.813	1.52
292.189	1.2
292.565	1.27
292.942	1.35
293.318	1.31
293.694	1.42
294.07	1.25
294.446	1.48
294.822	1.61
295.197	1.45
295.573	1.37
295.949	1.35
296.325	1.42
296.701	1.35
297.076	1.51
297.452	1.43
297.828	1.35
298.203	1.41
298.579	1.33
298.954	1.32
299.33	1.31
299.705	1.29
300.081	1.38
300.456	1.34
300.831	1.23
301.206	1.25
301.582	1.28
301.957	1.21
302.332	1.22
302.707	1.25
303.082	1.18
303.457	1.18
303.832	1.18
304.207	1.14
304.582	1.06
304.957	1.09
305.332	1.1
305.707	1.05
306.082	1.03
306.456	1.03
306.831	0.99
307.206	0.98
307.58	0.96
307.955	0.94
308.33	0.96
308.704	0.9
309.079	0.87
309.453	0.91
309.828	0.84
310.202	0.87
310.576	0.86
310.951	0.85
311.325	0.83
311.699	0.79
312.073	0.76
312.447	0.81
312.821	0.76
313.196	0.77
313.57	0.74
313.944	0.75
314.317	0.73
314.691	0.71
315.065	0.72
315.439	0.72
315.813	0.73
316.187	0.69
316.56	0.71
316.934	0.69
317.308	0.69
317.681	0.67
318.055	0.65
318.428	0.64
318.802	0.66
319.175	0.65
319.549	0.61
319.922	0.63
320.295	0.64
320.669	0.65
321.042	0.66
321.415	0.66
321.788	0.62
322.162	0.61
322.535	0.62
322.908	0.61
323.281	0.6
323.654	0.59
324.027	0.6
324.4	0.62
324.773	0.61
325.145	0.63
325.518	0.61
325.891	0.61
326.264	0.59
326.636	0.62
327.009	0.6
327.382	0.64
327.754	0.63
328.127	0.63
328.499	0.65
328.872	0.64
329.244	0.64
329.616	0.63
329.989	0.64
330.361	0.65
330.733	0.64
331.106	0.64
331.478	0.65
331.85	0.65
332.222	0.64
332.594	0.71
332.966	0.68
333.338	0.69
333.71	0.71
334.082	0.77
334.454	0.72
334.826	0.75
335.197	0.72
335.569	0.76
335.941	0.73
336.312	0.75
336.684	0.79
337.056	0.81
337.427	0.79
337.799	0.82
338.17	0.81
338.542	0.8
338.913	0.83
339.284	0.84
339.656	0.87
340.027	0.85
340.398	0.85
340.769	0.88
341.141	0.92
341.512	0.88
341.883	0.89
342.254	0.9
342.625	0.94
342.996	0.93
343.367	0.96
343.738	0.96
344.108	0.97
344.479	1.04
344.85	1
345.221	1.06
345.591	1
345.962	1.06
346.333	1.04
346.703	0.96
347.074	1.05
347.444	1.08
347.815	1.09
348.185	1.1
348.556	1.09
348.926	1.11
349.296	1.13
349.666	1.15
350.037	1.07
350.407	1.12
350.777	1.11
351.147	1.19
351.517	1.26
351.887	1.2
352.257	1.32
352.627	1.23
352.997	1.21
353.367	1.22
353.737	1.28
354.106	1.3
354.476	1.31
354.846	1.41
355.216	1.4
355.585	1.4
355.955	1.47
356.324	1.45
356.694	1.42
357.063	1.41
357.433	1.39
357.802	1.44
358.171	1.49
358.541	1.47
358.91	1.51
359.279	1.56
359.648	1.46
360.017	1.5
360.387	1.53
360.756	1.47
361.125	1.58
361.494	1.63
361.863	1.45
362.231	1.55
362.6	1.52
362.969	1.6
363.338	1.54
363.707	1.63
364.075	1.69
364.444	1.37
364.813	1.51
365.181	1.49
365.55	1.56
365.918	1.47
366.287	1.5
366.655	1.67
367.024	1.62
367.392	1.53
367.76	1.44
368.128	1.62
368.497	1.53
368.865	1.57
369.233	1.41
369.601	1.55
369.969	1.43
370.337	1.57
370.705	1.47
371.073	1.5
371.441	1.5
371.809	1.55
372.177	1.64
372.544	1.63
372.912	1.53
373.28	1.58
373.647	1.68
374.015	1.59
374.383	1.66
374.75	1.64
375.118	1.57
375.485	1.63
375.853	1.65
376.22	1.65
376.587	1.53
376.955	1.56
377.322	1.7
377.689	1.49
378.056	1.38
378.423	1.52
378.79	1.61
379.157	1.63
379.524	1.69
379.891	1.56
380.258	1.53
380.625	1.53
380.992	1.46
381.359	1.63
381.726	1.73
382.092	1.48
382.459	1.51
382.826	1.59
383.192	1.57
383.559	1.4
383.925	1.6
384.292	1.55
384.658	1.71
385.025	1.52
385.391	1.7
385.757	1.54
386.123	1.64
386.49	1.55
386.856	1.59
387.222	1.62
387.588	1.53
387.954	1.72
388.32	1.64
388.686	1.57
389.052	1.57
389.418	1.6
389.784	1.55
390.15	1.54
390.515	1.38
390.881	1.62
391.247	1.48
391.613	1.66
391.978	1.48
392.344	1.74
392.709	1.63
393.075	1.77
393.44	1.51
393.806	1.73
394.171	1.48
394.536	1.59
394.902	1.57
395.267	1.53
395.632	1.51
395.997	1.5
396.362	1.51
396.727	1.69
397.092	1.6
397.457	1.59
397.822	1.55
398.187	1.64
398.552	1.56
398.917	1.71
399.282	1.55
399.646	1.53
400.011	1.73
400.376	1.45
400.74	1.44
401.105	1.68
401.47	1.53
401.834	1.53
402.199	1.55
402.563	1.47
402.927	1.46
403.292	1.65
403.656	1.52
404.02	1.55
404.384	1.69
404.749	1.53
405.113	1.68
405.477	1.56
405.841	1.68
406.205	1.59
406.569	1.52
406.933	1.6
407.296	1.53
407.66	1.63
408.024	1.55
408.388	1.61
408.752	1.67
409.115	1.59
409.479	1.46
409.842	1.49
410.206	1.4
410.569	1.63
410.933	1.49
411.296	1.45
411.66	1.59
412.023	1.38
412.386	1.5
412.749	1.61
413.113	1.63
413.476	1.46
413.839	1.59
414.202	1.5
414.565	1.44
414.928	1.5
415.291	1.35
415.654	1.4
416.017	1.68
416.38	1.47
416.742	1.51
417.105	1.41
417.468	1.44
417.83	1.36
418.193	1.63
418.556	1.54
418.918	1.43
419.281	1.49
419.643	1.62
420.005	1.52
420.368	1.49
420.73	1.43
421.092	1.54
421.455	1.55
421.817	1.39
422.179	1.53
422.541	1.53
422.903	1.74
423.265	1.63
423.627	1.53
423.989	1.46
424.351	1.51
424.713	1.57
425.075	1.51
425.436	1.51
425.798	1.52
426.16	1.61
426.521	1.52
426.883	1.54
427.245	1.53
427.606	1.52
427.967	1.4
428.329	1.48
428.69	1.65
429.052	1.43
429.413	1.59
429.774	1.52
430.135	1.63
430.497	1.62
430.858	1.57
431.219	1.55
431.58	1.47
431.941	1.56
432.302	1.48
432.663	1.47
433.024	1.6
433.384	1.62
433.745	1.62
434.106	1.61
434.467	1.55
434.827	1.6
435.188	1.55
435.548	1.63
435.909	1.5
436.269	1.69
436.63	1.57
436.99	1.64
437.351	1.46
437.711	1.55
438.071	1.52
438.431	1.5
438.792	1.52
439.152	1.53
439.512	1.51
439.872	1.53
440.232	1.61
440.592	1.57
440.952	1.47
441.312	1.45
441.671	1.51
442.031	1.5
442.391	1.45
442.751	1.49
443.11	1.45
443.47	1.43
443.83	1.42
444.189	1.44
444.549	1.45
444.908	1.43
445.267	1.44
445.627	1.37
445.986	1.44
446.345	1.36
446.705	1.47
447.064	1.45
447.423	1.4
447.782	1.38
448.141	1.39
448.5	1.31
448.859	1.37
449.218	1.38
449.577	1.41
449.936	1.35
450.295	1.34
450.653	1.33
451.012	1.34
451.371	1.36
451.729	1.34
452.088	1.37
452.447	1.34
452.805	1.32
453.163	1.32
453.522	1.34
453.88	1.27
454.239	1.29
454.597	1.29
454.955	1.27
455.313	1.26
455.671	1.23
456.029	1.25
456.388	1.23
456.746	1.2
457.104	1.19
457.461	1.16
457.819	1.17
458.177	1.13
458.535	1.11
458.893	1.09
459.25	1.11
459.608	1.11
459.966	1.05
460.323	1.06
460.681	1.04
461.038	1.04
461.396	1.02
461.753	1.02
462.111	1
462.468	0.96
462.825	0.95
463.182	0.94
463.54	0.91
463.897	0.93
464.254	0.92
464.611	0.9
464.968	0.88
465.325	0.87
465.682	0.88
466.039	0.85
466.395	0.83
466.752	0.84
467.109	0.81
467.466	0.8
467.822	0.78
468.179	0.78
468.535	0.76
468.892	0.76
469.248	0.72
469.605	0.72
469.961	0.71
470.318	0.72
470.674	0.69
471.03	0.68
471.386	0.67
471.743	0.66
472.099	0.65
472.455	0.64
472.811	0.63
473.167	0.61
473.523	0.61
473.879	0.6
474.235	0.59
474.59	0.56
474.946	0.56
475.302	0.55
475.657	0.53
476.013	0.53
476.369	0.52
476.724	0.51
477.08	0.51
477.435	0.5
477.791	0.48
478.146	0.47
478.501	0.47
478.857	0.45
479.212	0.45
479.567	0.44
479.922	0.42
480.277	0.41
480.632	0.4
480.987	0.4
481.342	0.39
481.697	0.37
482.052	0.38
482.407	0.37
482.762	0.36
483.116	0.35
483.471	0.34
483.826	0.33
484.18	0.33
484.535	0.32
484.89	0.31
485.244	0.31
485.598	0.31
485.953	0.3
486.307	0.29
486.661	0.29
487.016	0.28
487.37	0.28
487.724	0.27
488.078	0.26
488.432	0.26
488.786	0.25
489.14	0.25
489.494	0.23
489.848	0.24
490.202	0.22
490.556	0.23
490.91	0.23
491.263	0.22
491.617	0.21
491.971	0.21
492.324	0.21
492.678	0.2
493.031	0.2
493.385	0.19
493.738	0.19
494.091	0.19
494.445	0.18
494.798	0.18
495.151	0.17
495.504	0.17
495.857	0.17
496.21	0.17
496.564	0.15
496.916	0.16
497.269	0.15
497.622	0.15
497.975	0.15
498.328	0.14
498.681	0.14
499.033	0.14
499.386	0.13
499.739	0.13
500.091	0.13
500.444	0.12
500.796	0.12
501.149	0.12
501.501	0.12
501.854	0.12
502.206	0.12
502.558	0.11
502.91	0.12
503.263	0.11
503.615	0.11
503.967	0.1
504.319	0.11
504.671	0.1
505.023	0.1
505.375	0.1
505.726	0.1
506.078	0.1
506.43	0.1
506.782	0.09
507.133	0.1
507.485	0.1
507.837	0.1
508.188	0.1
508.54	0.09
508.891	0.09
509.243	0.09
509.594	0.09
509.945	0.09
510.296	0.08
510.648	0.08
510.999	0.08
511.35	0.08
511.701	0.08
512.052	0.08
512.403	0.08
512.754	0.08
513.105	0.08
513.456	0.08
513.807	0.07
514.157	0.07
514.508	0.07
514.859	0.06
515.209	0.07
515.56	0.07
515.91	0.06
516.261	0.07
516.611	0.06
516.962	0.07
517.312	0.07
517.662	0.07
518.013	0.07
518.363	0.07
518.713	0.07
519.063	0.07
519.413	0.07
519.763	0.07
520.113	0.07
520.463	0.07
520.813	0.07
521.163	0.07
521.512	0.06
521.862	0.06
522.212	0.07
522.562	0.06
522.911	0.06
523.261	0.06
523.61	0.07
523.96	0.06
524.309	0.07
524.658	0.07
525.008	0.06
525.357	0.06
525.706	0.06
526.056	0.06
526.405	0.06
526.754	0.07
527.103	0.06
527.452	0.06
527.801	0.07
528.15	0.06
528.499	0.06
528.847	0.06
529.196	0.07
529.545	0.07
529.893	0.07
530.242	0.07
530.591	0.06
530.939	0.07
531.288	0.06
531.636	0.07
531.985	0.07
532.333	0.07
532.681	0.06
533.029	0.07
533.378	0.06
533.726	0.06
534.074	0.07
534.422	0.06
534.77	0.06
535.118	0.07
535.466	0.06
535.814	0.06
536.162	0.06
536.509	0.07
536.857	0.07
537.205	0.06
537.552	0.06
537.9	0.06
538.248	0.06
538.595	0.07
538.943	0.06
539.29	0.06
539.637	0.06
539.985	0.06
540.332	0.06
540.679	0.06
541.026	0.06
541.373	0.06
541.721	0.06
542.068	0.06
542.415	0.06
542.762	0.06
543.108	0.05
543.455	0.05
543.802	0.05
544.149	0.05
544.496	0.05
544.842	0.05
545.189	0.04
545.535	0.05
545.882	0.05
546.228	0.04
546.575	0.04
546.921	0.03
547.267	0.04
547.614	0.05
547.96	0.04
548.306	0.04
548.652	0.04
548.998	0.05
549.344	0.05
549.69	0.04
550.036	0.04
550.382	0.05
550.728	0.04
551.074	0.05
551.42	0.05
551.765	0.05
552.111	0.05
552.457	0.06
552.802	0.05
553.148	0.05
553.493	0.05
553.839	0.05
554.184	0.05
554.529	0.05
554.875	0.05
555.22	0.06
555.565	0.05
555.91	0.05
556.255	0.06
556.6	0.05
556.945	0.05
557.29	0.05
557.635	0.05
557.98	0.05
558.325	0.05
558.67	0.06
559.014	0.05
559.359	0.05
559.704	0.05
560.048	0.04
560.393	0.05
560.737	0.04
561.082	0.05
561.426	0.04
561.77	0.04
562.115	0.04
562.459	0.04
562.803	0.04
563.147	0.06
563.491	0.05
563.835	0.05
564.179	0.05
564.523	0.04
564.867	0.05
565.211	0.05
565.555	0.05
565.899	0.05
566.242	0.05
566.586	0.04
566.93	0.04
567.273	0.05
567.617	0.05
567.96	0.05
568.304	0.06
568.647	0.05
568.99	0.05
569.334	0.06
569.677	0.05
570.02	0.06
570.363	0.06
570.706	0.05
571.049	0.06
571.392	0.06
571.735	0.05
572.078	0.05
572.421	0.06
572.764	0.06
573.106	0.05
573.449	0.06
573.792	0.05
574.134	0.05
574.477	0.05
574.819	0.04
575.162	0.05
575.504	0.04
575.847	0.05
576.189	0.05
576.531	0.04
576.873	0.04
577.215	0.05
577.558	0.05
577.9	0.04
578.242	0.05
578.584	0.05
578.926	0.05
579.267	0.05
579.609	0.04
579.951	0.04
580.293	0.05
580.634	0.05
580.976	0.05
581.318	0.04
581.659	0.04
582.001	0.05
582.342	0.05
582.683	0.05
583.025	0.04
583.366	0.05
583.707	0.04
584.049	0.04
584.39	0.05
584.731	0.04
585.072	0.04
585.413	0.05
585.754	0.04
586.095	0.05
586.435	0.05
586.776	0.05
587.117	0.04
587.458	0.04
587.798	0.04
588.139	0.05
588.48	0.04
588.82	0.04
589.161	0.04
589.501	0.04
589.841	0.04
590.182	0.04
590.522	0.04
590.862	0.04
591.202	0.04
591.542	0.04
591.882	0.05
592.222	0.05
592.562	0.04
592.902	0.04
593.242	0.04
593.582	0.05
593.922	0.04
594.261	0.04
594.601	0.04
594.941	0.04
595.28	0.04
595.62	0.04
595.959	0.04
596.299	0.04
596.638	0.04
596.977	0.04
597.317	0.05
597.656	0.05
597.995	0.04
598.334	0.06
598.673	0.04
599.012	0.05
599.351	0.05
599.69	0.05
600.029	0.06
600.368	0.05
600.707	0.05
601.046	0.05
601.384	0.06
601.723	0.05
602.061	0.05
602.4	0.06
602.738	0.06
603.077	0.05
603.415	0.04
603.754	0.05
604.092	0.05
604.43	0.05
604.768	0.04
605.107	0.05
605.445	0.05
605.783	0.04
606.121	0.04
606.459	0.05
606.796	0.05
607.134	0.04
607.472	0.04
607.81	0.05
608.148	0.04
608.485	0.04
608.823	0.05
609.16	0.05
609.498	0.05
609.835	0.05
610.173	0.04
610.51	0.05
610.847	0.05
611.185	0.05
611.522	0.05
611.859	0.05
612.196	0.05
612.533	0.06
612.87	0.05
613.207	0.05
613.544	0.05
613.881	0.06
614.217	0.06
614.554	0.05
614.891	0.05
615.228	0.06
615.564	0.06
615.901	0.06
616.237	0.06
616.574	0.06
616.91	0.06
617.246	0.06
617.583	0.06
617.919	0.06
618.255	0.06
618.591	0.06
618.927	0.06
619.263	0.07
619.599	0.05
619.935	0.06
620.271	0.06
620.607	0.06
620.943	0.06
621.279	0.06
621.614	0.06
621.95	0.06
622.286	0.05
622.621	0.05
622.957	0.06
623.292	0.05
623.627	0.05
623.963	0.05
624.298	0.05
624.633	0.05
624.968	0.05
625.304	0.05
625.639	0.05
625.974	0.05
626.309	0.05
626.644	0.05
626.979	0.06
627.313	0.05
627.648	0.05
627.983	0.05
628.318	0.05
628.652	0.05
628.987	0.05
629.321	0.05
629.656	0.04
629.99	0.04
630.325	0.05
630.659	0.04
630.993	0.04
631.327	0.05
631.662	0.04
631.996	0.04
632.33	0.04
632.664	0.05
632.998	0.04
633.332	0.04
633.666	0.04
633.999	0.04
634.333	0.04
634.667	0.04
635.001	0.04
635.334	0.04
635.668	0.04
636.001	0.04
636.335	0.03
636.668	0.04
637.001	0.04
637.335	0.04
637.668	0.04
638.001	0.04
638.334	0.04
638.668	0.04
639.001	0.04
639.334	0.03
639.667	0.04
639.999	0.04
640.332	0.03
640.665	0.04
640.998	0.04
641.331	0.04
641.663	0.03
641.996	0.04
642.328	0.05
642.661	0.04
642.993	0.04
643.326	0.05
643.658	0.04
643.99	0.04
644.323	0.04
644.655	0.04
644.987	0.05
645.319	0.06
645.651	0.05
645.983	0.05
646.315	0.04
646.647	0.05
646.979	0.06
647.31	0.05
647.642	0.05
647.974	0.05
648.305	0.06
648.637	0.04
648.968	0.05
649.3	0.05
649.631	0.05
649.963	0.05
650.294	0.05
650.625	0.05
650.957	0.05
651.288	0.05
651.619	0.06
651.95	0.05
652.281	0.05
652.612	0.05
652.943	0.05
653.274	0.06
653.604	0.05
653.935	0.05
654.266	0.05
654.596	0.05
654.927	0.04
655.258	0.05
655.588	0.05
655.918	0.05
656.249	0.03
656.579	0.04
656.909	0.05
657.24	0.04
657.57	0.05
657.9	0.04
658.23	0.05
658.56	0.06
658.89	0.05
659.22	0.04
659.55	0.05
659.88	0.05
660.209	0.05
660.539	0.06
660.869	0.05
661.198	0.06
661.528	0.05
661.857	0.05
662.187	0.05
662.516	0.05
662.846	0.04
663.175	0.05
663.504	0.05
663.833	0.05
664.163	0.05
664.492	0.05
664.821	0.05
665.15	0.04
665.479	0.05
665.807	0.05
666.136	0.05
666.465	0.05
666.794	0.06
667.122	0.05
667.451	0.05
667.78	0.06
668.108	0.06
668.437	0.05
668.765	0.06
669.093	0.06
669.422	0.06
669.75	0.06
670.078	0.06
670.406	0.06
670.734	0.06
671.062	0.05
671.39	0.05
671.718	0.06
672.046	0.06
672.374	0.05
672.702	0.05
673.029	0.05
673.357	0.05
673.685	0.06
674.012	0.05
674.34	0.05
674.667	0.05
674.995	0.05
675.322	0.05
675.649	0.05
675.977	0.06
676.304	0.05
676.631	0.05
676.958	0.05
677.285	0.05
677.612	0.05
677.939	0.04
678.266	0.05
678.593	0.05
678.92	0.05
679.246	0.05
679.573	0.05
679.9	0.04
680.226	0.04
680.553	0.04
680.879	0.05
681.206	0.05
681.532	0.05
681.858	0.05
682.184	0.05
682.511	0.06
682.837	0.05
683.163	0.06
683.489	0.06
683.815	0.05
684.141	0.06
684.467	0.05
684.793	0.05
685.118	0.05
685.444	0.05
685.77	0.05
686.095	0.05
686.421	0.05
686.746	0.06
687.072	0.05
687.397	0.05
687.723	0.05
688.048	0.06
688.373	0.04
688.698	0.05
689.023	0.05
689.349	0.04
689.674	0.05
689.999	0.04
690.323	0.04
690.648	0.04
690.973	0.04
691.298	0.04
691.623	0.04
691.947	0.04
692.272	0.04
692.596	0.04
692.921	0.05
693.245	0.05
693.57	0.05
693.894	0.05
694.218	0.06
694.543	0.05
694.867	0.05
695.191	0.05
695.515	0.06
695.839	0.05
696.163	0.05
696.487	0.05
696.811	0.05
697.135	0.05
697.458	0.05
697.782	0.05
698.106	0.05
698.429	0.06
698.753	0.05
699.076	0.05
699.4	0.05
699.723	0.05
700.046	0.05
700.37	0.05
700.693	0.05
701.016	0.05
701.339	0.05
701.662	0.06
701.985	0.05
702.308	0.05
702.631	0.05
702.954	0.05
703.277	0.05
703.599	0.05
703.922	0.05
704.245	0.04
704.567	0.05
704.89	0.05
705.212	0.05
705.535	0.04
705.857	0.04
706.179	0.03
706.502	0.03
706.824	0.04
707.146	0.04
707.468	0.05
707.79	0.04
708.112	0.05
708.434	0.05
708.756	0.05
709.078	0.04
709.399	0.04
709.721	0.04
710.043	0.05
710.364	0.05
710.686	0.05
711.007	0.05
711.329	0.05
711.65	0.05
711.972	0.05
712.293	0.05
712.614	0.06
712.935	0.05
713.256	0.05
713.577	0.06
713.898	0.06
714.219	0.05
714.54	0.05
714.861	0.04
715.182	0.05
715.503	0.05
715.823	0.05
716.144	0.05
716.464	0.04
716.785	0.04
717.105	0.04
717.426	0.05
717.746	0.04
718.066	0.04
718.387	0.04
718.707	0.04
719.027	0.05
719.347	0.03
719.667	0.04
719.987	0.04
720.307	0.04
720.627	0.03
720.947	0.04
721.266	0.04
721.586	0.04
721.906	0.03
722.225	0.04
722.545	0.03
722.864	0.03
723.184	0.04
723.503	0.04
723.823	0.05
724.142	0.04
724.461	0.04
724.78	0.04
725.099	0.04
725.418	0.05
725.737	0.04
726.056	0.05
726.375	0.05
726.694	0.05
727.013	0.05
727.331	0.04
727.65	0.04
727.969	0.04
728.287	0.04
728.606	0.04
728.924	0.03
729.242	0.04
729.561	0.04
729.879	0.04
730.197	0.04
730.515	0.04
730.834	0.04
731.152	0.03
731.47	0.04
731.788	0.04
732.105	0.04
732.423	0.04
732.741	0.04
733.059	0.04
733.376	0.04
733.694	0.04
734.012	0.04
734.329	0.05
734.647	0.05
734.964	0.05
735.281	0.05
735.599	0.05
735.916	0.06
736.233	0.05
736.55	0.05
736.867	0.05
737.184	0.06
737.501	0.04
737.818	0.05
738.135	0.05
738.452	0.05
738.768	0.05
739.085	0.04
739.402	0.04
739.718	0.05
740.035	0.05
740.351	0.05
740.668	0.05
740.984	0.04
741.3	0.04
741.617	0.05
741.933	0.04
742.249	0.05
742.565	0.05
742.881	0.06
743.197	0.04
743.513	0.04
743.829	0.04
744.144	0.05
744.46	0.04
744.776	0.05
745.091	0.04
745.407	0.04
745.722	0.04
746.038	0.04
746.353	0.04
746.669	0.05
746.984	0.04
747.299	0.04
747.614	0.05
747.93	0.04
748.245	0.04
748.56	0.04
748.875	0.04
749.189	0.03
749.504	0.04
749.819	0.04
750.134	0.03
750.448	0.04
750.763	0.04
751.078	0.03
751.392	0.03
751.707	0.05
752.021	0.05
752.335	0.04
752.65	0.04
752.964	0.05
753.278	0.04
753.592	0.05
753.906	0.04
754.22	0.04
754.534	0.04
754.848	0.05
755.162	0.04
755.476	0.04
755.789	0.04
756.103	0.04
756.417	0.05
756.73	0.05
757.044	0.04
757.357	0.04
757.671	0.05
757.984	0.04
758.297	0.05
758.61	0.05
758.924	0.04
759.237	0.04
759.55	0.04
759.863	0.04
760.176	0.04
760.488	0.04
760.801	0.04
761.114	0.04
761.427	0.04
761.739	0.04
762.052	0.04
762.365	0.04
762.677	0.05
762.99	0.03
763.302	0.04
763.614	0.05
763.926	0.05
764.239	0.04
764.551	0.04
764.863	0.05
765.175	0.04
765.487	0.04
765.799	0.03
766.111	0.03
766.423	0.04
766.734	0.04
767.046	0.04
767.358	0.04
767.669	0.04
767.981	0.04
768.292	0.04
768.604	0.05
768.915	0.04
769.226	0.04
769.537	0.03
769.849	0.04
770.16	0.04
770.471	0.03
770.782	0.03
771.093	0.04
771.404	0.03
771.715	0.03
772.025	0.04
772.336	0.04
772.647	0.03
772.957	0.03
773.268	0.03
773.578	0.04
773.889	0.04
774.199	0.05
774.51	0.04
774.82	0.04
775.13	0.04
775.44	0.05
775.75	0.05
776.06	0.04
776.37	0.05
776.68	0.06
776.99	0.05
777.3	0.04
777.61	0.05
777.92	0.05
778.229	0.05
778.539	0.04
778.848	0.05
779.158	0.06
779.467	0.05
779.777	0.05
780.086	0.05
780.395	0.04
780.704	0.05
781.013	0.04
781.323	0.04
781.632	0.04
781.941	0.04
782.249	0.04
782.558	0.04
782.867	0.04
783.176	0.03
783.485	0.04
783.793	0.05
784.102	0.04
784.41	0.05
784.719	0.04
785.027	0.04
785.335	0.04
785.644	0.04
785.952	0.04
786.26	0.04
786.568	0.03
786.876	0.03
787.184	0.05
787.492	0.05
787.8	0.04
788.108	0.05
788.416	0.04
788.723	0.04
789.031	0.04
789.338	0.04
789.646	0.05
789.953	0.04
790.261	0.05
790.568	0.05
790.876	0.04
791.183	0.05
791.49	0.04
791.797	0.05
792.104	0.04
792.411	0.04
792.718	0.05
793.025	0.04
793.332	0.04
793.639	0.05
793.945	0.05
794.252	0.05
794.559	0.05
794.865	0.05
795.172	0.05
795.478	0.04
795.784	0.05
796.091	0.05
796.397	0.05
796.703	0.05
797.009	0.06
797.315	0.05
797.622	0.05
797.927	0.05
798.233	0.05
798.539	0.05
798.845	0.05
799.151	0.06
799.456	0.05
799.762	0.05
800.068	0.05
800.373	0.06
800.679	0.05
800.984	0.05
801.289	0.05
801.595	0.06
801.9	0.06
802.205	0.04
802.51	0.05
802.815	0.06
803.12	0.06
803.425	0.05
803.73	0.04
804.035	0.05
804.339	0.05
804.644	0.05
804.949	0.05
805.253	0.05
805.558	0.05
805.862	0.05
806.167	0.05
806.471	0.04
806.775	0.05
807.08	0.05
807.384	0.04
807.688	0.05
807.992	0.05
808.296	0.05
808.6	0.05
808.904	0.06
809.207	0.05
809.511	0.05
809.815	0.06
810.119	0.05
810.422	0.05
810.726	0.06
811.029	0.06
811.332	0.05
811.636	0.06
811.939	0.05
812.242	0.05
812.546	0.05
812.849	0.05
813.152	0.07
813.455	0.06
813.758	0.06
814.06	0.05
814.363	0.06
814.666	0.06
814.969	0.06
815.271	0.06
815.574	0.05
815.877	0.06
816.179	0.05
816.481	0.05
816.784	0.05
817.086	0.04
817.388	0.04
817.69	0.04
817.993	0.04
818.295	0.04
818.597	0.04
818.899	0.04
819.2	0.03
819.502	0.04
819.804	0.04
820.106	0.04
820.407	0.03
820.709	0.04
821.01	0.04
821.312	0.05
821.613	0.04
821.915	0.04
822.216	0.03
822.517	0.04
822.818	0.03
823.119	0.03
823.42	0.04
823.721	0.03
824.022	0.04
824.323	0.04
824.624	0.04
824.925	0.04
825.226	0.05
825.526	0.03
825.827	0.04
826.127	0.03
826.428	0.04
826.728	0.02
827.028	0.04
827.329	0.03
827.629	0.02
827.929	0.03
828.229	0.03
828.529	0.04
828.829	0.02
829.129	0.02
829.429	0.03
829.729	0.03
830.029	0.02
830.328	0.03
830.628	0.03
830.927	0.02
831.227	0.02
831.526	0.03
831.826	0.02
832.125	0.02
832.424	0.02
832.724	0.02
833.023	0.02
833.322	0.03
833.621	0.03
833.92	0.02
834.219	0.03
834.518	0.02
834.816	0.02
835.115	0.03
835.414	0.02
835.712	0.01
836.011	0.02
836.309	0.01
836.608	0.01
836.906	0.01
837.205	-0
837.503	0
837.801	0
838.099	-0.01
838.397	-0.01
838.695	-0
838.993	-0.01
839.291	-0.01
839.589	-0.01
839.887	-0.01
840.184	-0.02
840.482	-0.02
840.78	-0.01
841.077	-0.02
841.375	-0.02
841.672	-0.01
841.969	-0.02
842.267	-0.01
842.564	-0.01
842.861	-0
843.158	-0.02
843.455	-0.03
843.752	-0.02
844.049	-0.02
844.346	-0.02
844.643	-0.03
844.94	-0.03
845.236	-0.02
845.533	-0.03
845.83	-0.03
846.126	-0.02
846.423	-0.02
846.719	-0.03
847.015	-0.02
847.312	-0.03
847.608	-0.04
847.904	-0.04
848.2	-0.04
848.496	-0.04
848.792	-0.03
849.088	-0.03
849.384	-0.04
849.68	-0.05
849.975	-0.04
850.271	-0.05
850.567	-0.05
850.862	-0.05
851.158	-0.05
851.453	-0.05
851.748	-0.06
852.044	-0.05
852.339	-0.05
852.634	-0.07
852.929	-0.05
853.224	-0.06
853.519	-0.06
853.814	-0.06
854.109	-0.07
854.404	-0.06
854.699	-0.06
854.994	-0.05
855.288	-0.06
855.583	-0.06
855.877	-0.06
856.172	-0.06
856.466	-0.07
856.76	-0.07
857.055	-0.06
857.349	-0.07
857.643	-0.08
857.937	-0.09
858.231	-0.09
858.525	-0.08
858.819	-0.09
859.113	-0.1
859.407	-0.1
859.701	-0.1
859.994	-0.1
860.288	-0.09
860.581	-0.11
860.875	-0.1
861.168	-0.1
861.462	-0.1
861.755	-0.1
862.048	-0.1
862.341	-0.11
862.634	-0.11
862.928	-0.11
863.221	-0.11
863.513	-0.12
863.806	-0.11
864.099	-0.11
864.392	-0.11
864.685	-0.11
864.977	-0.11
865.27	-0.11
865.562	-0.11
865.855	-0.11
866.147	-0.12
866.44	-0.11
866.732	-0.13
867.024	-0.12
867.316	-0.12
867.608	-0.12
867.9	-0.13
868.192	-0.13
868.484	-0.13
868.776	-0.13
869.068	-0.13
869.359	-0.13
869.651	-0.13
869.943	-0.14
870.234	-0.14
870.526	-0.14
870.817	-0.14
871.108	-0.14
871.4	-0.13
871.691	-0.14
871.982	-0.14
872.273	-0.15
872.564	-0.15
872.855	-0.15
873.146	-0.15
873.437	-0.15
873.728	-0.16
874.019	-0.15
874.309	-0.16
874.6	-0.16
874.89	-0.16
875.181	-0.16
875.471	-0.15
875.762	-0.15
876.052	-0.16
876.342	-0.14
876.632	-0.16
876.922	-0.17
877.213	-0.17
877.503	-0.18
877.792	-0.16
878.082	-0.18
878.372	-0.16
878.662	-0.18
878.952	-0.18
879.241	-0.17
879.531	-0.17
879.82	-0.17
880.11	-0.16
880.399	-0.17
880.688	-0.15
880.978	-0.15
881.267	-0.15
