Data from 12-12-AQDScycling_Absorbance__975__00975.txt Node

Date: Tue Dec 12 15:00:29 EST 2023
User: kyuminlee
Spectrometer: FLMS00943
Trigger mode: 0
Integration Time (sec): 1.000000E-1
Scans to average: 1
Electric dark correction enabled: true
Nonlinearity correction enabled: false
Boxcar width: 0
XAxis mode: Wavelengths
Number of Pixels in Spectrum: 2048
>>>>>Begin Spectral Data<<<<<
179.651	-0
180.037	-0
180.424	-0
180.81	-0.16
181.197	0.03
181.583	-0.2
181.97	-0.46
182.356	-0
182.743	-1.16
183.129	0.17
183.515	0.37
183.901	-0
184.288	0.19
184.674	0.22
185.06	-0.34
185.446	-0
185.832	-0
186.218	-0.03
186.604	0.22
186.99	-0
187.376	-0
187.762	-0.1
188.148	0.39
188.534	-0.33
188.92	0.06
189.305	-0
189.691	0.2
190.077	0.16
190.463	0.12
190.848	0.05
191.234	-0.04
191.619	0
192.005	0.34
192.391	0.03
192.776	0.02
193.161	0.03
193.547	0.1
193.932	0.12
194.318	0.06
194.703	0.16
195.088	0.15
195.473	0.26
195.859	0.08
196.244	0.15
196.629	-0.01
197.014	-0.06
197.399	0.08
197.784	0.18
198.169	-0
198.554	0.22
198.939	0.19
199.324	0.13
199.709	0.08
200.094	0.02
200.478	0.08
200.863	0.17
201.248	0.12
201.633	0.12
202.017	0.12
202.402	0.21
202.787	0.1
203.171	0.19
203.556	0.11
203.94	0.17
204.325	0.22
204.709	0.2
205.093	0.03
205.478	0.19
205.862	0.09
206.246	0.09
206.631	0.21
207.015	0.13
207.399	0.11
207.783	0.18
208.167	0.23
208.551	0.25
208.935	0.15
209.319	0.09
209.703	0.18
210.087	0.14
210.471	-0.08
210.855	0.17
211.239	0.34
211.623	0.24
212.007	0.25
212.39	0.39
212.774	0.15
213.158	0.02
213.541	0.28
213.925	0.19
214.309	0.16
214.692	0.19
215.076	0.25
215.459	0.18
215.842	0.04
216.226	0.23
216.609	0.27
216.993	0.19
217.376	0.31
217.759	0.21
218.142	0.23
218.525	0.48
218.909	0.3
219.292	0.34
219.675	0.57
220.058	0.31
220.441	0.46
220.824	0.39
221.207	0.59
221.59	0.45
221.973	0.48
222.355	0.75
222.738	0.81
223.121	0.69
223.504	0.57
223.886	0.64
224.269	0.76
224.652	0.62
225.034	0.86
225.417	0.69
225.799	0.66
226.182	0.78
226.564	0.77
226.947	0.7
227.329	0.9
227.711	0.98
228.094	0.89
228.476	1.03
228.858	0.82
229.24	0.86
229.623	0.96
230.005	0.78
230.387	0.81
230.769	0.8
231.151	0.79
231.533	0.93
231.915	0.82
232.297	0.95
232.679	1.03
233.061	1.05
233.442	0.99
233.824	1.01
234.206	1.16
234.588	1.02
234.969	1.03
235.351	0.87
235.733	1.04
236.114	1.27
236.496	0.97
236.877	1.03
237.259	1.08
237.64	1.01
238.022	1.02
238.403	0.99
238.784	1.01
239.165	1.04
239.547	0.97
239.928	1.1
240.309	1.02
240.69	1.05
241.071	1.18
241.452	1.2
241.834	1.09
242.215	1.04
242.595	1.04
242.976	1.13
243.357	1.1
243.738	1.04
244.119	1.35
244.5	1.2
244.881	1.26
245.261	1.23
245.642	1.28
246.023	1.04
246.403	1.29
246.784	1.22
247.164	1.32
247.545	1.31
247.925	1.22
248.306	1.22
248.686	1.31
249.067	1.28
249.447	1.35
249.827	1.44
250.207	1.62
250.588	1.23
250.968	1.31
251.348	1.25
251.728	1.36
252.108	1.34
252.488	1.49
252.868	1.27
253.248	1.33
253.628	1.27
254.008	1.39
254.388	1.26
254.768	1.22
255.147	1.31
255.527	1.35
255.907	1.28
256.287	1.29
256.666	1.28
257.046	1.44
257.425	1.4
257.805	1.29
258.184	1.31
258.564	1.53
258.943	1.37
259.323	1.46
259.702	1.37
260.081	1.46
260.461	1.42
260.84	1.42
261.219	1.68
261.598	1.52
261.977	1.42
262.356	1.35
262.736	1.46
263.115	1.48
263.494	1.33
263.873	1.42
264.251	1.49
264.63	1.58
265.009	1.4
265.388	1.45
265.767	1.33
266.145	1.42
266.524	1.3
266.903	1.44
267.281	1.4
267.66	1.49
268.039	1.57
268.417	1.47
268.796	1.39
269.174	1.42
269.552	1.38
269.931	1.47
270.309	1.4
270.687	1.47
271.066	1.48
271.444	1.31
271.822	1.5
272.2	1.3
272.578	1.34
272.956	1.43
273.334	1.27
273.712	1.36
274.09	1.41
274.468	1.46
274.846	1.36
275.224	1.38
275.602	1.44
275.98	1.5
276.357	1.38
276.735	1.41
277.113	1.32
277.49	1.35
277.868	1.31
278.246	1.36
278.623	1.27
279.001	1.38
279.378	1.52
279.756	1.4
280.133	1.46
280.51	1.43
280.888	1.39
281.265	1.42
281.642	1.37
282.019	1.59
282.396	1.48
282.773	1.4
283.151	1.43
283.528	1.5
283.905	1.32
284.282	1.52
284.659	1.51
285.035	1.29
285.412	1.46
285.789	1.48
286.166	1.39
286.543	1.33
286.919	1.59
287.296	1.44
287.673	1.64
288.049	1.55
288.426	1.71
288.802	1.52
289.179	1.47
289.555	1.6
289.932	1.45
290.308	1.31
290.684	1.33
291.061	1.26
291.437	1.48
291.813	1.48
292.189	1.3
292.565	1.25
292.942	1.26
293.318	1.41
293.694	1.31
294.07	1.32
294.446	1.3
294.822	1.54
295.197	1.47
295.573	1.44
295.949	1.49
296.325	1.45
296.701	1.45
297.076	1.57
297.452	1.56
297.828	1.41
298.203	1.52
298.579	1.39
298.954	1.43
299.33	1.43
299.705	1.42
300.081	1.44
300.456	1.5
300.831	1.48
301.206	1.41
301.582	1.56
301.957	1.45
302.332	1.48
302.707	1.5
303.082	1.49
303.457	1.52
303.832	1.49
304.207	1.57
304.582	1.58
304.957	1.46
305.332	1.62
305.707	1.49
306.082	1.55
306.456	1.59
306.831	1.46
307.206	1.64
307.58	1.65
307.955	1.44
308.33	1.49
308.704	1.43
309.079	1.47
309.453	1.71
309.828	1.49
310.202	1.45
310.576	1.48
310.951	1.47
311.325	1.41
311.699	1.48
312.073	1.4
312.447	1.46
312.821	1.45
313.196	1.48
313.57	1.42
313.944	1.42
314.317	1.45
314.691	1.52
315.065	1.52
315.439	1.54
315.813	1.49
316.187	1.56
316.56	1.48
316.934	1.49
317.308	1.46
317.681	1.5
318.055	1.43
318.428	1.52
318.802	1.5
319.175	1.47
319.549	1.45
319.922	1.43
320.295	1.44
320.669	1.59
321.042	1.57
321.415	1.64
321.788	1.47
322.162	1.41
322.535	1.45
322.908	1.5
323.281	1.42
323.654	1.52
324.027	1.35
324.4	1.68
324.773	1.54
325.145	1.54
325.518	1.38
325.891	1.4
326.264	1.65
326.636	1.43
327.009	1.5
327.382	1.47
327.754	1.6
328.127	1.41
328.499	1.44
328.872	1.46
329.244	1.7
329.616	1.41
329.989	1.49
330.361	1.46
330.733	1.47
331.106	1.48
331.478	1.57
331.85	1.56
332.222	1.36
332.594	1.5
332.966	1.42
333.338	1.57
333.71	1.38
334.082	1.53
334.454	1.51
334.826	1.55
335.197	1.63
335.569	1.43
335.941	1.39
336.312	1.53
336.684	1.47
337.056	1.46
337.427	1.59
337.799	1.47
338.17	1.65
338.542	1.48
338.913	1.52
339.284	1.63
339.656	1.48
340.027	1.55
340.398	1.54
340.769	1.66
341.141	1.74
341.512	1.46
341.883	1.66
342.254	1.6
342.625	1.6
342.996	1.48
343.367	1.43
343.738	1.48
344.108	1.49
344.479	1.54
344.85	1.48
345.221	1.64
345.591	1.41
345.962	1.58
346.333	1.59
346.703	1.25
347.074	1.37
347.444	1.34
347.815	1.53
348.185	1.42
348.556	1.39
348.926	1.36
349.296	1.49
349.666	1.34
350.037	1.28
350.407	1.18
350.777	1.31
351.147	1.42
351.517	1.42
351.887	1.38
352.257	1.32
352.627	1.3
352.997	1.28
353.367	1.39
353.737	1.46
354.106	1.32
354.476	1.32
354.846	1.34
355.216	1.52
355.585	1.36
355.955	1.37
356.324	1.34
356.694	1.27
357.063	1.32
357.433	1.25
357.802	1.28
358.171	1.24
358.541	1.22
358.91	1.28
359.279	1.28
359.648	1.18
360.017	1.18
360.387	1.23
360.756	1.15
361.125	1.18
361.494	1.18
361.863	1.16
362.231	1.11
362.6	1.13
362.969	1.11
363.338	1.11
363.707	1.1
364.075	1.09
364.444	1
364.813	1.06
365.181	1.06
365.55	1.03
365.918	1.09
366.287	1
366.655	1.01
367.024	1.01
367.392	1.02
367.76	0.97
368.128	0.98
368.497	0.93
368.865	0.96
369.233	0.97
369.601	0.97
369.969	0.91
370.337	0.93
370.705	0.9
371.073	0.93
371.441	0.91
371.809	0.91
372.177	0.92
372.544	0.88
372.912	0.89
373.28	0.88
373.647	0.89
374.015	0.89
374.383	0.9
374.75	0.92
375.118	0.86
375.485	0.87
375.853	0.9
376.22	0.88
376.587	0.87
376.955	0.91
377.322	0.87
377.689	0.89
378.056	0.83
378.423	0.86
378.79	0.91
379.157	0.89
379.524	0.87
379.891	0.86
380.258	0.87
380.625	0.85
380.992	0.88
381.359	0.88
381.726	0.9
382.092	0.85
382.459	0.86
382.826	0.87
383.192	0.91
383.559	0.88
383.925	0.9
384.292	0.9
384.658	0.92
385.025	0.89
385.391	0.95
385.757	0.93
386.123	0.93
386.49	0.91
386.856	0.96
387.222	0.96
387.588	0.93
387.954	0.99
388.32	0.93
388.686	0.96
389.052	0.91
389.418	0.94
389.784	0.91
390.15	0.95
390.515	0.91
390.881	1
391.247	0.95
391.613	0.97
391.978	0.91
392.344	0.97
392.709	0.95
393.075	0.93
393.44	0.99
393.806	0.95
394.171	0.93
394.536	0.91
394.902	0.94
395.267	0.92
395.632	0.88
395.997	0.91
396.362	0.92
396.727	0.95
397.092	0.94
397.457	0.92
397.822	0.91
398.187	0.9
398.552	0.89
398.917	0.88
399.282	0.84
399.646	0.84
400.011	0.91
400.376	0.85
400.74	0.86
401.105	0.85
401.47	0.87
401.834	0.83
402.199	0.83
402.563	0.81
402.927	0.81
403.292	0.84
403.656	0.85
404.02	0.8
404.384	0.83
404.749	0.82
405.113	0.8
405.477	0.81
405.841	0.78
406.205	0.81
406.569	0.79
406.933	0.79
407.296	0.77
407.66	0.75
408.024	0.75
408.388	0.76
408.752	0.74
409.115	0.73
409.479	0.73
409.842	0.72
410.206	0.7
410.569	0.72
410.933	0.71
411.296	0.71
411.66	0.68
412.023	0.69
412.386	0.7
412.749	0.67
413.113	0.69
413.476	0.65
413.839	0.65
414.202	0.66
414.565	0.66
414.928	0.65
415.291	0.63
415.654	0.64
416.017	0.64
416.38	0.66
416.742	0.64
417.105	0.62
417.468	0.61
417.83	0.65
418.193	0.65
418.556	0.64
418.918	0.64
419.281	0.66
419.643	0.64
420.005	0.63
420.368	0.63
420.73	0.62
421.092	0.61
421.455	0.63
421.817	0.59
422.179	0.59
422.541	0.62
422.903	0.6
423.265	0.62
423.627	0.61
423.989	0.61
424.351	0.58
424.713	0.61
425.075	0.58
425.436	0.59
425.798	0.57
426.16	0.59
426.521	0.56
426.883	0.57
427.245	0.61
427.606	0.57
427.967	0.57
428.329	0.55
428.69	0.57
429.052	0.58
429.413	0.59
429.774	0.56
430.135	0.56
430.497	0.57
430.858	0.55
431.219	0.55
431.58	0.56
431.941	0.53
432.302	0.55
432.663	0.55
433.024	0.56
433.384	0.54
433.745	0.54
434.106	0.55
434.467	0.53
434.827	0.55
435.188	0.54
435.548	0.57
435.909	0.53
436.269	0.54
436.63	0.52
436.99	0.54
437.351	0.52
437.711	0.53
438.071	0.52
438.431	0.52
438.792	0.5
439.152	0.5
439.512	0.5
439.872	0.5
440.232	0.53
440.592	0.52
440.952	0.51
441.312	0.49
441.671	0.51
442.031	0.5
442.391	0.48
442.751	0.5
443.11	0.49
443.47	0.49
443.83	0.47
444.189	0.47
444.549	0.48
444.908	0.48
445.267	0.47
445.627	0.46
445.986	0.45
446.345	0.45
446.705	0.46
447.064	0.46
447.423	0.47
447.782	0.45
448.141	0.44
448.5	0.43
448.859	0.44
449.218	0.43
449.577	0.45
449.936	0.45
450.295	0.43
450.653	0.44
451.012	0.44
451.371	0.43
451.729	0.44
452.088	0.44
452.447	0.43
452.805	0.43
453.163	0.42
453.522	0.42
453.88	0.42
454.239	0.42
454.597	0.4
454.955	0.4
455.313	0.4
455.671	0.4
456.029	0.41
456.388	0.4
456.746	0.4
457.104	0.38
457.461	0.38
457.819	0.38
458.177	0.37
458.535	0.37
458.893	0.36
459.25	0.35
459.608	0.35
459.966	0.35
460.323	0.35
460.681	0.34
461.038	0.35
461.396	0.34
461.753	0.34
462.111	0.33
462.468	0.32
462.825	0.33
463.182	0.33
463.54	0.31
463.897	0.32
464.254	0.32
464.611	0.31
464.968	0.31
465.325	0.31
465.682	0.31
466.039	0.31
466.395	0.3
466.752	0.29
467.109	0.29
467.466	0.28
467.822	0.3
468.179	0.29
468.535	0.28
468.892	0.29
469.248	0.28
469.605	0.26
469.961	0.26
470.318	0.28
470.674	0.27
471.03	0.26
471.386	0.26
471.743	0.25
472.099	0.25
472.455	0.25
472.811	0.24
473.167	0.25
473.523	0.24
473.879	0.24
474.235	0.24
474.59	0.23
474.946	0.23
475.302	0.24
475.657	0.23
476.013	0.23
476.369	0.22
476.724	0.22
477.08	0.23
477.435	0.22
477.791	0.22
478.146	0.22
478.501	0.21
478.857	0.21
479.212	0.21
479.567	0.21
479.922	0.2
480.277	0.2
480.632	0.19
480.987	0.19
481.342	0.19
481.697	0.19
482.052	0.18
482.407	0.18
482.762	0.18
483.116	0.18
483.471	0.18
483.826	0.17
484.18	0.18
484.535	0.17
484.89	0.17
485.244	0.17
485.598	0.17
485.953	0.16
486.307	0.16
486.661	0.17
487.016	0.16
487.37	0.15
487.724	0.16
488.078	0.16
488.432	0.15
488.786	0.15
489.14	0.15
489.494	0.15
489.848	0.15
490.202	0.15
490.556	0.14
490.91	0.15
491.263	0.14
491.617	0.14
491.971	0.14
492.324	0.14
492.678	0.14
493.031	0.15
493.385	0.14
493.738	0.14
494.091	0.14
494.445	0.13
494.798	0.13
495.151	0.14
495.504	0.13
495.857	0.13
496.21	0.14
496.564	0.13
496.916	0.14
497.269	0.13
497.622	0.13
497.975	0.13
498.328	0.13
498.681	0.13
499.033	0.12
499.386	0.12
499.739	0.12
500.091	0.12
500.444	0.12
500.796	0.12
501.149	0.11
501.501	0.12
501.854	0.12
502.206	0.12
502.558	0.12
502.91	0.12
503.263	0.12
503.615	0.11
503.967	0.11
504.319	0.12
504.671	0.11
505.023	0.11
505.375	0.12
505.726	0.11
506.078	0.12
506.43	0.11
506.782	0.1
507.133	0.12
507.485	0.12
507.837	0.12
508.188	0.12
508.54	0.12
508.891	0.12
509.243	0.11
509.594	0.12
509.945	0.12
510.296	0.11
510.648	0.11
510.999	0.11
511.35	0.11
511.701	0.11
512.052	0.11
512.403	0.12
512.754	0.11
513.105	0.11
513.456	0.11
513.807	0.11
514.157	0.11
514.508	0.12
514.859	0.1
515.209	0.11
515.56	0.12
515.91	0.1
516.261	0.12
516.611	0.11
516.962	0.11
517.312	0.11
517.662	0.11
518.013	0.11
518.363	0.11
518.713	0.12
519.063	0.12
519.413	0.12
519.763	0.12
520.113	0.11
520.463	0.12
520.813	0.12
521.163	0.12
521.512	0.11
521.862	0.11
522.212	0.11
522.562	0.11
522.911	0.11
523.261	0.11
523.61	0.11
523.96	0.11
524.309	0.12
524.658	0.12
525.008	0.12
525.357	0.11
525.706	0.12
526.056	0.11
526.405	0.11
526.754	0.12
527.103	0.11
527.452	0.11
527.801	0.12
528.15	0.12
528.499	0.11
528.847	0.12
529.196	0.13
529.545	0.12
529.893	0.13
530.242	0.12
530.591	0.13
530.939	0.13
531.288	0.12
531.636	0.13
531.985	0.13
532.333	0.12
532.681	0.12
533.029	0.12
533.378	0.12
533.726	0.12
534.074	0.13
534.422	0.12
534.77	0.13
535.118	0.12
535.466	0.12
535.814	0.12
536.162	0.12
536.509	0.12
536.857	0.12
537.205	0.12
537.552	0.13
537.9	0.12
538.248	0.12
538.595	0.13
538.943	0.13
539.29	0.12
539.637	0.12
539.985	0.12
540.332	0.12
540.679	0.12
541.026	0.12
541.373	0.13
541.721	0.11
542.068	0.12
542.415	0.12
542.762	0.12
543.108	0.12
543.455	0.12
543.802	0.12
544.149	0.12
544.496	0.12
544.842	0.12
545.189	0.11
545.535	0.12
545.882	0.12
546.228	0.11
546.575	0.11
546.921	0.11
547.267	0.11
547.614	0.11
547.96	0.12
548.306	0.12
548.652	0.11
548.998	0.12
549.344	0.12
549.69	0.11
550.036	0.12
550.382	0.11
550.728	0.12
551.074	0.12
551.42	0.12
551.765	0.12
552.111	0.13
552.457	0.13
552.802	0.13
553.148	0.13
553.493	0.12
553.839	0.13
554.184	0.12
554.529	0.12
554.875	0.12
555.22	0.12
555.565	0.12
555.91	0.12
556.255	0.12
556.6	0.12
556.945	0.12
557.29	0.12
557.635	0.12
557.98	0.12
558.325	0.12
558.67	0.13
559.014	0.12
559.359	0.12
559.704	0.12
560.048	0.12
560.393	0.12
560.737	0.12
561.082	0.12
561.426	0.12
561.77	0.12
562.115	0.11
562.459	0.12
562.803	0.12
563.147	0.12
563.491	0.12
563.835	0.13
564.179	0.12
564.523	0.11
564.867	0.12
565.211	0.12
565.555	0.12
565.899	0.13
566.242	0.13
566.586	0.12
566.93	0.12
567.273	0.13
567.617	0.12
567.96	0.13
568.304	0.13
568.647	0.13
568.99	0.12
569.334	0.13
569.677	0.12
570.02	0.13
570.363	0.13
570.706	0.12
571.049	0.13
571.392	0.13
571.735	0.12
572.078	0.12
572.421	0.14
572.764	0.13
573.106	0.12
573.449	0.12
573.792	0.12
574.134	0.13
574.477	0.13
574.819	0.12
575.162	0.12
575.504	0.12
575.847	0.12
576.189	0.12
576.531	0.12
576.873	0.12
577.215	0.12
577.558	0.12
577.9	0.12
578.242	0.12
578.584	0.12
578.926	0.12
579.267	0.12
579.609	0.13
579.951	0.12
580.293	0.11
580.634	0.13
580.976	0.12
581.318	0.13
581.659	0.11
582.001	0.12
582.342	0.11
582.683	0.13
583.025	0.12
583.366	0.12
583.707	0.13
584.049	0.13
584.39	0.12
584.731	0.12
585.072	0.12
585.413	0.12
585.754	0.12
586.095	0.12
586.435	0.12
586.776	0.13
587.117	0.12
587.458	0.12
587.798	0.12
588.139	0.12
588.48	0.12
588.82	0.12
589.161	0.12
589.501	0.12
589.841	0.11
590.182	0.12
590.522	0.12
590.862	0.11
591.202	0.11
591.542	0.11
591.882	0.11
592.222	0.12
592.562	0.12
592.902	0.12
593.242	0.11
593.582	0.12
593.922	0.11
594.261	0.11
594.601	0.12
594.941	0.12
595.28	0.12
595.62	0.12
595.959	0.12
596.299	0.12
596.638	0.11
596.977	0.11
597.317	0.12
597.656	0.12
597.995	0.12
598.334	0.13
598.673	0.12
599.012	0.12
599.351	0.13
599.69	0.12
600.029	0.13
600.368	0.13
600.707	0.13
601.046	0.12
601.384	0.13
601.723	0.13
602.061	0.12
602.4	0.12
602.738	0.13
603.077	0.13
603.415	0.11
603.754	0.12
604.092	0.12
604.43	0.12
604.768	0.12
605.107	0.13
605.445	0.11
605.783	0.12
606.121	0.12
606.459	0.12
606.796	0.12
607.134	0.12
607.472	0.12
607.81	0.12
608.148	0.12
608.485	0.13
608.823	0.12
609.16	0.12
609.498	0.12
609.835	0.12
610.173	0.12
610.51	0.12
610.847	0.12
611.185	0.12
611.522	0.12
611.859	0.13
612.196	0.13
612.533	0.12
612.87	0.13
613.207	0.13
613.544	0.12
613.881	0.14
614.217	0.12
614.554	0.13
614.891	0.13
615.228	0.13
615.564	0.13
615.901	0.12
616.237	0.13
616.574	0.13
616.91	0.14
617.246	0.13
617.583	0.13
617.919	0.13
618.255	0.13
618.591	0.13
618.927	0.14
619.263	0.13
619.599	0.13
619.935	0.13
620.271	0.13
620.607	0.13
620.943	0.13
621.279	0.13
621.614	0.13
621.95	0.13
622.286	0.12
622.621	0.13
622.957	0.13
623.292	0.13
623.627	0.12
623.963	0.12
624.298	0.12
624.633	0.12
624.968	0.12
625.304	0.12
625.639	0.12
625.974	0.12
626.309	0.12
626.644	0.12
626.979	0.12
627.313	0.13
627.648	0.12
627.983	0.13
628.318	0.12
628.652	0.12
628.987	0.12
629.321	0.12
629.656	0.11
629.99	0.1
630.325	0.12
630.659	0.12
630.993	0.11
631.327	0.11
631.662	0.1
631.996	0.11
632.33	0.11
632.664	0.11
632.998	0.1
633.332	0.1
633.666	0.11
633.999	0.11
634.333	0.11
634.667	0.1
635.001	0.1
635.334	0.1
635.668	0.1
636.001	0.11
636.335	0.1
636.668	0.1
637.001	0.1
637.335	0.1
637.668	0.1
638.001	0.1
638.334	0.1
638.668	0.1
639.001	0.1
639.334	0.09
639.667	0.1
639.999	0.1
640.332	0.11
640.665	0.1
640.998	0.1
641.331	0.11
641.663	0.1
641.996	0.1
642.328	0.11
642.661	0.1
642.993	0.11
643.326	0.1
643.658	0.1
643.99	0.1
644.323	0.11
644.655	0.11
644.987	0.11
645.319	0.11
645.651	0.11
645.983	0.11
646.315	0.11
646.647	0.11
646.979	0.12
647.31	0.12
647.642	0.11
647.974	0.11
648.305	0.12
648.637	0.12
648.968	0.12
649.3	0.11
649.631	0.11
649.963	0.1
650.294	0.11
650.625	0.11
650.957	0.11
651.288	0.11
651.619	0.11
651.95	0.12
652.281	0.11
652.612	0.11
652.943	0.11
653.274	0.11
653.604	0.11
653.935	0.12
654.266	0.11
654.596	0.11
654.927	0.11
655.258	0.11
655.588	0.12
655.918	0.11
656.249	0.09
656.579	0.1
656.909	0.1
657.24	0.1
657.57	0.11
657.9	0.11
658.23	0.1
658.56	0.11
658.89	0.11
659.22	0.1
659.55	0.1
659.88	0.1
660.209	0.11
660.539	0.11
660.869	0.11
661.198	0.11
661.528	0.11
661.857	0.11
662.187	0.11
662.516	0.11
662.846	0.1
663.175	0.1
663.504	0.1
663.833	0.1
664.163	0.11
664.492	0.1
664.821	0.1
665.15	0.1
665.479	0.1
665.807	0.1
666.136	0.1
666.465	0.1
666.794	0.1
667.122	0.1
667.451	0.1
667.78	0.11
668.108	0.11
668.437	0.1
668.765	0.1
669.093	0.11
669.422	0.1
669.75	0.11
670.078	0.11
670.406	0.11
670.734	0.11
671.062	0.11
671.39	0.1
671.718	0.11
672.046	0.11
672.374	0.1
672.702	0.11
673.029	0.1
673.357	0.11
673.685	0.11
674.012	0.11
674.34	0.11
674.667	0.11
674.995	0.11
675.322	0.11
675.649	0.1
675.977	0.1
676.304	0.11
676.631	0.1
676.958	0.1
677.285	0.1
677.612	0.09
677.939	0.1
678.266	0.1
678.593	0.1
678.92	0.1
679.246	0.1
679.573	0.1
679.9	0.1
680.226	0.1
680.553	0.1
680.879	0.1
681.206	0.1
681.532	0.1
681.858	0.1
682.184	0.1
682.511	0.1
682.837	0.1
683.163	0.1
683.489	0.1
683.815	0.1
684.141	0.1
684.467	0.1
684.793	0.1
685.118	0.1
685.444	0.1
685.77	0.1
686.095	0.1
686.421	0.1
686.746	0.1
687.072	0.09
687.397	0.1
687.723	0.1
688.048	0.1
688.373	0.09
688.698	0.1
689.023	0.09
689.349	0.09
689.674	0.09
689.999	0.09
690.323	0.09
690.648	0.09
690.973	0.08
691.298	0.08
691.623	0.09
691.947	0.09
692.272	0.08
692.596	0.09
692.921	0.09
693.245	0.08
693.57	0.09
693.894	0.09
694.218	0.1
694.543	0.09
694.867	0.09
695.191	0.09
695.515	0.09
695.839	0.09
696.163	0.09
696.487	0.09
696.811	0.09
697.135	0.09
697.458	0.09
697.782	0.09
698.106	0.09
698.429	0.09
698.753	0.09
699.076	0.09
699.4	0.09
699.723	0.09
700.046	0.09
700.37	0.1
700.693	0.09
701.016	0.09
701.339	0.09
701.662	0.1
701.985	0.09
702.308	0.08
702.631	0.09
702.954	0.09
703.277	0.09
703.599	0.09
703.922	0.08
704.245	0.08
704.567	0.08
704.89	0.08
705.212	0.08
705.535	0.07
705.857	0.07
706.179	0.08
706.502	0.08
706.824	0.07
707.146	0.07
707.468	0.08
707.79	0.08
708.112	0.08
708.434	0.08
708.756	0.08
709.078	0.08
709.399	0.08
709.721	0.07
710.043	0.08
710.364	0.07
710.686	0.08
711.007	0.08
711.329	0.09
711.65	0.09
711.972	0.08
712.293	0.08
712.614	0.08
712.935	0.09
713.256	0.08
713.577	0.09
713.898	0.08
714.219	0.08
714.54	0.08
714.861	0.08
715.182	0.09
715.503	0.08
715.823	0.08
716.144	0.08
716.464	0.08
716.785	0.08
717.105	0.08
717.426	0.08
717.746	0.08
718.066	0.07
718.387	0.08
718.707	0.07
719.027	0.08
719.347	0.07
719.667	0.08
719.987	0.07
720.307	0.07
720.627	0.07
720.947	0.07
721.266	0.07
721.586	0.07
721.906	0.07
722.225	0.07
722.545	0.07
722.864	0.07
723.184	0.07
723.503	0.07
723.823	0.07
724.142	0.06
724.461	0.07
724.78	0.07
725.099	0.07
725.418	0.07
725.737	0.07
726.056	0.08
726.375	0.07
726.694	0.07
727.013	0.07
727.331	0.06
727.65	0.07
727.969	0.07
728.287	0.07
728.606	0.07
728.924	0.07
729.242	0.07
729.561	0.07
729.879	0.07
730.197	0.07
730.515	0.06
730.834	0.07
731.152	0.06
731.47	0.07
731.788	0.07
732.105	0.07
732.423	0.07
732.741	0.07
733.059	0.07
733.376	0.07
733.694	0.07
734.012	0.07
734.329	0.07
734.647	0.08
734.964	0.07
735.281	0.08
735.599	0.08
735.916	0.08
736.233	0.08
736.55	0.08
736.867	0.07
737.184	0.08
737.501	0.08
737.818	0.08
738.135	0.09
738.452	0.08
738.768	0.08
739.085	0.08
739.402	0.07
739.718	0.08
740.035	0.08
740.351	0.07
740.668	0.08
740.984	0.07
741.3	0.07
741.617	0.07
741.933	0.07
742.249	0.07
742.565	0.07
742.881	0.07
743.197	0.07
743.513	0.07
743.829	0.06
744.144	0.07
744.46	0.07
744.776	0.07
745.091	0.07
745.407	0.07
745.722	0.06
746.038	0.07
746.353	0.06
746.669	0.07
746.984	0.06
747.299	0.06
747.614	0.06
747.93	0.07
748.245	0.06
748.56	0.06
748.875	0.06
749.189	0.06
749.504	0.06
749.819	0.06
750.134	0.06
750.448	0.06
750.763	0.06
751.078	0.05
751.392	0.06
751.707	0.07
752.021	0.07
752.335	0.07
752.65	0.06
752.964	0.06
753.278	0.07
753.592	0.06
753.906	0.06
754.22	0.06
754.534	0.06
754.848	0.05
755.162	0.06
755.476	0.06
755.789	0.06
756.103	0.06
756.417	0.06
756.73	0.06
757.044	0.06
757.357	0.06
757.671	0.06
757.984	0.06
758.297	0.06
758.61	0.06
758.924	0.06
759.237	0.06
759.55	0.06
759.863	0.06
760.176	0.06
760.488	0.06
760.801	0.06
761.114	0.05
761.427	0.05
761.739	0.06
762.052	0.06
762.365	0.06
762.677	0.06
762.99	0.05
763.302	0.05
763.614	0.06
763.926	0.06
764.239	0.06
764.551	0.06
764.863	0.06
765.175	0.07
765.487	0.06
765.799	0.06
766.111	0.05
766.423	0.06
766.734	0.06
767.046	0.05
767.358	0.06
767.669	0.05
767.981	0.05
768.292	0.05
768.604	0.06
768.915	0.05
769.226	0.05
769.537	0.04
769.849	0.05
770.16	0.05
770.471	0.05
770.782	0.04
771.093	0.05
771.404	0.04
771.715	0.04
772.025	0.05
772.336	0.05
772.647	0.04
772.957	0.05
773.268	0.05
773.578	0.05
773.889	0.06
774.199	0.06
774.51	0.05
774.82	0.05
775.13	0.06
775.44	0.07
775.75	0.06
776.06	0.05
776.37	0.05
776.68	0.06
776.99	0.06
777.3	0.06
777.61	0.07
777.92	0.06
778.229	0.06
778.539	0.07
778.848	0.07
779.158	0.06
779.467	0.07
779.777	0.06
780.086	0.06
780.395	0.05
780.704	0.05
781.013	0.06
781.323	0.05
781.632	0.05
781.941	0.06
782.249	0.06
782.558	0.05
782.867	0.06
783.176	0.04
783.485	0.05
783.793	0.06
784.102	0.05
784.41	0.06
784.719	0.05
785.027	0.05
785.335	0.05
785.644	0.05
785.952	0.05
786.26	0.06
786.568	0.05
786.876	0.05
787.184	0.06
787.492	0.06
787.8	0.06
788.108	0.06
788.416	0.06
788.723	0.06
789.031	0.05
789.338	0.06
789.646	0.06
789.953	0.06
790.261	0.06
790.568	0.05
790.876	0.05
791.183	0.07
791.49	0.05
791.797	0.05
792.104	0.05
792.411	0.06
792.718	0.06
793.025	0.06
793.332	0.06
793.639	0.05
793.945	0.07
794.252	0.06
794.559	0.06
794.865	0.06
795.172	0.05
795.478	0.05
795.784	0.06
796.091	0.06
796.397	0.07
796.703	0.06
797.009	0.07
797.315	0.06
797.622	0.06
797.927	0.05
798.233	0.06
798.539	0.06
798.845	0.06
799.151	0.06
799.456	0.06
799.762	0.06
800.068	0.06
800.373	0.07
800.679	0.06
800.984	0.06
801.289	0.05
801.595	0.06
801.9	0.06
802.205	0.06
802.51	0.05
802.815	0.05
803.12	0.06
803.425	0.06
803.73	0.06
804.035	0.06
804.339	0.05
804.644	0.05
804.949	0.05
805.253	0.05
805.558	0.06
805.862	0.05
806.167	0.05
806.471	0.05
806.775	0.05
807.08	0.06
807.384	0.06
807.688	0.06
807.992	0.06
808.296	0.06
808.6	0.05
808.904	0.07
809.207	0.06
809.511	0.07
809.815	0.07
810.119	0.06
810.422	0.06
810.726	0.07
811.029	0.07
811.332	0.06
811.636	0.07
811.939	0.06
812.242	0.07
812.546	0.06
812.849	0.06
813.152	0.07
813.455	0.06
813.758	0.06
814.06	0.06
814.363	0.06
814.666	0.06
814.969	0.06
815.271	0.06
815.574	0.06
815.877	0.05
816.179	0.05
816.481	0.06
816.784	0.05
817.086	0.05
817.388	0.05
817.69	0.05
817.993	0.04
818.295	0.05
818.597	0.04
818.899	0.04
819.2	0.04
819.502	0.04
819.804	0.05
820.106	0.04
820.407	0.04
820.709	0.04
821.01	0.05
821.312	0.05
821.613	0.04
821.915	0.04
822.216	0.04
822.517	0.04
822.818	0.04
823.119	0.04
823.42	0.05
823.721	0.03
824.022	0.04
824.323	0.04
824.624	0.04
824.925	0.04
825.226	0.05
825.526	0.04
825.827	0.04
826.127	0.04
826.428	0.05
826.728	0.04
827.028	0.04
827.329	0.04
827.629	0.03
827.929	0.04
828.229	0.04
828.529	0.04
828.829	0.03
829.129	0.04
829.429	0.04
829.729	0.03
830.029	0.03
830.328	0.03
830.628	0.03
830.927	0.02
831.227	0.03
831.526	0.04
831.826	0.03
832.125	0.03
832.424	0.02
832.724	0.03
833.023	0.03
833.322	0.03
833.621	0.02
833.92	0.02
834.219	0.03
834.518	0.03
834.816	0.02
835.115	0.02
835.414	0.01
835.712	0.02
836.011	0.01
836.309	0.02
836.608	0.01
836.906	0.01
837.205	0.01
837.503	0.01
837.801	0.01
838.099	-0
838.397	-0.01
838.695	0
838.993	0
839.291	-0.01
839.589	-0.01
839.887	-0
840.184	-0.01
840.482	-0.01
840.78	-0
841.077	-0.01
841.375	-0.01
841.672	-0.01
841.969	-0.01
842.267	-0.01
842.564	-0.01
842.861	-0
843.158	-0.01
843.455	-0.03
843.752	-0.02
844.049	-0.02
844.346	-0.02
844.643	-0.03
844.94	-0.02
845.236	-0.01
845.533	-0.02
845.83	-0.02
846.126	-0.02
846.423	-0.02
846.719	-0.04
847.015	-0.03
847.312	-0.03
847.608	-0.04
847.904	-0.04
848.2	-0.03
848.496	-0.04
848.792	-0.03
849.088	-0.03
849.384	-0.04
849.68	-0.05
849.975	-0.04
850.271	-0.05
850.567	-0.05
850.862	-0.05
851.158	-0.06
851.453	-0.05
851.748	-0.06
852.044	-0.05
852.339	-0.05
852.634	-0.07
852.929	-0.05
853.224	-0.06
853.519	-0.07
853.814	-0.06
854.109	-0.07
854.404	-0.06
854.699	-0.07
854.994	-0.06
855.288	-0.06
855.583	-0.06
855.877	-0.07
856.172	-0.06
856.466	-0.06
856.76	-0.07
857.055	-0.06
857.349	-0.07
857.643	-0.08
857.937	-0.09
858.231	-0.08
858.525	-0.09
858.819	-0.08
859.113	-0.09
859.407	-0.09
859.701	-0.09
859.994	-0.1
860.288	-0.09
860.581	-0.1
860.875	-0.1
861.168	-0.1
861.462	-0.1
861.755	-0.09
862.048	-0.11
862.341	-0.1
862.634	-0.11
862.928	-0.11
863.221	-0.1
863.513	-0.12
863.806	-0.12
864.099	-0.12
864.392	-0.11
864.685	-0.11
864.977	-0.11
865.27	-0.12
865.562	-0.11
865.855	-0.11
866.147	-0.12
866.44	-0.11
866.732	-0.12
867.024	-0.12
867.316	-0.12
867.608	-0.13
867.9	-0.12
868.192	-0.14
868.484	-0.13
868.776	-0.13
869.068	-0.12
869.359	-0.13
869.651	-0.14
869.943	-0.15
870.234	-0.14
870.526	-0.14
870.817	-0.15
871.108	-0.13
871.4	-0.14
871.691	-0.14
871.982	-0.15
872.273	-0.16
872.564	-0.15
872.855	-0.15
873.146	-0.15
873.437	-0.15
873.728	-0.16
874.019	-0.16
874.309	-0.16
874.6	-0.15
874.89	-0.16
875.181	-0.16
875.471	-0.15
875.762	-0.15
876.052	-0.16
876.342	-0.15
876.632	-0.16
876.922	-0.17
877.213	-0.17
877.503	-0.18
877.792	-0.16
878.082	-0.17
878.372	-0.15
878.662	-0.18
878.952	-0.17
879.241	-0.17
879.531	-0.17
879.82	-0.16
880.11	-0.16
880.399	-0.16
880.688	-0.15
880.978	-0.15
881.267	-0.15
