Data from 12-12-AQDScycling_Absorbance__168__00168.txt Node

Date: Tue Dec 12 11:39:02 EST 2023
User: kyuminlee
Spectrometer: FLMS00943
Trigger mode: 0
Integration Time (sec): 1.000000E-1
Scans to average: 1
Electric dark correction enabled: true
Nonlinearity correction enabled: false
Boxcar width: 0
XAxis mode: Wavelengths
Number of Pixels in Spectrum: 2048
>>>>>Begin Spectral Data<<<<<
179.651	-0
180.037	-0
180.424	-0
180.81	-0.36
181.197	0.2
181.583	-0
181.97	-0.39
182.356	-0
182.743	-0.96
183.129	0.3
183.515	-0
183.901	-1.94
184.288	1.1
184.674	0.17
185.06	-0
185.446	-0
185.832	-0.91
186.218	0.65
186.604	-0
186.99	-0
187.376	-0
187.762	-0.37
188.148	0.14
188.534	-0.35
188.92	0.18
189.305	0.13
189.691	0.31
190.077	0.22
190.463	0.02
190.848	0.15
191.234	0.05
191.619	0.19
192.005	0.15
192.391	0.1
192.776	0.1
193.161	0.07
193.547	0.26
193.932	0.06
194.318	0.06
194.703	0.23
195.088	0.37
195.473	0.16
195.859	0.31
196.244	0.36
196.629	0.12
197.014	0.2
197.399	0.33
197.784	0.07
198.169	0.18
198.554	0.24
198.939	0.15
199.324	0.13
199.709	0.15
200.094	0.07
200.478	0.09
200.863	0.22
201.248	0.04
201.633	0.18
202.017	0.17
202.402	0.13
202.787	0.17
203.171	0.2
203.556	0.19
203.94	0.23
204.325	0.19
204.709	0.24
205.093	0.03
205.478	0.08
205.862	0.16
206.246	0.22
206.631	0.13
207.015	0.22
207.399	0.28
207.783	0.17
208.167	0.16
208.551	0.24
208.935	0.16
209.319	0.24
209.703	0.11
210.087	0.38
210.471	0.12
210.855	0.25
211.239	0.23
211.623	0.14
212.007	0.36
212.39	0.2
212.774	0.18
213.158	0.14
213.541	0.33
213.925	0.17
214.309	0.29
214.692	0.26
215.076	0.15
215.459	0.12
215.842	0.04
216.226	0.35
216.609	0.3
216.993	0.27
217.376	0.24
217.759	0.28
218.142	0.35
218.525	0.4
218.909	0.48
219.292	0.29
219.675	0.35
220.058	0.43
220.441	0.53
220.824	0.43
221.207	0.6
221.59	0.47
221.973	0.45
222.355	0.54
222.738	0.76
223.121	0.72
223.504	0.62
223.886	0.63
224.269	0.73
224.652	0.76
225.034	0.75
225.417	0.67
225.799	0.75
226.182	0.94
226.564	0.78
226.947	0.78
227.329	0.8
227.711	0.81
228.094	0.88
228.476	0.92
228.858	0.82
229.24	0.91
229.623	0.99
230.005	0.84
230.387	1.03
230.769	0.8
231.151	0.95
231.533	1.01
231.915	0.95
232.297	1.15
232.679	0.93
233.061	0.99
233.442	1.06
233.824	0.96
234.206	1.17
234.588	0.98
234.969	1.12
235.351	1.02
235.733	1.09
236.114	1.14
236.496	1.04
236.877	1.02
237.259	0.97
237.64	1.16
238.022	1.01
238.403	1.05
238.784	0.94
239.165	1.01
239.547	1.1
239.928	1.03
240.309	1.03
240.69	1.04
241.071	1.1
241.452	1.09
241.834	0.99
242.215	1.1
242.595	1.02
242.976	1.06
243.357	1.09
243.738	1.03
244.119	1.23
244.5	1.13
244.881	1.24
245.261	1.26
245.642	1.12
246.023	1.15
246.403	1.17
246.784	1.19
247.164	1.29
247.545	1.31
247.925	1.31
248.306	1.13
248.686	1.4
249.067	1.34
249.447	1.33
249.827	1.64
250.207	1.38
250.588	1.38
250.968	1.4
251.348	1.36
251.728	1.43
252.108	1.31
252.488	1.54
252.868	1.4
253.248	1.3
253.628	1.43
254.008	1.56
254.388	1.23
254.768	1.35
255.147	1.33
255.527	1.38
255.907	1.42
256.287	1.39
256.666	1.43
257.046	1.51
257.425	1.7
257.805	1.37
258.184	1.39
258.564	1.45
258.943	1.48
259.323	1.47
259.702	1.58
260.081	1.43
260.461	1.5
260.84	1.55
261.219	1.78
261.598	1.47
261.977	1.48
262.356	1.54
262.736	1.46
263.115	1.53
263.494	1.46
263.873	1.65
264.251	1.59
264.63	1.51
265.009	1.38
265.388	1.37
265.767	1.43
266.145	1.41
266.524	1.37
266.903	1.36
267.281	1.37
267.66	1.57
268.039	1.59
268.417	1.37
268.796	1.38
269.174	1.44
269.552	1.41
269.931	1.57
270.309	1.36
270.687	1.58
271.066	1.73
271.444	1.34
271.822	1.49
272.2	1.61
272.578	1.48
272.956	1.55
273.334	1.48
273.712	1.45
274.09	1.45
274.468	1.27
274.846	1.19
275.224	1.32
275.602	1.6
275.98	1.34
276.357	1.4
276.735	1.36
277.113	1.54
277.49	1.37
277.868	1.3
278.246	1.45
278.623	1.31
279.001	1.3
279.378	1.38
279.756	1.41
280.133	1.58
280.51	1.33
280.888	1.46
281.265	1.38
281.642	1.47
282.019	1.55
282.396	1.57
282.773	1.45
283.151	1.65
283.528	1.49
283.905	1.45
284.282	1.5
284.659	1.59
285.035	1.27
285.412	1.32
285.789	1.59
286.166	1.45
286.543	1.39
286.919	1.48
287.296	1.59
287.673	1.65
288.049	1.57
288.426	1.67
288.802	1.52
289.179	1.43
289.555	1.62
289.932	1.74
290.308	1.34
290.684	1.51
291.061	1.32
291.437	1.54
291.813	1.38
292.189	1.31
292.565	1.23
292.942	1.36
293.318	1.45
293.694	1.44
294.07	1.35
294.446	1.34
294.822	1.71
295.197	1.53
295.573	1.53
295.949	1.47
296.325	1.47
296.701	1.51
297.076	1.37
297.452	1.58
297.828	1.47
298.203	1.52
298.579	1.41
298.954	1.42
299.33	1.38
299.705	1.4
300.081	1.36
300.456	1.51
300.831	1.33
301.206	1.43
301.582	1.55
301.957	1.53
302.332	1.49
302.707	1.34
303.082	1.34
303.457	1.45
303.832	1.39
304.207	1.32
304.582	1.28
304.957	1.29
305.332	1.38
305.707	1.37
306.082	1.32
306.456	1.39
306.831	1.34
307.206	1.27
307.58	1.32
307.955	1.25
308.33	1.33
308.704	1.34
309.079	1.18
309.453	1.34
309.828	1.28
310.202	1.26
310.576	1.29
310.951	1.3
311.325	1.25
311.699	1.2
312.073	1.15
312.447	1.28
312.821	1.24
313.196	1.27
313.57	1.23
313.944	1.21
314.317	1.29
314.691	1.2
315.065	1.24
315.439	1.23
315.813	1.25
316.187	1.25
316.56	1.34
316.934	1.2
317.308	1.21
317.681	1.27
318.055	1.27
318.428	1.29
318.802	1.26
319.175	1.19
319.549	1.27
319.922	1.15
320.295	1.22
320.669	1.32
321.042	1.21
321.415	1.39
321.788	1.24
322.162	1.23
322.535	1.31
322.908	1.25
323.281	1.25
323.654	1.29
324.027	1.27
324.4	1.29
324.773	1.32
325.145	1.28
325.518	1.2
325.891	1.18
326.264	1.27
326.636	1.24
327.009	1.22
327.382	1.27
327.754	1.36
328.127	1.23
328.499	1.3
328.872	1.22
329.244	1.29
329.616	1.26
329.989	1.29
330.361	1.29
330.733	1.25
331.106	1.28
331.478	1.35
331.85	1.22
332.222	1.25
332.594	1.38
332.966	1.28
333.338	1.34
333.71	1.44
334.082	1.4
334.454	1.36
334.826	1.32
335.197	1.32
335.569	1.28
335.941	1.28
336.312	1.34
336.684	1.44
337.056	1.3
337.427	1.35
337.799	1.39
338.17	1.4
338.542	1.29
338.913	1.4
339.284	1.34
339.656	1.34
340.027	1.41
340.398	1.36
340.769	1.35
341.141	1.48
341.512	1.37
341.883	1.32
342.254	1.28
342.625	1.34
342.996	1.32
343.367	1.34
343.738	1.29
344.108	1.3
344.479	1.52
344.85	1.37
345.221	1.38
345.591	1.23
345.962	1.28
346.333	1.33
346.703	1.23
347.074	1.24
347.444	1.17
347.815	1.3
348.185	1.25
348.556	1.22
348.926	1.2
349.296	1.31
349.666	1.21
350.037	1.22
350.407	1.23
350.777	1.4
351.147	1.35
351.517	1.29
351.887	1.29
352.257	1.36
352.627	1.25
352.997	1.25
353.367	1.4
353.737	1.41
354.106	1.31
354.476	1.27
354.846	1.34
355.216	1.36
355.585	1.42
355.955	1.36
356.324	1.4
356.694	1.37
357.063	1.35
357.433	1.33
357.802	1.43
358.171	1.39
358.541	1.38
358.91	1.46
359.279	1.46
359.648	1.35
360.017	1.45
360.387	1.36
360.756	1.43
361.125	1.39
361.494	1.51
361.863	1.39
362.231	1.37
362.6	1.55
362.969	1.5
363.338	1.38
363.707	1.55
364.075	1.54
364.444	1.34
364.813	1.45
365.181	1.37
365.55	1.53
365.918	1.46
366.287	1.42
366.655	1.51
367.024	1.52
367.392	1.54
367.76	1.47
368.128	1.45
368.497	1.41
368.865	1.48
369.233	1.49
369.601	1.42
369.969	1.49
370.337	1.47
370.705	1.53
371.073	1.52
371.441	1.55
371.809	1.42
372.177	1.45
372.544	1.44
372.912	1.49
373.28	1.6
373.647	1.68
374.015	1.58
374.383	1.7
374.75	1.66
375.118	1.51
375.485	1.59
375.853	1.7
376.22	1.49
376.587	1.56
376.955	1.73
377.322	1.47
377.689	1.46
378.056	1.48
378.423	1.39
378.79	1.5
379.157	1.41
379.524	1.6
379.891	1.44
380.258	1.47
380.625	1.69
380.992	1.49
381.359	1.58
381.726	1.66
382.092	1.54
382.459	1.49
382.826	1.5
383.192	1.58
383.559	1.55
383.925	1.68
384.292	1.59
384.658	1.76
385.025	1.49
385.391	1.8
385.757	1.54
386.123	1.6
386.49	1.6
386.856	1.8
387.222	1.58
387.588	1.56
387.954	1.78
388.32	1.7
388.686	1.59
389.052	1.59
389.418	1.6
389.784	1.45
390.15	1.66
390.515	1.46
390.881	1.64
391.247	1.54
391.613	1.71
391.978	1.5
392.344	1.77
392.709	1.49
393.075	1.68
393.44	1.47
393.806	1.6
394.171	1.54
394.536	1.58
394.902	1.53
395.267	1.47
395.632	1.48
395.997	1.47
396.362	1.4
396.727	1.6
397.092	1.46
397.457	1.54
397.822	1.61
398.187	1.56
398.552	1.45
398.917	1.67
399.282	1.49
399.646	1.52
400.011	1.55
400.376	1.51
400.74	1.55
401.105	1.54
401.47	1.55
401.834	1.7
402.199	1.47
402.563	1.45
402.927	1.6
403.292	1.61
403.656	1.58
404.02	1.54
404.384	1.86
404.749	1.59
405.113	1.6
405.477	1.57
405.841	1.56
406.205	1.66
406.569	1.47
406.933	1.56
407.296	1.44
407.66	1.48
408.024	1.67
408.388	1.61
408.752	1.41
409.115	1.51
409.479	1.61
409.842	1.53
410.206	1.47
410.569	1.44
410.933	1.49
411.296	1.41
411.66	1.64
412.023	1.39
412.386	1.45
412.749	1.41
413.113	1.43
413.476	1.34
413.839	1.45
414.202	1.57
414.565	1.33
414.928	1.56
415.291	1.35
415.654	1.45
416.017	1.39
416.38	1.36
416.742	1.35
417.105	1.35
417.468	1.55
417.83	1.44
418.193	1.43
418.556	1.4
418.918	1.3
419.281	1.43
419.643	1.42
420.005	1.41
420.368	1.47
420.73	1.29
421.092	1.42
421.455	1.44
421.817	1.3
422.179	1.4
422.541	1.45
422.903	1.47
423.265	1.5
423.627	1.44
423.989	1.39
424.351	1.38
424.713	1.45
425.075	1.39
425.436	1.32
425.798	1.32
426.16	1.47
426.521	1.31
426.883	1.35
427.245	1.45
427.606	1.36
427.967	1.33
428.329	1.32
428.69	1.38
429.052	1.33
429.413	1.41
429.774	1.4
430.135	1.34
430.497	1.38
430.858	1.28
431.219	1.29
431.58	1.28
431.941	1.29
432.302	1.31
432.663	1.38
433.024	1.32
433.384	1.34
433.745	1.34
434.106	1.33
434.467	1.27
434.827	1.33
435.188	1.29
435.548	1.41
435.909	1.27
436.269	1.32
436.63	1.28
436.99	1.3
437.351	1.23
437.711	1.32
438.071	1.23
438.431	1.26
438.792	1.26
439.152	1.23
439.512	1.23
439.872	1.26
440.232	1.26
440.592	1.26
440.952	1.2
441.312	1.19
441.671	1.19
442.031	1.17
442.391	1.22
442.751	1.19
443.11	1.24
443.47	1.13
443.83	1.18
444.189	1.15
444.549	1.14
444.908	1.13
445.267	1.14
445.627	1.13
445.986	1.14
446.345	1.08
446.705	1.08
447.064	1.1
447.423	1.09
447.782	1.12
448.141	1.09
448.5	1.03
448.859	1.05
449.218	1.07
449.577	1.08
449.936	1.06
450.295	1.04
450.653	1.05
451.012	1.02
451.371	1.04
451.729	1.04
452.088	1.02
452.447	1.03
452.805	1
453.163	1.01
453.522	1
453.88	0.98
454.239	0.99
454.597	0.96
454.955	0.91
455.313	0.93
455.671	0.94
456.029	0.94
456.388	0.91
456.746	0.91
457.104	0.89
457.461	0.89
457.819	0.88
458.177	0.86
458.535	0.85
458.893	0.83
459.25	0.84
459.608	0.83
459.966	0.8
460.323	0.81
460.681	0.79
461.038	0.79
461.396	0.77
461.753	0.76
462.111	0.77
462.468	0.72
462.825	0.73
463.182	0.73
463.54	0.71
463.897	0.7
464.254	0.69
464.611	0.7
464.968	0.68
465.325	0.67
465.682	0.66
466.039	0.65
466.395	0.64
466.752	0.65
467.109	0.63
467.466	0.63
467.822	0.63
468.179	0.61
468.535	0.6
468.892	0.59
469.248	0.57
469.605	0.57
469.961	0.57
470.318	0.58
470.674	0.56
471.03	0.55
471.386	0.54
471.743	0.52
472.099	0.52
472.455	0.52
472.811	0.5
473.167	0.5
473.523	0.49
473.879	0.48
474.235	0.48
474.59	0.46
474.946	0.45
475.302	0.46
475.657	0.45
476.013	0.44
476.369	0.43
476.724	0.44
477.08	0.42
477.435	0.41
477.791	0.41
478.146	0.4
478.501	0.4
478.857	0.4
479.212	0.4
479.567	0.38
479.922	0.38
480.277	0.37
480.632	0.36
480.987	0.36
481.342	0.36
481.697	0.35
482.052	0.34
482.407	0.34
482.762	0.33
483.116	0.32
483.471	0.31
483.826	0.31
484.18	0.31
484.535	0.3
484.89	0.3
485.244	0.29
485.598	0.3
485.953	0.29
486.307	0.29
486.661	0.29
487.016	0.27
487.37	0.28
487.724	0.27
488.078	0.27
488.432	0.27
488.786	0.27
489.14	0.26
489.494	0.25
489.848	0.25
490.202	0.25
490.556	0.25
490.91	0.24
491.263	0.24
491.617	0.23
491.971	0.23
492.324	0.23
492.678	0.23
493.031	0.24
493.385	0.22
493.738	0.22
494.091	0.22
494.445	0.21
494.798	0.21
495.151	0.21
495.504	0.22
495.857	0.21
496.21	0.21
496.564	0.21
496.916	0.21
497.269	0.2
497.622	0.21
497.975	0.21
498.328	0.2
498.681	0.2
499.033	0.2
499.386	0.19
499.739	0.19
500.091	0.19
500.444	0.19
500.796	0.18
501.149	0.19
501.501	0.18
501.854	0.19
502.206	0.18
502.558	0.19
502.91	0.18
503.263	0.18
503.615	0.18
503.967	0.18
504.319	0.18
504.671	0.18
505.023	0.18
505.375	0.18
505.726	0.17
506.078	0.17
506.43	0.16
506.782	0.16
507.133	0.17
507.485	0.17
507.837	0.18
508.188	0.17
508.54	0.16
508.891	0.17
509.243	0.16
509.594	0.17
509.945	0.17
510.296	0.16
510.648	0.17
510.999	0.16
511.35	0.16
511.701	0.16
512.052	0.16
512.403	0.16
512.754	0.16
513.105	0.16
513.456	0.16
513.807	0.16
514.157	0.16
514.508	0.16
514.859	0.15
515.209	0.15
515.56	0.15
515.91	0.15
516.261	0.15
516.611	0.15
516.962	0.15
517.312	0.15
517.662	0.15
518.013	0.15
518.363	0.15
518.713	0.15
519.063	0.15
519.413	0.15
519.763	0.15
520.113	0.15
520.463	0.16
520.813	0.16
521.163	0.16
521.512	0.15
521.862	0.16
522.212	0.16
522.562	0.15
522.911	0.16
523.261	0.15
523.61	0.15
523.96	0.16
524.309	0.15
524.658	0.16
525.008	0.15
525.357	0.16
525.706	0.16
526.056	0.15
526.405	0.15
526.754	0.15
527.103	0.15
527.452	0.16
527.801	0.16
528.15	0.15
528.499	0.16
528.847	0.16
529.196	0.16
529.545	0.16
529.893	0.16
530.242	0.16
530.591	0.16
530.939	0.17
531.288	0.17
531.636	0.17
531.985	0.17
532.333	0.16
532.681	0.17
533.029	0.16
533.378	0.17
533.726	0.16
534.074	0.17
534.422	0.16
534.77	0.16
535.118	0.16
535.466	0.15
535.814	0.16
536.162	0.16
536.509	0.17
536.857	0.16
537.205	0.17
537.552	0.16
537.9	0.16
538.248	0.16
538.595	0.16
538.943	0.16
539.29	0.16
539.637	0.16
539.985	0.16
540.332	0.15
540.679	0.16
541.026	0.15
541.373	0.16
541.721	0.15
542.068	0.15
542.415	0.15
542.762	0.15
543.108	0.14
543.455	0.14
543.802	0.15
544.149	0.15
544.496	0.16
544.842	0.15
545.189	0.15
545.535	0.15
545.882	0.15
546.228	0.15
546.575	0.15
546.921	0.15
547.267	0.16
547.614	0.15
547.96	0.15
548.306	0.15
548.652	0.15
548.998	0.16
549.344	0.15
549.69	0.15
550.036	0.16
550.382	0.15
550.728	0.16
551.074	0.16
551.42	0.15
551.765	0.16
552.111	0.16
552.457	0.17
552.802	0.15
553.148	0.16
553.493	0.16
553.839	0.16
554.184	0.16
554.529	0.16
554.875	0.16
555.22	0.17
555.565	0.16
555.91	0.15
556.255	0.16
556.6	0.16
556.945	0.15
557.29	0.15
557.635	0.16
557.98	0.16
558.325	0.16
558.67	0.16
559.014	0.16
559.359	0.17
559.704	0.17
560.048	0.15
560.393	0.16
560.737	0.16
561.082	0.16
561.426	0.15
561.77	0.16
562.115	0.15
562.459	0.15
562.803	0.15
563.147	0.15
563.491	0.16
563.835	0.15
564.179	0.16
564.523	0.15
564.867	0.15
565.211	0.15
565.555	0.16
565.899	0.16
566.242	0.16
566.586	0.15
566.93	0.15
567.273	0.16
567.617	0.16
567.96	0.16
568.304	0.16
568.647	0.15
568.99	0.16
569.334	0.17
569.677	0.16
570.02	0.16
570.363	0.17
570.706	0.16
571.049	0.16
571.392	0.16
571.735	0.16
572.078	0.15
572.421	0.17
572.764	0.16
573.106	0.16
573.449	0.15
573.792	0.16
574.134	0.16
574.477	0.17
574.819	0.16
575.162	0.15
575.504	0.16
575.847	0.17
576.189	0.16
576.531	0.16
576.873	0.16
577.215	0.15
577.558	0.16
577.9	0.16
578.242	0.16
578.584	0.16
578.926	0.15
579.267	0.15
579.609	0.16
579.951	0.16
580.293	0.15
580.634	0.16
580.976	0.15
581.318	0.15
581.659	0.15
582.001	0.15
582.342	0.15
582.683	0.15
583.025	0.14
583.366	0.15
583.707	0.15
584.049	0.15
584.39	0.15
584.731	0.15
585.072	0.15
585.413	0.16
585.754	0.16
586.095	0.16
586.435	0.16
586.776	0.16
587.117	0.16
587.458	0.15
587.798	0.15
588.139	0.16
588.48	0.15
588.82	0.15
589.161	0.16
589.501	0.15
589.841	0.16
590.182	0.15
590.522	0.16
590.862	0.15
591.202	0.15
591.542	0.15
591.882	0.15
592.222	0.16
592.562	0.15
592.902	0.15
593.242	0.15
593.582	0.16
593.922	0.15
594.261	0.15
594.601	0.16
594.941	0.15
595.28	0.15
595.62	0.16
595.959	0.15
596.299	0.16
596.638	0.15
596.977	0.16
597.317	0.16
597.656	0.15
597.995	0.15
598.334	0.15
598.673	0.15
599.012	0.15
599.351	0.15
599.69	0.14
600.029	0.15
600.368	0.16
600.707	0.15
601.046	0.15
601.384	0.15
601.723	0.15
602.061	0.14
602.4	0.15
602.738	0.15
603.077	0.15
603.415	0.15
603.754	0.15
604.092	0.15
604.43	0.15
604.768	0.15
605.107	0.15
605.445	0.14
605.783	0.15
606.121	0.14
606.459	0.15
606.796	0.15
607.134	0.14
607.472	0.15
607.81	0.15
608.148	0.15
608.485	0.15
608.823	0.15
609.16	0.14
609.498	0.15
609.835	0.15
610.173	0.15
610.51	0.15
610.847	0.15
611.185	0.15
611.522	0.15
611.859	0.15
612.196	0.15
612.533	0.16
612.87	0.16
613.207	0.16
613.544	0.15
613.881	0.17
614.217	0.17
614.554	0.15
614.891	0.16
615.228	0.16
615.564	0.16
615.901	0.16
616.237	0.16
616.574	0.16
616.91	0.16
617.246	0.16
617.583	0.16
617.919	0.16
618.255	0.17
618.591	0.15
618.927	0.15
619.263	0.16
619.599	0.16
619.935	0.16
620.271	0.16
620.607	0.16
620.943	0.16
621.279	0.15
621.614	0.15
621.95	0.15
622.286	0.15
622.621	0.15
622.957	0.15
623.292	0.14
623.627	0.14
623.963	0.14
624.298	0.15
624.633	0.15
624.968	0.14
625.304	0.14
625.639	0.14
625.974	0.14
626.309	0.14
626.644	0.14
626.979	0.14
627.313	0.14
627.648	0.14
627.983	0.15
628.318	0.14
628.652	0.14
628.987	0.14
629.321	0.14
629.656	0.14
629.99	0.13
630.325	0.15
630.659	0.15
630.993	0.14
631.327	0.15
631.662	0.13
631.996	0.13
632.33	0.14
632.664	0.14
632.998	0.13
633.332	0.13
633.666	0.13
633.999	0.14
634.333	0.12
634.667	0.13
635.001	0.13
635.334	0.14
635.668	0.13
636.001	0.13
636.335	0.13
636.668	0.13
637.001	0.12
637.335	0.13
637.668	0.13
638.001	0.13
638.334	0.13
638.668	0.13
639.001	0.12
639.334	0.13
639.667	0.12
639.999	0.12
640.332	0.12
640.665	0.13
640.998	0.13
641.331	0.13
641.663	0.12
641.996	0.13
642.328	0.13
642.661	0.12
642.993	0.13
643.326	0.13
643.658	0.12
643.99	0.12
644.323	0.13
644.655	0.13
644.987	0.12
645.319	0.13
645.651	0.13
645.983	0.13
646.315	0.13
646.647	0.13
646.979	0.14
647.31	0.13
647.642	0.13
647.974	0.13
648.305	0.14
648.637	0.13
648.968	0.14
649.3	0.13
649.631	0.14
649.963	0.13
650.294	0.14
650.625	0.13
650.957	0.13
651.288	0.13
651.619	0.14
651.95	0.13
652.281	0.13
652.612	0.12
652.943	0.13
653.274	0.13
653.604	0.13
653.935	0.12
654.266	0.13
654.596	0.13
654.927	0.13
655.258	0.13
655.588	0.13
655.918	0.12
656.249	0.11
656.579	0.13
656.909	0.13
657.24	0.12
657.57	0.13
657.9	0.13
658.23	0.13
658.56	0.14
658.89	0.13
659.22	0.12
659.55	0.13
659.88	0.13
660.209	0.13
660.539	0.14
660.869	0.14
661.198	0.13
661.528	0.13
661.857	0.13
662.187	0.13
662.516	0.13
662.846	0.13
663.175	0.12
663.504	0.12
663.833	0.12
664.163	0.12
664.492	0.12
664.821	0.13
665.15	0.12
665.479	0.13
665.807	0.12
666.136	0.12
666.465	0.12
666.794	0.12
667.122	0.12
667.451	0.11
667.78	0.12
668.108	0.12
668.437	0.11
668.765	0.12
669.093	0.12
669.422	0.12
669.75	0.12
670.078	0.12
670.406	0.12
670.734	0.12
671.062	0.12
671.39	0.11
671.718	0.12
672.046	0.11
672.374	0.12
672.702	0.12
673.029	0.11
673.357	0.12
673.685	0.12
674.012	0.12
674.34	0.11
674.667	0.12
674.995	0.12
675.322	0.12
675.649	0.12
675.977	0.12
676.304	0.11
676.631	0.11
676.958	0.11
677.285	0.11
677.612	0.1
677.939	0.11
678.266	0.11
678.593	0.11
678.92	0.11
679.246	0.11
679.573	0.1
679.9	0.1
680.226	0.1
680.553	0.1
680.879	0.1
681.206	0.1
681.532	0.1
681.858	0.11
682.184	0.1
682.511	0.1
682.837	0.1
683.163	0.1
683.489	0.1
683.815	0.1
684.141	0.11
684.467	0.11
684.793	0.1
685.118	0.1
685.444	0.11
685.77	0.1
686.095	0.11
686.421	0.11
686.746	0.11
687.072	0.11
687.397	0.1
687.723	0.11
688.048	0.11
688.373	0.11
688.698	0.11
689.023	0.11
689.349	0.1
689.674	0.11
689.999	0.1
690.323	0.09
690.648	0.09
690.973	0.09
691.298	0.09
691.623	0.09
691.947	0.08
692.272	0.09
692.596	0.09
692.921	0.09
693.245	0.09
693.57	0.09
693.894	0.09
694.218	0.09
694.543	0.09
694.867	0.09
695.191	0.09
695.515	0.09
695.839	0.09
696.163	0.09
696.487	0.09
696.811	0.09
697.135	0.09
697.458	0.09
697.782	0.09
698.106	0.09
698.429	0.09
698.753	0.08
699.076	0.09
699.4	0.09
699.723	0.09
700.046	0.08
700.37	0.09
700.693	0.09
701.016	0.09
701.339	0.09
701.662	0.09
701.985	0.1
702.308	0.08
702.631	0.09
702.954	0.1
703.277	0.09
703.599	0.09
703.922	0.09
704.245	0.09
704.567	0.08
704.89	0.09
705.212	0.09
705.535	0.08
705.857	0.08
706.179	0.08
706.502	0.08
706.824	0.07
707.146	0.08
707.468	0.09
707.79	0.08
708.112	0.08
708.434	0.08
708.756	0.08
709.078	0.09
709.399	0.08
709.721	0.08
710.043	0.08
710.364	0.08
710.686	0.08
711.007	0.08
711.329	0.09
711.65	0.09
711.972	0.08
712.293	0.08
712.614	0.08
712.935	0.08
713.256	0.08
713.577	0.09
713.898	0.08
714.219	0.08
714.54	0.07
714.861	0.07
715.182	0.07
715.503	0.07
715.823	0.07
716.144	0.07
716.464	0.07
716.785	0.07
717.105	0.08
717.426	0.08
717.746	0.07
718.066	0.07
718.387	0.07
718.707	0.07
719.027	0.07
719.347	0.06
719.667	0.08
719.987	0.06
720.307	0.06
720.627	0.06
720.947	0.07
721.266	0.06
721.586	0.06
721.906	0.06
722.225	0.06
722.545	0.06
722.864	0.06
723.184	0.06
723.503	0.06
723.823	0.07
724.142	0.06
724.461	0.06
724.78	0.06
725.099	0.06
725.418	0.06
725.737	0.06
726.056	0.06
726.375	0.06
726.694	0.07
727.013	0.06
727.331	0.06
727.65	0.06
727.969	0.07
728.287	0.06
728.606	0.07
728.924	0.06
729.242	0.06
729.561	0.07
729.879	0.06
730.197	0.06
730.515	0.06
730.834	0.06
731.152	0.06
731.47	0.05
731.788	0.06
732.105	0.05
732.423	0.05
732.741	0.05
733.059	0.06
733.376	0.06
733.694	0.05
734.012	0.05
734.329	0.05
734.647	0.05
734.964	0.06
735.281	0.06
735.599	0.06
735.916	0.07
736.233	0.05
736.55	0.06
736.867	0.06
737.184	0.07
737.501	0.06
737.818	0.06
738.135	0.07
738.452	0.06
738.768	0.06
739.085	0.06
739.402	0.05
739.718	0.06
740.035	0.06
740.351	0.06
740.668	0.07
740.984	0.06
741.3	0.06
741.617	0.05
741.933	0.06
742.249	0.06
742.565	0.06
742.881	0.06
743.197	0.07
743.513	0.06
743.829	0.06
744.144	0.06
744.46	0.06
744.776	0.07
745.091	0.06
745.407	0.06
745.722	0.06
746.038	0.06
746.353	0.04
746.669	0.06
746.984	0.05
747.299	0.06
747.614	0.07
747.93	0.06
748.245	0.06
748.56	0.06
748.875	0.06
749.189	0.06
749.504	0.07
749.819	0.06
750.134	0.05
750.448	0.06
750.763	0.06
751.078	0.05
751.392	0.06
751.707	0.07
752.021	0.06
752.335	0.07
752.65	0.06
752.964	0.06
753.278	0.06
753.592	0.06
753.906	0.05
754.22	0.06
754.534	0.06
754.848	0.06
755.162	0.06
755.476	0.07
755.789	0.07
756.103	0.06
756.417	0.07
756.73	0.06
757.044	0.06
757.357	0.06
757.671	0.07
757.984	0.06
758.297	0.06
758.61	0.07
758.924	0.06
759.237	0.05
759.55	0.06
759.863	0.05
760.176	0.06
760.488	0.07
760.801	0.06
761.114	0.05
761.427	0.05
761.739	0.06
762.052	0.05
762.365	0.05
762.677	0.05
762.99	0.05
763.302	0.05
763.614	0.05
763.926	0.06
764.239	0.05
764.551	0.04
764.863	0.05
765.175	0.05
765.487	0.05
765.799	0.05
766.111	0.04
766.423	0.05
766.734	0.05
767.046	0.05
767.358	0.05
767.669	0.05
767.981	0.05
768.292	0.04
768.604	0.05
768.915	0.05
769.226	0.04
769.537	0.04
769.849	0.05
770.16	0.05
770.471	0.05
770.782	0.04
771.093	0.05
771.404	0.02
771.715	0.04
772.025	0.04
772.336	0.04
772.647	0.03
772.957	0.04
773.268	0.04
773.578	0.05
773.889	0.04
774.199	0.05
774.51	0.05
774.82	0.04
775.13	0.04
775.44	0.04
775.75	0.04
776.06	0.05
776.37	0.04
776.68	0.05
776.99	0.04
777.3	0.05
777.61	0.05
777.92	0.05
778.229	0.04
778.539	0.04
778.848	0.05
779.158	0.05
779.467	0.05
779.777	0.04
780.086	0.05
780.395	0.04
780.704	0.04
781.013	0.04
781.323	0.04
781.632	0.04
781.941	0.04
782.249	0.05
782.558	0.04
782.867	0.05
783.176	0.04
783.485	0.04
783.793	0.05
784.102	0.04
784.41	0.04
784.719	0.04
785.027	0.04
785.335	0.04
785.644	0.04
785.952	0.04
786.26	0.04
786.568	0.03
786.876	0.04
787.184	0.04
787.492	0.04
787.8	0.04
788.108	0.04
788.416	0.04
788.723	0.04
789.031	0.04
789.338	0.04
789.646	0.04
789.953	0.04
790.261	0.04
790.568	0.05
790.876	0.04
791.183	0.04
791.49	0.03
791.797	0.04
792.104	0.03
792.411	0.04
792.718	0.03
793.025	0.04
793.332	0.04
793.639	0.05
793.945	0.05
794.252	0.04
794.559	0.05
794.865	0.05
795.172	0.04
795.478	0.05
795.784	0.05
796.091	0.05
796.397	0.05
796.703	0.05
797.009	0.05
797.315	0.06
797.622	0.05
797.927	0.04
798.233	0.04
798.539	0.05
798.845	0.05
799.151	0.05
799.456	0.05
799.762	0.04
800.068	0.04
800.373	0.05
800.679	0.04
800.984	0.04
801.289	0.04
801.595	0.04
801.9	0.04
802.205	0.04
802.51	0.04
802.815	0.04
803.12	0.04
803.425	0.04
803.73	0.03
804.035	0.03
804.339	0.04
804.644	0.03
804.949	0.04
805.253	0.04
805.558	0.04
805.862	0.03
806.167	0.04
806.471	0.04
806.775	0.04
807.08	0.04
807.384	0.05
807.688	0.04
807.992	0.04
808.296	0.04
808.6	0.04
808.904	0.05
809.207	0.04
809.511	0.05
809.815	0.05
810.119	0.05
810.422	0.05
810.726	0.06
811.029	0.06
811.332	0.05
811.636	0.06
811.939	0.05
812.242	0.06
812.546	0.05
812.849	0.05
813.152	0.05
813.455	0.05
813.758	0.06
814.06	0.05
814.363	0.05
814.666	0.05
814.969	0.05
815.271	0.05
815.574	0.04
815.877	0.05
816.179	0.04
816.481	0.04
816.784	0.04
817.086	0.04
817.388	0.03
817.69	0.03
817.993	0.03
818.295	0.03
818.597	0.03
818.899	0.02
819.2	0.02
819.502	0.02
819.804	0.03
820.106	0.03
820.407	0.02
820.709	0.03
821.01	0.03
821.312	0.03
821.613	0.03
821.915	0.03
822.216	0.03
822.517	0.02
822.818	0.03
823.119	0.02
823.42	0.03
823.721	0.02
824.022	0.02
824.323	0.03
824.624	0.03
824.925	0.04
825.226	0.04
825.526	0.03
825.827	0.03
826.127	0.04
826.428	0.03
826.728	0.03
827.028	0.03
827.329	0.03
827.629	0.03
827.929	0.02
828.229	0.03
828.529	0.04
828.829	0.03
829.129	0.03
829.429	0.03
829.729	0.03
830.029	0.03
830.328	0.03
830.628	0.02
830.927	0.01
831.227	0.02
831.526	0.03
831.826	0.03
832.125	0.02
832.424	0.02
832.724	0.02
833.023	0.02
833.322	0.03
833.621	0.03
833.92	0.01
834.219	0.02
834.518	0.02
834.816	0.01
835.115	0.02
835.414	0.01
835.712	0.01
836.011	0.01
836.309	0.02
836.608	0.01
836.906	0.01
837.205	0.01
837.503	0.01
837.801	0.01
838.099	0
838.397	-0.01
838.695	-0.01
838.993	-0
839.291	-0.01
839.589	-0.01
839.887	-0.01
840.184	-0.01
840.482	-0.03
840.78	-0.02
841.077	-0.03
841.375	-0.02
841.672	-0.02
841.969	-0.03
842.267	-0.03
842.564	-0.03
842.861	-0.02
843.158	-0.03
843.455	-0.04
843.752	-0.04
844.049	-0.04
844.346	-0.04
844.643	-0.05
844.94	-0.04
845.236	-0.03
845.533	-0.05
845.83	-0.04
846.126	-0.05
846.423	-0.04
846.719	-0.06
847.015	-0.05
847.312	-0.05
847.608	-0.06
847.904	-0.06
848.2	-0.06
848.496	-0.06
848.792	-0.05
849.088	-0.04
849.384	-0.06
849.68	-0.06
849.975	-0.05
850.271	-0.07
850.567	-0.07
850.862	-0.07
851.158	-0.06
851.453	-0.06
851.748	-0.08
852.044	-0.07
852.339	-0.07
852.634	-0.08
852.929	-0.06
853.224	-0.07
853.519	-0.07
853.814	-0.07
854.109	-0.07
854.404	-0.08
854.699	-0.08
854.994	-0.07
855.288	-0.07
855.583	-0.08
855.877	-0.09
856.172	-0.08
856.466	-0.09
856.76	-0.09
857.055	-0.08
857.349	-0.1
857.643	-0.1
857.937	-0.1
858.231	-0.1
858.525	-0.1
858.819	-0.1
859.113	-0.11
859.407	-0.11
859.701	-0.12
859.994	-0.11
860.288	-0.11
860.581	-0.12
860.875	-0.12
861.168	-0.12
861.462	-0.12
861.755	-0.11
862.048	-0.13
862.341	-0.12
862.634	-0.12
862.928	-0.11
863.221	-0.13
863.513	-0.13
863.806	-0.13
864.099	-0.13
864.392	-0.13
864.685	-0.12
864.977	-0.13
865.27	-0.12
865.562	-0.13
865.855	-0.12
866.147	-0.13
866.44	-0.13
866.732	-0.13
867.024	-0.14
867.316	-0.14
867.608	-0.14
867.9	-0.14
868.192	-0.15
868.484	-0.14
868.776	-0.15
869.068	-0.15
869.359	-0.14
869.651	-0.15
869.943	-0.15
870.234	-0.15
870.526	-0.15
870.817	-0.17
871.108	-0.14
871.4	-0.15
871.691	-0.15
871.982	-0.16
872.273	-0.17
872.564	-0.16
872.855	-0.17
873.146	-0.17
873.437	-0.16
873.728	-0.17
874.019	-0.17
874.309	-0.17
874.6	-0.17
874.89	-0.17
875.181	-0.18
875.471	-0.17
875.762	-0.17
876.052	-0.17
876.342	-0.16
876.632	-0.18
876.922	-0.18
877.213	-0.17
877.503	-0.18
877.792	-0.17
878.082	-0.18
878.372	-0.17
878.662	-0.19
878.952	-0.19
879.241	-0.18
879.531	-0.18
879.82	-0.18
880.11	-0.18
880.399	-0.18
880.688	-0.18
880.978	-0.18
881.267	-0.18
