Data from 12-12-AQDScycling_Absorbance__506__00506.txt Node

Date: Tue Dec 12 13:03:14 EST 2023
User: kyuminlee
Spectrometer: FLMS00943
Trigger mode: 0
Integration Time (sec): 1.000000E-1
Scans to average: 1
Electric dark correction enabled: true
Nonlinearity correction enabled: false
Boxcar width: 0
XAxis mode: Wavelengths
Number of Pixels in Spectrum: 2048
>>>>>Begin Spectral Data<<<<<
179.651	0.14
180.037	0.14
180.424	0.14
180.81	-0.17
181.197	0.09
181.583	-0
181.97	-0.15
182.356	-0
182.743	-0
183.129	-0.12
183.515	0.6
183.901	-2.38
184.288	0.07
184.674	-0
185.06	-0.59
185.446	-0.44
185.832	-0
186.218	-0
186.604	-0
186.99	-0
187.376	0.05
187.762	-0
188.148	0.74
188.534	-0.25
188.92	0.05
189.305	0.05
189.691	0.12
190.077	0.16
190.463	0.03
190.848	0.27
191.234	-0.01
191.619	0.11
192.005	0.08
192.391	0.2
192.776	0.16
193.161	0.11
193.547	0.13
193.932	0.24
194.318	0.07
194.703	0.14
195.088	0.25
195.473	0.17
195.859	0.27
196.244	0.35
196.629	0.2
197.014	0.19
197.399	0.12
197.784	0.2
198.169	0.17
198.554	0.18
198.939	0.12
199.324	0.2
199.709	0.04
200.094	0.05
200.478	0.17
200.863	0.19
201.248	0.26
201.633	0.27
202.017	0.17
202.402	0.09
202.787	0.09
203.171	0.14
203.556	0.16
203.94	0.06
204.325	0.17
204.709	0.17
205.093	0.18
205.478	0.14
205.862	0.24
206.246	0.23
206.631	0.18
207.015	0.07
207.399	0.28
207.783	0.31
208.167	0.09
208.551	0.33
208.935	0.17
209.319	0.19
209.703	0.14
210.087	0.42
210.471	0.12
210.855	0.29
211.239	0.22
211.623	0.26
212.007	0.27
212.39	0.3
212.774	0.2
213.158	0.18
213.541	0.43
213.925	0.23
214.309	0.25
214.692	0.25
215.076	0.3
215.459	0.17
215.842	0.12
216.226	0.25
216.609	0.31
216.993	0.22
217.376	0.57
217.759	0.28
218.142	0.38
218.525	0.5
218.909	0.21
219.292	0.43
219.675	0.46
220.058	0.4
220.441	0.56
220.824	0.49
221.207	0.63
221.59	0.43
221.973	0.52
222.355	0.61
222.738	0.7
223.121	0.65
223.504	0.57
223.886	0.75
224.269	0.76
224.652	0.71
225.034	0.77
225.417	0.72
225.799	0.87
226.182	0.85
226.564	1.06
226.947	0.79
227.329	0.82
227.711	0.94
228.094	0.96
228.476	0.86
228.858	0.84
229.24	0.88
229.623	1.03
230.005	0.88
230.387	0.86
230.769	0.83
231.151	0.98
231.533	0.97
231.915	0.95
232.297	1.08
232.679	1.04
233.061	1.03
233.442	1.11
233.824	1.05
234.206	1.01
234.588	1.12
234.969	1
235.351	0.99
235.733	1.02
236.114	1.05
236.496	1.05
236.877	1.08
237.259	1.13
237.64	1.13
238.022	1.11
238.403	0.96
238.784	1.05
239.165	1.06
239.547	1.13
239.928	1.27
240.309	1.18
240.69	1.21
241.071	1.13
241.452	1.32
241.834	1.09
242.215	1.08
242.595	1.1
242.976	1.08
243.357	1.2
243.738	1.14
244.119	1.34
244.5	1.11
244.881	1.23
245.261	1.27
245.642	1.21
246.023	1.17
246.403	1.09
246.784	1.23
247.164	1.23
247.545	1.27
247.925	1.38
248.306	1.19
248.686	1.34
249.067	1.36
249.447	1.46
249.827	1.84
250.207	1.51
250.588	1.45
250.968	1.48
251.348	1.33
251.728	1.45
252.108	1.48
252.488	1.29
252.868	1.32
253.248	1.37
253.628	1.45
254.008	1.44
254.388	1.31
254.768	1.28
255.147	1.37
255.527	1.52
255.907	1.4
256.287	1.42
256.666	1.44
257.046	1.46
257.425	1.54
257.805	1.48
258.184	1.36
258.564	1.35
258.943	1.39
259.323	1.45
259.702	1.58
260.081	1.51
260.461	1.53
260.84	1.4
261.219	1.69
261.598	1.5
261.977	1.52
262.356	1.56
262.736	1.55
263.115	1.63
263.494	1.3
263.873	1.47
264.251	1.51
264.63	1.6
265.009	1.54
265.388	1.42
265.767	1.36
266.145	1.45
266.524	1.48
266.903	1.43
267.281	1.44
267.66	1.47
268.039	1.38
268.417	1.33
268.796	1.49
269.174	1.44
269.552	1.39
269.931	1.5
270.309	1.5
270.687	1.58
271.066	1.65
271.444	1.37
271.822	1.4
272.2	1.57
272.578	1.32
272.956	1.57
273.334	1.44
273.712	1.41
274.09	1.49
274.468	1.45
274.846	1.38
275.224	1.3
275.602	1.72
275.98	1.78
276.357	1.6
276.735	1.7
277.113	1.54
277.49	1.39
277.868	1.3
278.246	1.4
278.623	1.32
279.001	1.46
279.378	1.44
279.756	1.52
280.133	1.43
280.51	1.48
280.888	1.46
281.265	1.41
281.642	1.53
282.019	1.6
282.396	1.56
282.773	1.4
283.151	1.51
283.528	1.46
283.905	1.35
284.282	1.57
284.659	1.73
285.035	1.4
285.412	1.49
285.789	1.51
286.166	1.45
286.543	1.65
286.919	1.48
287.296	1.44
287.673	1.77
288.049	1.75
288.426	1.7
288.802	1.62
289.179	1.48
289.555	1.72
289.932	1.55
290.308	1.45
290.684	1.4
291.061	1.32
291.437	1.53
291.813	1.41
292.189	1.35
292.565	1.45
292.942	1.37
293.318	1.4
293.694	1.48
294.07	1.34
294.446	1.42
294.822	1.45
295.197	1.46
295.573	1.63
295.949	1.58
296.325	1.54
296.701	1.58
297.076	1.66
297.452	1.51
297.828	1.59
298.203	1.62
298.579	1.5
298.954	1.49
299.33	1.38
299.705	1.47
300.081	1.58
300.456	1.5
300.831	1.41
301.206	1.5
301.582	1.58
301.957	1.54
302.332	1.72
302.707	1.38
303.082	1.41
303.457	1.53
303.832	1.5
304.207	1.55
304.582	1.48
304.957	1.47
305.332	1.58
305.707	1.48
306.082	1.54
306.456	1.63
306.831	1.35
307.206	1.59
307.58	1.45
307.955	1.56
308.33	1.52
308.704	1.42
309.079	1.41
309.453	1.65
309.828	1.46
310.202	1.46
310.576	1.44
310.951	1.63
311.325	1.6
311.699	1.4
312.073	1.44
312.447	1.4
312.821	1.43
313.196	1.5
313.57	1.33
313.944	1.36
314.317	1.45
314.691	1.62
315.065	1.48
315.439	1.48
315.813	1.47
316.187	1.5
316.56	1.67
316.934	1.71
317.308	1.49
317.681	1.66
318.055	1.47
318.428	1.55
318.802	1.47
319.175	1.55
319.549	1.63
319.922	1.39
320.295	1.42
320.669	1.78
321.042	1.5
321.415	1.64
321.788	1.51
322.162	1.41
322.535	1.54
322.908	1.78
323.281	1.53
323.654	1.73
324.027	1.45
324.4	1.56
324.773	1.5
325.145	1.48
325.518	1.52
325.891	1.48
326.264	1.57
326.636	1.4
327.009	1.5
327.382	1.55
327.754	1.58
328.127	1.6
328.499	1.69
328.872	1.54
329.244	1.6
329.616	1.49
329.989	1.51
330.361	1.51
330.733	1.66
331.106	1.4
331.478	1.53
331.85	1.49
332.222	1.48
332.594	1.59
332.966	1.59
333.338	1.58
333.71	1.56
334.082	1.59
334.454	1.49
334.826	1.57
335.197	1.58
335.569	1.49
335.941	1.32
336.312	1.44
336.684	1.45
337.056	1.48
337.427	1.68
337.799	1.56
338.17	1.6
338.542	1.36
338.913	1.64
339.284	2.07
339.656	1.49
340.027	1.52
340.398	1.66
340.769	1.53
341.141	1.7
341.512	1.58
341.883	1.6
342.254	1.6
342.625	1.62
342.996	1.51
343.367	1.54
343.738	1.52
344.108	1.46
344.479	1.75
344.85	1.41
345.221	1.42
345.591	1.44
345.962	1.46
346.333	1.52
346.703	1.5
347.074	1.36
347.444	1.43
347.815	1.48
348.185	1.46
348.556	1.31
348.926	1.36
349.296	1.44
349.666	1.47
350.037	1.33
350.407	1.38
350.777	1.35
351.147	1.4
351.517	1.47
351.887	1.42
352.257	1.46
352.627	1.39
352.997	1.4
353.367	1.48
353.737	1.34
354.106	1.41
354.476	1.27
354.846	1.42
355.216	1.46
355.585	1.4
355.955	1.34
356.324	1.35
356.694	1.36
357.063	1.32
357.433	1.32
357.802	1.32
358.171	1.41
358.541	1.26
358.91	1.35
359.279	1.38
359.648	1.3
360.017	1.36
360.387	1.33
360.756	1.21
361.125	1.28
361.494	1.32
361.863	1.25
362.231	1.2
362.6	1.29
362.969	1.28
363.338	1.2
363.707	1.31
364.075	1.25
364.444	1.19
364.813	1.22
365.181	1.21
365.55	1.19
365.918	1.26
366.287	1.21
366.655	1.24
367.024	1.22
367.392	1.23
367.76	1.18
368.128	1.18
368.497	1.24
368.865	1.19
369.233	1.19
369.601	1.22
369.969	1.23
370.337	1.2
370.705	1.2
371.073	1.2
371.441	1.14
371.809	1.23
372.177	1.14
372.544	1.22
372.912	1.21
373.28	1.23
373.647	1.22
374.015	1.26
374.383	1.34
374.75	1.22
375.118	1.26
375.485	1.2
375.853	1.3
376.22	1.23
376.587	1.26
376.955	1.31
377.322	1.27
377.689	1.24
378.056	1.18
378.423	1.2
378.79	1.22
379.157	1.3
379.524	1.23
379.891	1.2
380.258	1.35
380.625	1.29
380.992	1.25
381.359	1.29
381.726	1.35
382.092	1.25
382.459	1.24
382.826	1.32
383.192	1.29
383.559	1.23
383.925	1.32
384.292	1.32
384.658	1.37
385.025	1.34
385.391	1.35
385.757	1.45
386.123	1.5
386.49	1.37
386.856	1.36
387.222	1.33
387.588	1.39
387.954	1.36
388.32	1.35
388.686	1.41
389.052	1.43
389.418	1.41
389.784	1.32
390.15	1.46
390.515	1.26
390.881	1.47
391.247	1.32
391.613	1.54
391.978	1.27
392.344	1.43
392.709	1.45
393.075	1.42
393.44	1.41
393.806	1.4
394.171	1.36
394.536	1.46
394.902	1.37
395.267	1.3
395.632	1.24
395.997	1.33
396.362	1.28
396.727	1.47
397.092	1.33
397.457	1.37
397.822	1.29
398.187	1.34
398.552	1.37
398.917	1.41
399.282	1.3
399.646	1.38
400.011	1.34
400.376	1.26
400.74	1.28
401.105	1.29
401.47	1.29
401.834	1.33
402.199	1.29
402.563	1.28
402.927	1.25
403.292	1.3
403.656	1.29
404.02	1.3
404.384	1.28
404.749	1.26
405.113	1.22
405.477	1.24
405.841	1.15
406.205	1.23
406.569	1.19
406.933	1.14
407.296	1.21
407.66	1.22
408.024	1.15
408.388	1.21
408.752	1.13
409.115	1.14
409.479	1.08
409.842	1.16
410.206	1.08
410.569	1.11
410.933	1.13
411.296	1.05
411.66	1.1
412.023	1.06
412.386	1.04
412.749	1.02
413.113	1.09
413.476	1.04
413.839	1.01
414.202	1.04
414.565	0.98
414.928	1.07
415.291	1.01
415.654	1.01
416.017	1.08
416.38	1.01
416.742	0.96
417.105	0.99
417.468	0.98
417.83	1.03
418.193	1.07
418.556	1
418.918	0.98
419.281	1.02
419.643	1.01
420.005	0.95
420.368	0.97
420.73	0.97
421.092	1
421.455	1
421.817	0.95
422.179	0.95
422.541	0.98
422.903	1.02
423.265	0.98
423.627	0.97
423.989	0.95
424.351	0.93
424.713	0.94
425.075	0.93
425.436	0.91
425.798	0.95
426.16	0.96
426.521	0.93
426.883	0.94
427.245	0.91
427.606	0.94
427.967	0.89
428.329	0.93
428.69	0.92
429.052	0.91
429.413	0.94
429.774	0.94
430.135	0.9
430.497	0.91
430.858	0.88
431.219	0.91
431.58	0.87
431.941	0.88
432.302	0.87
432.663	0.89
433.024	0.93
433.384	0.89
433.745	0.85
434.106	0.89
434.467	0.88
434.827	0.91
435.188	0.84
435.548	0.89
435.909	0.87
436.269	0.87
436.63	0.84
436.99	0.85
437.351	0.84
437.711	0.87
438.071	0.85
438.431	0.84
438.792	0.84
439.152	0.82
439.512	0.81
439.872	0.84
440.232	0.86
440.592	0.8
440.952	0.83
441.312	0.78
441.671	0.81
442.031	0.81
442.391	0.79
442.751	0.79
443.11	0.79
443.47	0.75
443.83	0.76
444.189	0.76
444.549	0.77
444.908	0.77
445.267	0.78
445.627	0.76
445.986	0.73
446.345	0.72
446.705	0.73
447.064	0.72
447.423	0.73
447.782	0.72
448.141	0.72
448.5	0.69
448.859	0.7
449.218	0.7
449.577	0.72
449.936	0.69
450.295	0.71
450.653	0.69
451.012	0.69
451.371	0.69
451.729	0.69
452.088	0.68
452.447	0.67
452.805	0.68
453.163	0.67
453.522	0.68
453.88	0.67
454.239	0.66
454.597	0.63
454.955	0.63
455.313	0.63
455.671	0.63
456.029	0.62
456.388	0.62
456.746	0.61
457.104	0.6
457.461	0.6
457.819	0.6
458.177	0.59
458.535	0.59
458.893	0.57
459.25	0.57
459.608	0.58
459.966	0.55
460.323	0.55
460.681	0.54
461.038	0.54
461.396	0.53
461.753	0.52
462.111	0.52
462.468	0.51
462.825	0.51
463.182	0.5
463.54	0.49
463.897	0.5
464.254	0.49
464.611	0.49
464.968	0.48
465.325	0.48
465.682	0.48
466.039	0.46
466.395	0.46
466.752	0.44
467.109	0.45
467.466	0.45
467.822	0.45
468.179	0.43
468.535	0.43
468.892	0.43
469.248	0.41
469.605	0.41
469.961	0.41
470.318	0.42
470.674	0.4
471.03	0.4
471.386	0.39
471.743	0.38
472.099	0.39
472.455	0.38
472.811	0.38
473.167	0.37
473.523	0.37
473.879	0.37
474.235	0.36
474.59	0.35
474.946	0.34
475.302	0.35
475.657	0.34
476.013	0.33
476.369	0.31
476.724	0.33
477.08	0.32
477.435	0.32
477.791	0.31
478.146	0.31
478.501	0.31
478.857	0.31
479.212	0.29
479.567	0.3
479.922	0.29
480.277	0.29
480.632	0.28
480.987	0.29
481.342	0.29
481.697	0.28
482.052	0.27
482.407	0.27
482.762	0.26
483.116	0.26
483.471	0.25
483.826	0.24
484.18	0.25
484.535	0.25
484.89	0.24
485.244	0.25
485.598	0.24
485.953	0.25
486.307	0.24
486.661	0.24
487.016	0.23
487.37	0.24
487.724	0.23
488.078	0.22
488.432	0.22
488.786	0.22
489.14	0.21
489.494	0.22
489.848	0.21
490.202	0.21
490.556	0.21
490.91	0.22
491.263	0.2
491.617	0.21
491.971	0.2
492.324	0.2
492.678	0.2
493.031	0.2
493.385	0.2
493.738	0.2
494.091	0.2
494.445	0.19
494.798	0.19
495.151	0.19
495.504	0.19
495.857	0.19
496.21	0.2
496.564	0.18
496.916	0.19
497.269	0.18
497.622	0.18
497.975	0.17
498.328	0.19
498.681	0.18
499.033	0.18
499.386	0.18
499.739	0.18
500.091	0.17
500.444	0.18
500.796	0.18
501.149	0.17
501.501	0.17
501.854	0.17
502.206	0.17
502.558	0.17
502.91	0.17
503.263	0.17
503.615	0.17
503.967	0.16
504.319	0.17
504.671	0.16
505.023	0.16
505.375	0.17
505.726	0.16
506.078	0.16
506.43	0.16
506.782	0.16
507.133	0.16
507.485	0.17
507.837	0.17
508.188	0.17
508.54	0.16
508.891	0.17
509.243	0.16
509.594	0.16
509.945	0.16
510.296	0.15
510.648	0.16
510.999	0.15
511.35	0.16
511.701	0.16
512.052	0.16
512.403	0.16
512.754	0.16
513.105	0.16
513.456	0.15
513.807	0.15
514.157	0.16
514.508	0.16
514.859	0.15
515.209	0.15
515.56	0.16
515.91	0.15
516.261	0.16
516.611	0.15
516.962	0.16
517.312	0.16
517.662	0.16
518.013	0.16
518.363	0.16
518.713	0.15
519.063	0.16
519.413	0.16
519.763	0.16
520.113	0.16
520.463	0.16
520.813	0.16
521.163	0.16
521.512	0.16
521.862	0.16
522.212	0.16
522.562	0.16
522.911	0.16
523.261	0.16
523.61	0.15
523.96	0.16
524.309	0.16
524.658	0.16
525.008	0.16
525.357	0.15
525.706	0.17
526.056	0.16
526.405	0.16
526.754	0.16
527.103	0.16
527.452	0.16
527.801	0.16
528.15	0.16
528.499	0.16
528.847	0.16
529.196	0.16
529.545	0.17
529.893	0.17
530.242	0.17
530.591	0.16
530.939	0.17
531.288	0.17
531.636	0.17
531.985	0.17
532.333	0.17
532.681	0.17
533.029	0.17
533.378	0.17
533.726	0.16
534.074	0.17
534.422	0.16
534.77	0.17
535.118	0.16
535.466	0.16
535.814	0.16
536.162	0.16
536.509	0.16
536.857	0.17
537.205	0.18
537.552	0.17
537.9	0.17
538.248	0.17
538.595	0.17
538.943	0.16
539.29	0.17
539.637	0.16
539.985	0.17
540.332	0.17
540.679	0.17
541.026	0.17
541.373	0.18
541.721	0.17
542.068	0.17
542.415	0.16
542.762	0.16
543.108	0.16
543.455	0.16
543.802	0.16
544.149	0.16
544.496	0.16
544.842	0.16
545.189	0.15
545.535	0.16
545.882	0.16
546.228	0.15
546.575	0.15
546.921	0.16
547.267	0.15
547.614	0.16
547.96	0.16
548.306	0.16
548.652	0.15
548.998	0.17
549.344	0.16
549.69	0.16
550.036	0.16
550.382	0.16
550.728	0.16
551.074	0.16
551.42	0.16
551.765	0.17
552.111	0.17
552.457	0.17
552.802	0.17
553.148	0.15
553.493	0.16
553.839	0.16
554.184	0.17
554.529	0.16
554.875	0.17
555.22	0.16
555.565	0.17
555.91	0.16
556.255	0.17
556.6	0.17
556.945	0.16
557.29	0.16
557.635	0.17
557.98	0.16
558.325	0.17
558.67	0.17
559.014	0.17
559.359	0.17
559.704	0.17
560.048	0.16
560.393	0.17
560.737	0.15
561.082	0.17
561.426	0.16
561.77	0.17
562.115	0.16
562.459	0.17
562.803	0.17
563.147	0.17
563.491	0.16
563.835	0.17
564.179	0.17
564.523	0.17
564.867	0.17
565.211	0.16
565.555	0.18
565.899	0.17
566.242	0.17
566.586	0.16
566.93	0.16
567.273	0.18
567.617	0.17
567.96	0.17
568.304	0.17
568.647	0.16
568.99	0.17
569.334	0.18
569.677	0.16
570.02	0.17
570.363	0.18
570.706	0.17
571.049	0.17
571.392	0.17
571.735	0.17
572.078	0.17
572.421	0.18
572.764	0.17
573.106	0.18
573.449	0.16
573.792	0.17
574.134	0.17
574.477	0.17
574.819	0.17
575.162	0.17
575.504	0.17
575.847	0.17
576.189	0.17
576.531	0.17
576.873	0.17
577.215	0.17
577.558	0.18
577.9	0.17
578.242	0.17
578.584	0.17
578.926	0.17
579.267	0.17
579.609	0.16
579.951	0.16
580.293	0.17
580.634	0.17
580.976	0.18
581.318	0.16
581.659	0.16
582.001	0.17
582.342	0.16
582.683	0.17
583.025	0.16
583.366	0.17
583.707	0.17
584.049	0.16
584.39	0.16
584.731	0.16
585.072	0.16
585.413	0.16
585.754	0.17
586.095	0.17
586.435	0.16
586.776	0.16
587.117	0.16
587.458	0.16
587.798	0.16
588.139	0.16
588.48	0.16
588.82	0.16
589.161	0.17
589.501	0.16
589.841	0.16
590.182	0.17
590.522	0.16
590.862	0.16
591.202	0.17
591.542	0.17
591.882	0.16
592.222	0.16
592.562	0.17
592.902	0.16
593.242	0.16
593.582	0.17
593.922	0.16
594.261	0.16
594.601	0.16
594.941	0.16
595.28	0.17
595.62	0.17
595.959	0.17
596.299	0.16
596.638	0.16
596.977	0.17
597.317	0.17
597.656	0.17
597.995	0.17
598.334	0.17
598.673	0.17
599.012	0.17
599.351	0.17
599.69	0.17
600.029	0.17
600.368	0.17
600.707	0.17
601.046	0.17
601.384	0.18
601.723	0.17
602.061	0.17
602.4	0.17
602.738	0.17
603.077	0.17
603.415	0.16
603.754	0.17
604.092	0.17
604.43	0.16
604.768	0.17
605.107	0.17
605.445	0.16
605.783	0.16
606.121	0.16
606.459	0.17
606.796	0.16
607.134	0.16
607.472	0.15
607.81	0.17
608.148	0.16
608.485	0.16
608.823	0.16
609.16	0.16
609.498	0.16
609.835	0.16
610.173	0.16
610.51	0.17
610.847	0.16
611.185	0.16
611.522	0.17
611.859	0.17
612.196	0.17
612.533	0.18
612.87	0.17
613.207	0.17
613.544	0.17
613.881	0.18
614.217	0.17
614.554	0.17
614.891	0.17
615.228	0.17
615.564	0.18
615.901	0.17
616.237	0.17
616.574	0.16
616.91	0.17
617.246	0.18
617.583	0.18
617.919	0.17
618.255	0.17
618.591	0.17
618.927	0.17
619.263	0.17
619.599	0.17
619.935	0.17
620.271	0.17
620.607	0.17
620.943	0.17
621.279	0.17
621.614	0.17
621.95	0.17
622.286	0.17
622.621	0.16
622.957	0.17
623.292	0.16
623.627	0.17
623.963	0.16
624.298	0.17
624.633	0.16
624.968	0.16
625.304	0.16
625.639	0.16
625.974	0.16
626.309	0.15
626.644	0.16
626.979	0.16
627.313	0.16
627.648	0.16
627.983	0.16
628.318	0.15
628.652	0.16
628.987	0.16
629.321	0.15
629.656	0.15
629.99	0.15
630.325	0.15
630.659	0.15
630.993	0.15
631.327	0.15
631.662	0.14
631.996	0.15
632.33	0.15
632.664	0.15
632.998	0.14
633.332	0.14
633.666	0.15
633.999	0.16
634.333	0.15
634.667	0.15
635.001	0.15
635.334	0.15
635.668	0.14
636.001	0.15
636.335	0.15
636.668	0.15
637.001	0.14
637.335	0.14
637.668	0.15
638.001	0.14
638.334	0.14
638.668	0.14
639.001	0.14
639.334	0.14
639.667	0.15
639.999	0.14
640.332	0.15
640.665	0.14
640.998	0.14
641.331	0.14
641.663	0.14
641.996	0.14
642.328	0.15
642.661	0.14
642.993	0.14
643.326	0.14
643.658	0.14
643.99	0.14
644.323	0.13
644.655	0.14
644.987	0.14
645.319	0.14
645.651	0.14
645.983	0.14
646.315	0.13
646.647	0.13
646.979	0.15
647.31	0.14
647.642	0.14
647.974	0.14
648.305	0.15
648.637	0.14
648.968	0.15
649.3	0.15
649.631	0.14
649.963	0.14
650.294	0.15
650.625	0.14
650.957	0.15
651.288	0.15
651.619	0.15
651.95	0.14
652.281	0.15
652.612	0.14
652.943	0.15
653.274	0.15
653.604	0.14
653.935	0.14
654.266	0.14
654.596	0.14
654.927	0.14
655.258	0.13
655.588	0.15
655.918	0.14
656.249	0.12
656.579	0.14
656.909	0.13
657.24	0.14
657.57	0.14
657.9	0.14
658.23	0.14
658.56	0.15
658.89	0.14
659.22	0.13
659.55	0.13
659.88	0.14
660.209	0.14
660.539	0.15
660.869	0.14
661.198	0.14
661.528	0.14
661.857	0.14
662.187	0.14
662.516	0.14
662.846	0.13
663.175	0.13
663.504	0.14
663.833	0.13
664.163	0.14
664.492	0.13
664.821	0.14
665.15	0.14
665.479	0.14
665.807	0.13
666.136	0.13
666.465	0.14
666.794	0.14
667.122	0.13
667.451	0.13
667.78	0.13
668.108	0.14
668.437	0.12
668.765	0.13
669.093	0.13
669.422	0.13
669.75	0.13
670.078	0.13
670.406	0.14
670.734	0.14
671.062	0.13
671.39	0.13
671.718	0.13
672.046	0.13
672.374	0.13
672.702	0.12
673.029	0.12
673.357	0.13
673.685	0.13
674.012	0.13
674.34	0.13
674.667	0.13
674.995	0.13
675.322	0.13
675.649	0.12
675.977	0.13
676.304	0.13
676.631	0.12
676.958	0.12
677.285	0.12
677.612	0.12
677.939	0.13
678.266	0.13
678.593	0.13
678.92	0.13
679.246	0.13
679.573	0.13
679.9	0.12
680.226	0.12
680.553	0.12
680.879	0.12
681.206	0.12
681.532	0.12
681.858	0.12
682.184	0.12
682.511	0.13
682.837	0.12
683.163	0.12
683.489	0.12
683.815	0.11
684.141	0.12
684.467	0.12
684.793	0.11
685.118	0.12
685.444	0.12
685.77	0.11
686.095	0.12
686.421	0.12
686.746	0.12
687.072	0.12
687.397	0.12
687.723	0.13
688.048	0.12
688.373	0.11
688.698	0.12
689.023	0.11
689.349	0.12
689.674	0.12
689.999	0.12
690.323	0.11
690.648	0.11
690.973	0.11
691.298	0.12
691.623	0.11
691.947	0.12
692.272	0.11
692.596	0.12
692.921	0.12
693.245	0.12
693.57	0.12
693.894	0.12
694.218	0.12
694.543	0.11
694.867	0.11
695.191	0.11
695.515	0.12
695.839	0.11
696.163	0.12
696.487	0.12
696.811	0.11
697.135	0.12
697.458	0.11
697.782	0.11
698.106	0.11
698.429	0.11
698.753	0.11
699.076	0.11
699.4	0.11
699.723	0.12
700.046	0.11
700.37	0.11
700.693	0.12
701.016	0.11
701.339	0.11
701.662	0.12
701.985	0.11
702.308	0.1
702.631	0.11
702.954	0.12
703.277	0.11
703.599	0.11
703.922	0.1
704.245	0.11
704.567	0.1
704.89	0.1
705.212	0.1
705.535	0.1
705.857	0.1
706.179	0.09
706.502	0.09
706.824	0.09
707.146	0.1
707.468	0.11
707.79	0.1
708.112	0.1
708.434	0.1
708.756	0.1
709.078	0.1
709.399	0.1
709.721	0.1
710.043	0.1
710.364	0.1
710.686	0.11
711.007	0.1
711.329	0.11
711.65	0.1
711.972	0.11
712.293	0.1
712.614	0.11
712.935	0.11
713.256	0.1
713.577	0.11
713.898	0.1
714.219	0.1
714.54	0.1
714.861	0.09
715.182	0.1
715.503	0.09
715.823	0.09
716.144	0.09
716.464	0.09
716.785	0.09
717.105	0.09
717.426	0.09
717.746	0.09
718.066	0.08
718.387	0.09
718.707	0.08
719.027	0.09
719.347	0.09
719.667	0.09
719.987	0.08
720.307	0.08
720.627	0.08
720.947	0.09
721.266	0.09
721.586	0.08
721.906	0.09
722.225	0.08
722.545	0.08
722.864	0.09
723.184	0.09
723.503	0.09
723.823	0.09
724.142	0.09
724.461	0.08
724.78	0.08
725.099	0.08
725.418	0.08
725.737	0.08
726.056	0.09
726.375	0.09
726.694	0.08
727.013	0.07
727.331	0.08
727.65	0.08
727.969	0.09
728.287	0.09
728.606	0.09
728.924	0.08
729.242	0.08
729.561	0.08
729.879	0.08
730.197	0.09
730.515	0.08
730.834	0.09
731.152	0.09
731.47	0.08
731.788	0.08
732.105	0.08
732.423	0.09
732.741	0.08
733.059	0.08
733.376	0.09
733.694	0.07
734.012	0.08
734.329	0.09
734.647	0.09
734.964	0.09
735.281	0.08
735.599	0.09
735.916	0.09
736.233	0.08
736.55	0.08
736.867	0.09
737.184	0.09
737.501	0.08
737.818	0.08
738.135	0.08
738.452	0.08
738.768	0.07
739.085	0.08
739.402	0.07
739.718	0.08
740.035	0.08
740.351	0.08
740.668	0.09
740.984	0.07
741.3	0.07
741.617	0.08
741.933	0.08
742.249	0.08
742.565	0.09
742.881	0.08
743.197	0.08
743.513	0.07
743.829	0.07
744.144	0.07
744.46	0.07
744.776	0.08
745.091	0.08
745.407	0.08
745.722	0.07
746.038	0.07
746.353	0.06
746.669	0.08
746.984	0.06
747.299	0.08
747.614	0.07
747.93	0.07
748.245	0.06
748.56	0.07
748.875	0.07
749.189	0.06
749.504	0.07
749.819	0.07
750.134	0.07
750.448	0.07
750.763	0.08
751.078	0.06
751.392	0.08
751.707	0.08
752.021	0.08
752.335	0.08
752.65	0.08
752.964	0.08
753.278	0.08
753.592	0.07
753.906	0.07
754.22	0.07
754.534	0.07
754.848	0.07
755.162	0.07
755.476	0.07
755.789	0.08
756.103	0.07
756.417	0.07
756.73	0.08
757.044	0.07
757.357	0.08
757.671	0.07
757.984	0.08
758.297	0.08
758.61	0.07
758.924	0.08
759.237	0.07
759.55	0.08
759.863	0.07
760.176	0.07
760.488	0.08
760.801	0.07
761.114	0.07
761.427	0.06
761.739	0.07
762.052	0.07
762.365	0.07
762.677	0.07
762.99	0.05
763.302	0.07
763.614	0.07
763.926	0.07
764.239	0.06
764.551	0.06
764.863	0.07
765.175	0.07
765.487	0.07
765.799	0.07
766.111	0.06
766.423	0.07
766.734	0.07
767.046	0.06
767.358	0.07
767.669	0.06
767.981	0.06
768.292	0.07
768.604	0.07
768.915	0.06
769.226	0.07
769.537	0.05
769.849	0.07
770.16	0.06
770.471	0.05
770.782	0.06
771.093	0.06
771.404	0.05
771.715	0.06
772.025	0.06
772.336	0.06
772.647	0.05
772.957	0.06
773.268	0.07
773.578	0.06
773.889	0.07
774.199	0.07
774.51	0.06
774.82	0.06
775.13	0.06
775.44	0.06
775.75	0.07
776.06	0.07
776.37	0.06
776.68	0.07
776.99	0.06
777.3	0.06
777.61	0.07
777.92	0.06
778.229	0.05
778.539	0.06
778.848	0.06
779.158	0.07
779.467	0.07
779.777	0.06
780.086	0.06
780.395	0.06
780.704	0.05
781.013	0.06
781.323	0.05
781.632	0.06
781.941	0.05
782.249	0.06
782.558	0.06
782.867	0.06
783.176	0.05
783.485	0.04
783.793	0.06
784.102	0.06
784.41	0.06
784.719	0.06
785.027	0.05
785.335	0.05
785.644	0.06
785.952	0.06
786.26	0.06
786.568	0.04
786.876	0.05
787.184	0.05
787.492	0.05
787.8	0.06
788.108	0.05
788.416	0.05
788.723	0.05
789.031	0.06
789.338	0.06
789.646	0.05
789.953	0.06
790.261	0.06
790.568	0.06
790.876	0.05
791.183	0.05
791.49	0.04
791.797	0.05
792.104	0.05
792.411	0.06
792.718	0.05
793.025	0.06
793.332	0.06
793.639	0.07
793.945	0.07
794.252	0.07
794.559	0.06
794.865	0.07
795.172	0.06
795.478	0.05
795.784	0.06
796.091	0.06
796.397	0.07
796.703	0.06
797.009	0.08
797.315	0.06
797.622	0.06
797.927	0.06
798.233	0.06
798.539	0.07
798.845	0.07
799.151	0.07
799.456	0.06
799.762	0.07
800.068	0.06
800.373	0.07
800.679	0.06
800.984	0.07
801.289	0.06
801.595	0.06
801.9	0.06
802.205	0.06
802.51	0.06
802.815	0.06
803.12	0.07
803.425	0.07
803.73	0.06
804.035	0.06
804.339	0.05
804.644	0.05
804.949	0.06
805.253	0.05
805.558	0.07
805.862	0.06
806.167	0.06
806.471	0.06
806.775	0.06
807.08	0.07
807.384	0.06
807.688	0.05
807.992	0.05
808.296	0.04
808.6	0.06
808.904	0.06
809.207	0.05
809.511	0.06
809.815	0.07
810.119	0.06
810.422	0.07
810.726	0.07
811.029	0.07
811.332	0.07
811.636	0.07
811.939	0.07
812.242	0.07
812.546	0.07
812.849	0.07
813.152	0.07
813.455	0.07
813.758	0.07
814.06	0.07
814.363	0.07
814.666	0.08
814.969	0.08
815.271	0.08
815.574	0.07
815.877	0.07
816.179	0.07
816.481	0.07
816.784	0.06
817.086	0.06
817.388	0.05
817.69	0.05
817.993	0.04
818.295	0.05
818.597	0.05
818.899	0.05
819.2	0.04
819.502	0.05
819.804	0.05
820.106	0.05
820.407	0.05
820.709	0.05
821.01	0.05
821.312	0.05
821.613	0.04
821.915	0.04
822.216	0.04
822.517	0.03
822.818	0.04
823.119	0.04
823.42	0.04
823.721	0.03
824.022	0.04
824.323	0.04
824.624	0.05
824.925	0.05
825.226	0.04
825.526	0.04
825.827	0.04
826.127	0.04
826.428	0.05
826.728	0.04
827.028	0.04
827.329	0.04
827.629	0.04
827.929	0.05
828.229	0.04
828.529	0.05
828.829	0.05
829.129	0.04
829.429	0.04
829.729	0.04
830.029	0.03
830.328	0.04
830.628	0.03
830.927	0.03
831.227	0.03
831.526	0.04
831.826	0.03
832.125	0.03
832.424	0.03
832.724	0.03
833.023	0.03
833.322	0.03
833.621	0.03
833.92	0.03
834.219	0.03
834.518	0.02
834.816	0.02
835.115	0.03
835.414	0.02
835.712	0.03
836.011	0.02
836.309	0.02
836.608	0.02
836.906	0.02
837.205	0.01
837.503	0
837.801	0.01
838.099	0.01
838.397	-0
838.695	0
838.993	0.01
839.291	-0
839.589	-0
839.887	-0
840.184	-0.01
840.482	0
840.78	-0
841.077	-0.01
841.375	-0
841.672	-0
841.969	-0.01
842.267	-0.01
842.564	-0.01
842.861	-0
843.158	-0.01
843.455	-0.02
843.752	-0.01
844.049	-0.02
844.346	-0.02
844.643	-0.03
844.94	-0.02
845.236	-0.01
845.533	-0.02
845.83	-0.02
846.126	-0.02
846.423	-0.02
846.719	-0.03
847.015	-0.03
847.312	-0.03
847.608	-0.03
847.904	-0.04
848.2	-0.04
848.496	-0.04
848.792	-0.03
849.088	-0.03
849.384	-0.04
849.68	-0.05
849.975	-0.03
850.271	-0.05
850.567	-0.05
850.862	-0.05
851.158	-0.05
851.453	-0.04
851.748	-0.05
852.044	-0.05
852.339	-0.05
852.634	-0.06
852.929	-0.05
853.224	-0.05
853.519	-0.05
853.814	-0.04
854.109	-0.06
854.404	-0.05
854.699	-0.05
854.994	-0.05
855.288	-0.05
855.583	-0.06
855.877	-0.06
856.172	-0.06
856.466	-0.06
856.76	-0.07
857.055	-0.07
857.349	-0.08
857.643	-0.08
857.937	-0.09
858.231	-0.09
858.525	-0.1
858.819	-0.1
859.113	-0.11
859.407	-0.11
859.701	-0.11
859.994	-0.11
860.288	-0.09
860.581	-0.11
860.875	-0.1
861.168	-0.1
861.462	-0.1
861.755	-0.09
862.048	-0.1
862.341	-0.1
862.634	-0.11
862.928	-0.1
863.221	-0.11
863.513	-0.1
863.806	-0.11
864.099	-0.11
864.392	-0.11
864.685	-0.11
864.977	-0.11
865.27	-0.12
865.562	-0.11
865.855	-0.1
866.147	-0.12
866.44	-0.11
866.732	-0.12
867.024	-0.12
867.316	-0.12
867.608	-0.13
867.9	-0.12
868.192	-0.13
868.484	-0.12
868.776	-0.13
869.068	-0.13
869.359	-0.12
869.651	-0.12
869.943	-0.15
870.234	-0.14
870.526	-0.15
870.817	-0.14
871.108	-0.13
871.4	-0.13
871.691	-0.14
871.982	-0.16
872.273	-0.16
872.564	-0.16
872.855	-0.15
873.146	-0.16
873.437	-0.16
873.728	-0.16
874.019	-0.16
874.309	-0.17
874.6	-0.16
874.89	-0.17
875.181	-0.15
875.471	-0.15
875.762	-0.16
876.052	-0.15
876.342	-0.14
876.632	-0.16
876.922	-0.17
877.213	-0.16
877.503	-0.17
877.792	-0.16
878.082	-0.17
878.372	-0.15
878.662	-0.19
878.952	-0.17
879.241	-0.17
879.531	-0.17
879.82	-0.16
880.11	-0.16
880.399	-0.15
880.688	-0.15
880.978	-0.15
881.267	-0.15
