Data from 12-12-AQDScycling_Absorbance__591__00591.txt Node

Date: Tue Dec 12 13:24:29 EST 2023
User: kyuminlee
Spectrometer: FLMS00943
Trigger mode: 0
Integration Time (sec): 1.000000E-1
Scans to average: 1
Electric dark correction enabled: true
Nonlinearity correction enabled: false
Boxcar width: 0
XAxis mode: Wavelengths
Number of Pixels in Spectrum: 2048
>>>>>Begin Spectral Data<<<<<
179.651	0.3
180.037	0.3
180.424	0.3
180.81	0.42
181.197	0.1
181.583	-0.41
181.97	-0.39
182.356	-0
182.743	-0
183.129	0.42
183.515	0.12
183.901	-1.86
184.288	0.37
184.674	0.56
185.06	-0.5
185.446	-0
185.832	-1.16
186.218	0.19
186.604	0.17
186.99	-0
187.376	-0
187.762	-0.02
188.148	0.83
188.534	0.03
188.92	0.01
189.305	-0.04
189.691	0.15
190.077	0.09
190.463	0.18
190.848	0.07
191.234	0.03
191.619	0.07
192.005	0.01
192.391	0.05
192.776	0.08
193.161	0.16
193.547	0.2
193.932	-0.06
194.318	0.08
194.703	0.09
195.088	0.36
195.473	0.09
195.859	0.17
196.244	0.15
196.629	0.17
197.014	0.04
197.399	0.23
197.784	0.12
198.169	0.01
198.554	0.22
198.939	0.09
199.324	0.01
199.709	0.02
200.094	0.03
200.478	0.05
200.863	0.28
201.248	0.2
201.633	0.1
202.017	0.18
202.402	0.15
202.787	0.11
203.171	0.07
203.556	0.12
203.94	0.14
204.325	0.16
204.709	0.3
205.093	0.09
205.478	0.08
205.862	0.13
206.246	0.1
206.631	0.11
207.015	0.11
207.399	0.12
207.783	0.12
208.167	0.16
208.551	0.23
208.935	0.25
209.319	0.09
209.703	0.06
210.087	0.26
210.471	0.09
210.855	0.06
211.239	0.19
211.623	0.33
212.007	0.29
212.39	0.28
212.774	0.12
213.158	0.17
213.541	0.18
213.925	0.25
214.309	0.29
214.692	0.28
215.076	0.25
215.459	0.04
215.842	0.11
216.226	0.34
216.609	0.4
216.993	0.18
217.376	0.31
217.759	0.12
218.142	0.32
218.525	0.53
218.909	0.26
219.292	0.36
219.675	0.4
220.058	0.35
220.441	0.39
220.824	0.42
221.207	0.59
221.59	0.52
221.973	0.47
222.355	0.57
222.738	0.7
223.121	0.5
223.504	0.57
223.886	0.69
224.269	0.65
224.652	0.65
225.034	0.71
225.417	0.72
225.799	0.76
226.182	0.81
226.564	0.76
226.947	0.85
227.329	0.86
227.711	1.12
228.094	1
228.476	0.88
228.858	0.79
229.24	0.76
229.623	0.88
230.005	0.88
230.387	0.98
230.769	0.8
231.151	1
231.533	0.93
231.915	0.93
232.297	0.97
232.679	0.84
233.061	1.14
233.442	1.01
233.824	0.93
234.206	1.16
234.588	1.06
234.969	1.03
235.351	0.96
235.733	1.14
236.114	1.22
236.496	1.01
236.877	1.1
237.259	1.09
237.64	1
238.022	0.89
238.403	0.97
238.784	1.04
239.165	0.92
239.547	1.03
239.928	1
240.309	0.92
240.69	1.05
241.071	1.14
241.452	1.1
241.834	1.05
242.215	1.02
242.595	0.96
242.976	1.19
243.357	1.09
243.738	0.95
244.119	1.28
244.5	1.08
244.881	1.32
245.261	1.25
245.642	1.23
246.023	1.13
246.403	1.18
246.784	1.13
247.164	1.26
247.545	1.18
247.925	1.26
248.306	1.15
248.686	1.4
249.067	1.24
249.447	1.32
249.827	1.45
250.207	1.4
250.588	1.26
250.968	1.33
251.348	1.22
251.728	1.37
252.108	1.33
252.488	1.31
252.868	1.33
253.248	1.26
253.628	1.33
254.008	1.27
254.388	1.29
254.768	1.4
255.147	1.29
255.527	1.44
255.907	1.34
256.287	1.45
256.666	1.26
257.046	1.36
257.425	1.44
257.805	1.35
258.184	1.22
258.564	1.34
258.943	1.25
259.323	1.31
259.702	1.41
260.081	1.42
260.461	1.5
260.84	1.37
261.219	1.54
261.598	1.52
261.977	1.47
262.356	1.56
262.736	1.6
263.115	1.53
263.494	1.35
263.873	1.44
264.251	1.56
264.63	1.47
265.009	1.4
265.388	1.47
265.767	1.36
266.145	1.41
266.524	1.42
266.903	1.47
267.281	1.4
267.66	1.57
268.039	1.5
268.417	1.4
268.796	1.49
269.174	1.43
269.552	1.27
269.931	1.52
270.309	1.41
270.687	1.56
271.066	1.45
271.444	1.32
271.822	1.4
272.2	1.44
272.578	1.39
272.956	1.35
273.334	1.31
273.712	1.39
274.09	1.32
274.468	1.44
274.846	1.32
275.224	1.25
275.602	1.55
275.98	1.42
276.357	1.41
276.735	1.39
277.113	1.35
277.49	1.38
277.868	1.24
278.246	1.42
278.623	1.32
279.001	1.3
279.378	1.34
279.756	1.49
280.133	1.42
280.51	1.34
280.888	1.49
281.265	1.27
281.642	1.47
282.019	1.48
282.396	1.51
282.773	1.44
283.151	1.46
283.528	1.54
283.905	1.47
284.282	1.42
284.659	1.51
285.035	1.32
285.412	1.26
285.789	1.42
286.166	1.42
286.543	1.41
286.919	1.51
287.296	1.29
287.673	1.85
288.049	1.65
288.426	1.51
288.802	1.47
289.179	1.37
289.555	1.62
289.932	1.47
290.308	1.32
290.684	1.33
291.061	1.28
291.437	1.55
291.813	1.34
292.189	1.17
292.565	1.27
292.942	1.32
293.318	1.24
293.694	1.23
294.07	1.38
294.446	1.45
294.822	1.57
295.197	1.33
295.573	1.42
295.949	1.35
296.325	1.51
296.701	1.55
297.076	1.46
297.452	1.45
297.828	1.41
298.203	1.43
298.579	1.28
298.954	1.38
299.33	1.29
299.705	1.27
300.081	1.33
300.456	1.26
300.831	1.2
301.206	1.24
301.582	1.28
301.957	1.18
302.332	1.26
302.707	1.13
303.082	1.13
303.457	1.12
303.832	1.11
304.207	1.04
304.582	1.07
304.957	1.03
305.332	1.06
305.707	1.03
306.082	1.04
306.456	1
306.831	0.96
307.206	0.95
307.58	0.93
307.955	0.94
308.33	0.9
308.704	0.88
309.079	0.88
309.453	0.88
309.828	0.83
310.202	0.82
310.576	0.81
310.951	0.81
311.325	0.78
311.699	0.74
312.073	0.74
312.447	0.74
312.821	0.73
313.196	0.73
313.57	0.69
313.944	0.68
314.317	0.68
314.691	0.68
315.065	0.69
315.439	0.68
315.813	0.69
316.187	0.65
316.56	0.66
316.934	0.65
317.308	0.63
317.681	0.62
318.055	0.62
318.428	0.62
318.802	0.65
319.175	0.6
319.549	0.59
319.922	0.61
320.295	0.62
320.669	0.61
321.042	0.6
321.415	0.62
321.788	0.58
322.162	0.57
322.535	0.57
322.908	0.58
323.281	0.58
323.654	0.56
324.027	0.56
324.4	0.56
324.773	0.58
325.145	0.58
325.518	0.54
325.891	0.57
326.264	0.57
326.636	0.55
327.009	0.57
327.382	0.56
327.754	0.59
328.127	0.58
328.499	0.6
328.872	0.6
329.244	0.6
329.616	0.59
329.989	0.6
330.361	0.59
330.733	0.61
331.106	0.57
331.478	0.59
331.85	0.63
332.222	0.59
332.594	0.63
332.966	0.63
333.338	0.65
333.71	0.68
334.082	0.71
334.454	0.67
334.826	0.68
335.197	0.68
335.569	0.7
335.941	0.69
336.312	0.75
336.684	0.72
337.056	0.76
337.427	0.79
337.799	0.74
338.17	0.76
338.542	0.75
338.913	0.76
339.284	0.81
339.656	0.8
340.027	0.8
340.398	0.84
340.769	0.83
341.141	0.87
341.512	0.86
341.883	0.85
342.254	0.88
342.625	0.92
342.996	0.9
343.367	0.92
343.738	0.97
344.108	0.94
344.479	0.94
344.85	0.94
345.221	1.05
345.591	1
345.962	0.99
346.333	1.09
346.703	1.03
347.074	1
347.444	1.08
347.815	1.06
348.185	1.08
348.556	1.07
348.926	1.06
349.296	1.13
349.666	1.14
350.037	1.1
350.407	1.07
350.777	1.12
351.147	1.22
351.517	1.18
351.887	1.2
352.257	1.27
352.627	1.19
352.997	1.15
353.367	1.33
353.737	1.3
354.106	1.3
354.476	1.19
354.846	1.38
355.216	1.39
355.585	1.44
355.955	1.4
356.324	1.46
356.694	1.48
357.063	1.42
357.433	1.35
357.802	1.43
358.171	1.42
358.541	1.46
358.91	1.5
359.279	1.57
359.648	1.5
360.017	1.55
360.387	1.52
360.756	1.39
361.125	1.46
361.494	1.59
361.863	1.52
362.231	1.51
362.6	1.58
362.969	1.51
363.338	1.43
363.707	1.65
364.075	1.65
364.444	1.43
364.813	1.51
365.181	1.47
365.55	1.53
365.918	1.63
366.287	1.49
366.655	1.68
367.024	1.57
367.392	1.73
367.76	1.51
368.128	1.64
368.497	1.5
368.865	1.52
369.233	1.53
369.601	1.46
369.969	1.51
370.337	1.53
370.705	1.48
371.073	1.54
371.441	1.56
371.809	1.53
372.177	1.46
372.544	1.59
372.912	1.5
373.28	1.52
373.647	1.64
374.015	1.57
374.383	1.8
374.75	1.61
375.118	1.51
375.485	1.61
375.853	1.78
376.22	1.55
376.587	1.62
376.955	1.55
377.322	1.58
377.689	1.45
378.056	1.39
378.423	1.46
378.79	1.64
379.157	1.51
379.524	1.54
379.891	1.46
380.258	1.54
380.625	1.54
380.992	1.53
381.359	1.59
381.726	1.75
382.092	1.48
382.459	1.53
382.826	1.54
383.192	1.76
383.559	1.44
383.925	1.53
384.292	1.46
384.658	1.61
385.025	1.5
385.391	1.7
385.757	1.57
386.123	1.7
386.49	1.65
386.856	1.62
387.222	1.58
387.588	1.71
387.954	1.67
388.32	1.62
388.686	1.54
389.052	1.6
389.418	1.61
389.784	1.49
390.15	1.54
390.515	1.37
390.881	1.75
391.247	1.44
391.613	1.52
391.978	1.5
392.344	1.67
392.709	1.62
393.075	1.56
393.44	1.51
393.806	1.61
394.171	1.37
394.536	1.43
394.902	1.46
395.267	1.5
395.632	1.41
395.997	1.46
396.362	1.5
396.727	1.57
397.092	1.45
397.457	1.63
397.822	1.47
398.187	1.59
398.552	1.54
398.917	1.64
399.282	1.48
399.646	1.4
400.011	1.54
400.376	1.47
400.74	1.51
401.105	1.56
401.47	1.53
401.834	1.54
402.199	1.47
402.563	1.46
402.927	1.4
403.292	1.52
403.656	1.62
404.02	1.53
404.384	1.56
404.749	1.49
405.113	1.53
405.477	1.59
405.841	1.52
406.205	1.57
406.569	1.57
406.933	1.56
407.296	1.51
407.66	1.51
408.024	1.64
408.388	1.69
408.752	1.82
409.115	1.88
409.479	1.63
409.842	1.52
410.206	1.55
410.569	1.5
410.933	1.65
411.296	1.45
411.66	1.62
412.023	1.53
412.386	1.57
412.749	1.42
413.113	1.71
413.476	1.46
413.839	1.52
414.202	1.67
414.565	1.43
414.928	1.37
415.291	1.38
415.654	1.41
416.017	1.52
416.38	1.51
416.742	1.43
417.105	1.43
417.468	1.52
417.83	1.64
418.193	1.78
418.556	1.45
418.918	1.45
419.281	1.58
419.643	1.56
420.005	1.47
420.368	1.5
420.73	1.48
421.092	1.5
421.455	1.68
421.817	1.4
422.179	1.39
422.541	1.56
422.903	1.55
423.265	1.67
423.627	1.49
423.989	1.55
424.351	1.49
424.713	1.57
425.075	1.46
425.436	1.52
425.798	1.44
426.16	1.56
426.521	1.55
426.883	1.55
427.245	1.51
427.606	1.47
427.967	1.38
428.329	1.57
428.69	1.59
429.052	1.46
429.413	1.69
429.774	1.58
430.135	1.58
430.497	1.74
430.858	1.49
431.219	1.58
431.58	1.54
431.941	1.5
432.302	1.55
432.663	1.53
433.024	1.61
433.384	1.63
433.745	1.46
434.106	1.53
434.467	1.65
434.827	1.4
435.188	1.45
435.548	1.69
435.909	1.49
436.269	1.59
436.63	1.43
436.99	1.48
437.351	1.46
437.711	1.54
438.071	1.52
438.431	1.47
438.792	1.53
439.152	1.54
439.512	1.47
439.872	1.39
440.232	1.56
440.592	1.58
440.952	1.55
441.312	1.42
441.671	1.54
442.031	1.47
442.391	1.47
442.751	1.45
443.11	1.44
443.47	1.51
443.83	1.45
444.189	1.41
444.549	1.43
444.908	1.43
445.267	1.46
445.627	1.48
445.986	1.45
446.345	1.36
446.705	1.48
447.064	1.43
447.423	1.42
447.782	1.43
448.141	1.4
448.5	1.32
448.859	1.37
449.218	1.35
449.577	1.46
449.936	1.41
450.295	1.37
450.653	1.35
451.012	1.34
451.371	1.35
451.729	1.31
452.088	1.34
452.447	1.35
452.805	1.36
453.163	1.3
453.522	1.31
453.88	1.31
454.239	1.29
454.597	1.24
454.955	1.24
455.313	1.24
455.671	1.23
456.029	1.23
456.388	1.21
456.746	1.2
457.104	1.19
457.461	1.16
457.819	1.17
458.177	1.17
458.535	1.14
458.893	1.14
459.25	1.12
459.608	1.1
459.966	1.08
460.323	1.06
460.681	1.06
461.038	1.05
461.396	1
461.753	1.02
462.111	1.01
462.468	0.98
462.825	0.96
463.182	0.95
463.54	0.94
463.897	0.93
464.254	0.92
464.611	0.89
464.968	0.89
465.325	0.89
465.682	0.86
466.039	0.85
466.395	0.82
466.752	0.83
467.109	0.81
467.466	0.79
467.822	0.79
468.179	0.76
468.535	0.76
468.892	0.74
469.248	0.72
469.605	0.71
469.961	0.71
470.318	0.71
470.674	0.68
471.03	0.69
471.386	0.67
471.743	0.66
472.099	0.65
472.455	0.63
472.811	0.63
473.167	0.61
473.523	0.6
473.879	0.59
474.235	0.58
474.59	0.56
474.946	0.54
475.302	0.54
475.657	0.53
476.013	0.52
476.369	0.51
476.724	0.5
477.08	0.5
477.435	0.49
477.791	0.48
478.146	0.47
478.501	0.46
478.857	0.45
479.212	0.44
479.567	0.43
479.922	0.42
480.277	0.41
480.632	0.4
480.987	0.4
481.342	0.39
481.697	0.38
482.052	0.36
482.407	0.36
482.762	0.35
483.116	0.35
483.471	0.34
483.826	0.33
484.18	0.33
484.535	0.32
484.89	0.31
485.244	0.3
485.598	0.3
485.953	0.29
486.307	0.28
486.661	0.28
487.016	0.27
487.37	0.27
487.724	0.26
488.078	0.25
488.432	0.25
488.786	0.25
489.14	0.24
489.494	0.23
489.848	0.23
490.202	0.22
490.556	0.22
490.91	0.21
491.263	0.21
491.617	0.21
491.971	0.2
492.324	0.2
492.678	0.19
493.031	0.19
493.385	0.19
493.738	0.18
494.091	0.18
494.445	0.17
494.798	0.16
495.151	0.16
495.504	0.16
495.857	0.16
496.21	0.16
496.564	0.15
496.916	0.15
497.269	0.14
497.622	0.14
497.975	0.13
498.328	0.13
498.681	0.14
499.033	0.13
499.386	0.12
499.739	0.12
500.091	0.12
500.444	0.12
500.796	0.11
501.149	0.11
501.501	0.11
501.854	0.11
502.206	0.1
502.558	0.1
502.91	0.11
503.263	0.1
503.615	0.09
503.967	0.09
504.319	0.1
504.671	0.09
505.023	0.09
505.375	0.09
505.726	0.09
506.078	0.08
506.43	0.08
506.782	0.08
507.133	0.08
507.485	0.08
507.837	0.09
508.188	0.08
508.54	0.08
508.891	0.08
509.243	0.07
509.594	0.07
509.945	0.07
510.296	0.06
510.648	0.07
510.999	0.07
511.35	0.07
511.701	0.07
512.052	0.07
512.403	0.07
512.754	0.06
513.105	0.06
513.456	0.06
513.807	0.05
514.157	0.06
514.508	0.06
514.859	0.05
515.209	0.05
515.56	0.06
515.91	0.05
516.261	0.06
516.611	0.05
516.962	0.06
517.312	0.06
517.662	0.06
518.013	0.05
518.363	0.06
518.713	0.05
519.063	0.05
519.413	0.05
519.763	0.05
520.113	0.06
520.463	0.05
520.813	0.06
521.163	0.06
521.512	0.05
521.862	0.05
522.212	0.05
522.562	0.05
522.911	0.04
523.261	0.05
523.61	0.05
523.96	0.05
524.309	0.05
524.658	0.05
525.008	0.05
525.357	0.04
525.706	0.05
526.056	0.05
526.405	0.04
526.754	0.04
527.103	0.04
527.452	0.04
527.801	0.05
528.15	0.05
528.499	0.04
528.847	0.05
529.196	0.05
529.545	0.05
529.893	0.05
530.242	0.05
530.591	0.05
530.939	0.05
531.288	0.05
531.636	0.05
531.985	0.04
532.333	0.05
532.681	0.04
533.029	0.05
533.378	0.05
533.726	0.05
534.074	0.05
534.422	0.04
534.77	0.05
535.118	0.04
535.466	0.04
535.814	0.04
536.162	0.04
536.509	0.06
536.857	0.05
537.205	0.05
537.552	0.05
537.9	0.04
538.248	0.04
538.595	0.04
538.943	0.04
539.29	0.04
539.637	0.04
539.985	0.04
540.332	0.04
540.679	0.04
541.026	0.04
541.373	0.05
541.721	0.04
542.068	0.04
542.415	0.04
542.762	0.04
543.108	0.02
543.455	0.03
543.802	0.03
544.149	0.03
544.496	0.04
544.842	0.03
545.189	0.02
545.535	0.03
545.882	0.03
546.228	0.03
546.575	0.02
546.921	0.03
547.267	0.03
547.614	0.03
547.96	0.02
548.306	0.03
548.652	0.03
548.998	0.03
549.344	0.02
549.69	0.03
550.036	0.03
550.382	0.03
550.728	0.03
551.074	0.03
551.42	0.04
551.765	0.04
552.111	0.04
552.457	0.04
552.802	0.03
553.148	0.02
553.493	0.03
553.839	0.03
554.184	0.03
554.529	0.03
554.875	0.04
555.22	0.04
555.565	0.03
555.91	0.03
556.255	0.03
556.6	0.04
556.945	0.03
557.29	0.04
557.635	0.04
557.98	0.03
558.325	0.03
558.67	0.03
559.014	0.04
559.359	0.03
559.704	0.04
560.048	0.02
560.393	0.03
560.737	0.02
561.082	0.03
561.426	0.02
561.77	0.03
562.115	0.03
562.459	0.03
562.803	0.03
563.147	0.03
563.491	0.03
563.835	0.04
564.179	0.03
564.523	0.03
564.867	0.03
565.211	0.03
565.555	0.03
565.899	0.03
566.242	0.03
566.586	0.02
566.93	0.03
567.273	0.04
567.617	0.03
567.96	0.04
568.304	0.03
568.647	0.03
568.99	0.03
569.334	0.04
569.677	0.04
570.02	0.04
570.363	0.04
570.706	0.03
571.049	0.04
571.392	0.04
571.735	0.03
572.078	0.04
572.421	0.05
572.764	0.04
573.106	0.03
573.449	0.03
573.792	0.03
574.134	0.03
574.477	0.04
574.819	0.03
575.162	0.04
575.504	0.03
575.847	0.03
576.189	0.03
576.531	0.03
576.873	0.03
577.215	0.04
577.558	0.03
577.9	0.03
578.242	0.03
578.584	0.04
578.926	0.03
579.267	0.03
579.609	0.03
579.951	0.03
580.293	0.03
580.634	0.04
580.976	0.03
581.318	0.03
581.659	0.03
582.001	0.03
582.342	0.03
582.683	0.03
583.025	0.02
583.366	0.03
583.707	0.03
584.049	0.03
584.39	0.03
584.731	0.02
585.072	0.02
585.413	0.04
585.754	0.03
586.095	0.03
586.435	0.03
586.776	0.03
587.117	0.03
587.458	0.03
587.798	0.03
588.139	0.03
588.48	0.02
588.82	0.02
589.161	0.02
589.501	0.02
589.841	0.02
590.182	0.02
590.522	0.02
590.862	0.03
591.202	0.03
591.542	0.03
591.882	0.03
592.222	0.03
592.562	0.03
592.902	0.03
593.242	0.03
593.582	0.04
593.922	0.03
594.261	0.02
594.601	0.03
594.941	0.03
595.28	0.03
595.62	0.03
595.959	0.03
596.299	0.03
596.638	0.03
596.977	0.02
597.317	0.03
597.656	0.03
597.995	0.03
598.334	0.04
598.673	0.03
599.012	0.03
599.351	0.04
599.69	0.03
600.029	0.04
600.368	0.04
600.707	0.04
601.046	0.04
601.384	0.04
601.723	0.03
602.061	0.03
602.4	0.04
602.738	0.04
603.077	0.03
603.415	0.03
603.754	0.03
604.092	0.03
604.43	0.03
604.768	0.04
605.107	0.03
605.445	0.02
605.783	0.03
606.121	0.03
606.459	0.03
606.796	0.03
607.134	0.03
607.472	0.03
607.81	0.03
608.148	0.03
608.485	0.03
608.823	0.03
609.16	0.03
609.498	0.03
609.835	0.02
610.173	0.03
610.51	0.03
610.847	0.03
611.185	0.03
611.522	0.03
611.859	0.03
612.196	0.04
612.533	0.04
612.87	0.04
613.207	0.04
613.544	0.04
613.881	0.05
614.217	0.04
614.554	0.04
614.891	0.04
615.228	0.04
615.564	0.04
615.901	0.04
616.237	0.05
616.574	0.04
616.91	0.05
617.246	0.04
617.583	0.04
617.919	0.05
618.255	0.04
618.591	0.04
618.927	0.04
619.263	0.05
619.599	0.05
619.935	0.04
620.271	0.05
620.607	0.04
620.943	0.04
621.279	0.05
621.614	0.04
621.95	0.05
622.286	0.04
622.621	0.04
622.957	0.04
623.292	0.04
623.627	0.03
623.963	0.04
624.298	0.04
624.633	0.04
624.968	0.04
625.304	0.04
625.639	0.03
625.974	0.03
626.309	0.03
626.644	0.04
626.979	0.04
627.313	0.03
627.648	0.04
627.983	0.04
628.318	0.03
628.652	0.03
628.987	0.03
629.321	0.04
629.656	0.03
629.99	0.03
630.325	0.03
630.659	0.03
630.993	0.03
631.327	0.03
631.662	0.02
631.996	0.02
632.33	0.03
632.664	0.03
632.998	0.03
633.332	0.03
633.666	0.03
633.999	0.03
634.333	0.02
634.667	0.03
635.001	0.02
635.334	0.03
635.668	0.03
636.001	0.03
636.335	0.03
636.668	0.03
637.001	0.02
637.335	0.03
637.668	0.03
638.001	0.03
638.334	0.03
638.668	0.03
639.001	0.03
639.334	0.02
639.667	0.03
639.999	0.03
640.332	0.03
640.665	0.03
640.998	0.03
641.331	0.04
641.663	0.02
641.996	0.03
642.328	0.03
642.661	0.02
642.993	0.03
643.326	0.03
643.658	0.02
643.99	0.03
644.323	0.03
644.655	0.03
644.987	0.03
645.319	0.03
645.651	0.03
645.983	0.03
646.315	0.02
646.647	0.03
646.979	0.03
647.31	0.03
647.642	0.03
647.974	0.03
648.305	0.04
648.637	0.03
648.968	0.04
649.3	0.04
649.631	0.04
649.963	0.03
650.294	0.04
650.625	0.03
650.957	0.04
651.288	0.04
651.619	0.04
651.95	0.04
652.281	0.04
652.612	0.04
652.943	0.03
653.274	0.04
653.604	0.04
653.935	0.04
654.266	0.04
654.596	0.03
654.927	0.03
655.258	0.04
655.588	0.05
655.918	0.04
656.249	0.02
656.579	0.03
656.909	0.03
657.24	0.03
657.57	0.04
657.9	0.04
658.23	0.04
658.56	0.04
658.89	0.04
659.22	0.04
659.55	0.04
659.88	0.04
660.209	0.04
660.539	0.04
660.869	0.04
661.198	0.04
661.528	0.04
661.857	0.03
662.187	0.04
662.516	0.04
662.846	0.03
663.175	0.04
663.504	0.03
663.833	0.03
664.163	0.04
664.492	0.03
664.821	0.04
665.15	0.04
665.479	0.04
665.807	0.03
666.136	0.04
666.465	0.04
666.794	0.04
667.122	0.04
667.451	0.04
667.78	0.04
668.108	0.04
668.437	0.04
668.765	0.04
669.093	0.04
669.422	0.04
669.75	0.04
670.078	0.04
670.406	0.05
670.734	0.04
671.062	0.04
671.39	0.04
671.718	0.04
672.046	0.04
672.374	0.03
672.702	0.04
673.029	0.03
673.357	0.04
673.685	0.04
674.012	0.04
674.34	0.04
674.667	0.04
674.995	0.04
675.322	0.04
675.649	0.03
675.977	0.04
676.304	0.04
676.631	0.04
676.958	0.04
677.285	0.04
677.612	0.03
677.939	0.04
678.266	0.05
678.593	0.04
678.92	0.04
679.246	0.03
679.573	0.04
679.9	0.04
680.226	0.04
680.553	0.03
680.879	0.04
681.206	0.04
681.532	0.04
681.858	0.04
682.184	0.04
682.511	0.04
682.837	0.04
683.163	0.04
683.489	0.04
683.815	0.04
684.141	0.04
684.467	0.04
684.793	0.04
685.118	0.04
685.444	0.04
685.77	0.03
686.095	0.04
686.421	0.03
686.746	0.04
687.072	0.04
687.397	0.03
687.723	0.05
688.048	0.05
688.373	0.04
688.698	0.04
689.023	0.05
689.349	0.04
689.674	0.04
689.999	0.04
690.323	0.03
690.648	0.03
690.973	0.03
691.298	0.04
691.623	0.04
691.947	0.04
692.272	0.04
692.596	0.04
692.921	0.05
693.245	0.05
693.57	0.05
693.894	0.05
694.218	0.04
694.543	0.04
694.867	0.04
695.191	0.04
695.515	0.05
695.839	0.04
696.163	0.04
696.487	0.04
696.811	0.04
697.135	0.05
697.458	0.04
697.782	0.05
698.106	0.04
698.429	0.04
698.753	0.04
699.076	0.04
699.4	0.04
699.723	0.04
700.046	0.03
700.37	0.04
700.693	0.04
701.016	0.04
701.339	0.04
701.662	0.05
701.985	0.05
702.308	0.04
702.631	0.04
702.954	0.04
703.277	0.05
703.599	0.05
703.922	0.04
704.245	0.03
704.567	0.03
704.89	0.04
705.212	0.04
705.535	0.04
705.857	0.03
706.179	0.03
706.502	0.04
706.824	0.03
707.146	0.03
707.468	0.04
707.79	0.04
708.112	0.04
708.434	0.04
708.756	0.04
709.078	0.04
709.399	0.04
709.721	0.04
710.043	0.05
710.364	0.04
710.686	0.04
711.007	0.05
711.329	0.05
711.65	0.05
711.972	0.04
712.293	0.05
712.614	0.04
712.935	0.05
713.256	0.04
713.577	0.05
713.898	0.05
714.219	0.05
714.54	0.04
714.861	0.04
715.182	0.04
715.503	0.04
715.823	0.04
716.144	0.03
716.464	0.04
716.785	0.04
717.105	0.04
717.426	0.03
717.746	0.03
718.066	0.03
718.387	0.04
718.707	0.02
719.027	0.04
719.347	0.03
719.667	0.03
719.987	0.03
720.307	0.03
720.627	0.03
720.947	0.03
721.266	0.03
721.586	0.02
721.906	0.04
722.225	0.03
722.545	0.03
722.864	0.03
723.184	0.04
723.503	0.04
723.823	0.04
724.142	0.03
724.461	0.04
724.78	0.03
725.099	0.03
725.418	0.04
725.737	0.03
726.056	0.04
726.375	0.04
726.694	0.04
727.013	0.03
727.331	0.02
727.65	0.03
727.969	0.04
728.287	0.04
728.606	0.04
728.924	0.03
729.242	0.03
729.561	0.04
729.879	0.03
730.197	0.04
730.515	0.04
730.834	0.04
731.152	0.03
731.47	0.04
731.788	0.04
732.105	0.04
732.423	0.04
732.741	0.04
733.059	0.04
733.376	0.05
733.694	0.04
734.012	0.04
734.329	0.05
734.647	0.04
734.964	0.04
735.281	0.05
735.599	0.04
735.916	0.05
736.233	0.04
736.55	0.04
736.867	0.04
737.184	0.05
737.501	0.04
737.818	0.05
738.135	0.05
738.452	0.04
738.768	0.04
739.085	0.04
739.402	0.03
739.718	0.03
740.035	0.04
740.351	0.04
740.668	0.04
740.984	0.04
741.3	0.04
741.617	0.04
741.933	0.04
742.249	0.04
742.565	0.04
742.881	0.05
743.197	0.05
743.513	0.04
743.829	0.03
744.144	0.04
744.46	0.04
744.776	0.04
745.091	0.03
745.407	0.03
745.722	0.03
746.038	0.03
746.353	0.03
746.669	0.03
746.984	0.03
747.299	0.02
747.614	0.03
747.93	0.03
748.245	0.02
748.56	0.03
748.875	0.03
749.189	0.03
749.504	0.03
749.819	0.04
750.134	0.03
750.448	0.03
750.763	0.03
751.078	0.03
751.392	0.03
751.707	0.05
752.021	0.05
752.335	0.04
752.65	0.04
752.964	0.04
753.278	0.04
753.592	0.04
753.906	0.03
754.22	0.04
754.534	0.04
754.848	0.04
755.162	0.04
755.476	0.05
755.789	0.04
756.103	0.03
756.417	0.04
756.73	0.04
757.044	0.04
757.357	0.04
757.671	0.05
757.984	0.04
758.297	0.05
758.61	0.05
758.924	0.05
759.237	0.04
759.55	0.04
759.863	0.03
760.176	0.05
760.488	0.04
760.801	0.04
761.114	0.03
761.427	0.04
761.739	0.04
762.052	0.03
762.365	0.04
762.677	0.03
762.99	0.03
763.302	0.03
763.614	0.04
763.926	0.04
764.239	0.04
764.551	0.03
764.863	0.04
765.175	0.04
765.487	0.03
765.799	0.03
766.111	0.03
766.423	0.04
766.734	0.03
767.046	0.03
767.358	0.04
767.669	0.04
767.981	0.04
768.292	0.04
768.604	0.04
768.915	0.03
769.226	0.04
769.537	0.03
769.849	0.04
770.16	0.04
770.471	0.03
770.782	0.04
771.093	0.03
771.404	0.02
771.715	0.03
772.025	0.03
772.336	0.03
772.647	0.03
772.957	0.04
773.268	0.04
773.578	0.04
773.889	0.04
774.199	0.04
774.51	0.04
774.82	0.03
775.13	0.04
775.44	0.04
775.75	0.05
776.06	0.04
776.37	0.04
776.68	0.05
776.99	0.05
777.3	0.04
777.61	0.04
777.92	0.04
778.229	0.04
778.539	0.04
778.848	0.04
779.158	0.04
779.467	0.04
779.777	0.03
780.086	0.04
780.395	0.04
780.704	0.03
781.013	0.02
781.323	0.03
781.632	0.03
781.941	0.03
782.249	0.03
782.558	0.03
782.867	0.03
783.176	0.02
783.485	0.03
783.793	0.04
784.102	0.03
784.41	0.04
784.719	0.03
785.027	0.04
785.335	0.03
785.644	0.04
785.952	0.02
786.26	0.04
786.568	0.03
786.876	0.03
787.184	0.03
787.492	0.04
787.8	0.03
788.108	0.03
788.416	0.04
788.723	0.04
789.031	0.03
789.338	0.03
789.646	0.03
789.953	0.03
790.261	0.04
790.568	0.04
790.876	0.04
791.183	0.04
791.49	0.04
791.797	0.03
792.104	0.03
792.411	0.04
792.718	0.03
793.025	0.04
793.332	0.03
793.639	0.05
793.945	0.05
794.252	0.05
794.559	0.04
794.865	0.05
795.172	0.04
795.478	0.05
795.784	0.04
796.091	0.04
796.397	0.05
796.703	0.05
797.009	0.06
797.315	0.05
797.622	0.05
797.927	0.05
798.233	0.04
798.539	0.05
798.845	0.05
799.151	0.06
799.456	0.06
799.762	0.04
800.068	0.05
800.373	0.05
800.679	0.05
800.984	0.05
801.289	0.05
801.595	0.05
801.9	0.05
802.205	0.05
802.51	0.06
802.815	0.05
803.12	0.05
803.425	0.05
803.73	0.05
804.035	0.04
804.339	0.04
804.644	0.04
804.949	0.04
805.253	0.04
805.558	0.05
805.862	0.04
806.167	0.05
806.471	0.04
806.775	0.04
807.08	0.04
807.384	0.05
807.688	0.04
807.992	0.04
808.296	0.04
808.6	0.05
808.904	0.05
809.207	0.04
809.511	0.05
809.815	0.05
810.119	0.05
810.422	0.05
810.726	0.06
811.029	0.06
811.332	0.05
811.636	0.05
811.939	0.05
812.242	0.05
812.546	0.06
812.849	0.06
813.152	0.07
813.455	0.07
813.758	0.07
814.06	0.06
814.363	0.06
814.666	0.06
814.969	0.06
815.271	0.06
815.574	0.05
815.877	0.05
816.179	0.06
816.481	0.05
816.784	0.05
817.086	0.05
817.388	0.04
817.69	0.05
817.993	0.04
818.295	0.04
818.597	0.04
818.899	0.04
819.2	0.04
819.502	0.04
819.804	0.04
820.106	0.03
820.407	0.03
820.709	0.04
821.01	0.04
821.312	0.04
821.613	0.03
821.915	0.03
822.216	0.03
822.517	0.03
822.818	0.04
823.119	0.04
823.42	0.04
823.721	0.03
824.022	0.03
824.323	0.03
824.624	0.03
824.925	0.03
825.226	0.04
825.526	0.03
825.827	0.03
826.127	0.03
826.428	0.03
826.728	0.02
827.028	0.03
827.329	0.02
827.629	0.02
827.929	0.03
828.229	0.04
828.529	0.03
828.829	0.03
829.129	0.04
829.429	0.03
829.729	0.03
830.029	0.02
830.328	0.04
830.628	0.03
830.927	0.02
831.227	0.03
831.526	0.03
831.826	0.02
832.125	0.03
832.424	0.03
832.724	0.03
833.023	0.03
833.322	0.03
833.621	0.02
833.92	0.02
834.219	0.02
834.518	0.02
834.816	0
835.115	0.02
835.414	0.01
835.712	0.02
836.011	0.01
836.309	0.01
836.608	0.01
836.906	0
837.205	0
837.503	0.01
837.801	-0
838.099	-0
838.397	-0.02
838.695	-0.01
838.993	-0
839.291	-0.01
839.589	-0.02
839.887	-0.01
840.184	-0.01
840.482	-0.01
840.78	-0.01
841.077	-0.02
841.375	-0.01
841.672	-0.01
841.969	-0.01
842.267	-0.01
842.564	-0.01
842.861	-0.01
843.158	-0.01
843.455	-0.03
843.752	-0.03
844.049	-0.02
844.346	-0.02
844.643	-0.03
844.94	-0.03
845.236	-0.01
845.533	-0.02
845.83	-0.02
846.126	-0.03
846.423	-0.03
846.719	-0.05
847.015	-0.03
847.312	-0.04
847.608	-0.04
847.904	-0.04
848.2	-0.04
848.496	-0.05
848.792	-0.03
849.088	-0.03
849.384	-0.04
849.68	-0.06
849.975	-0.05
850.271	-0.05
850.567	-0.05
850.862	-0.05
851.158	-0.05
851.453	-0.05
851.748	-0.06
852.044	-0.05
852.339	-0.05
852.634	-0.07
852.929	-0.05
853.224	-0.06
853.519	-0.06
853.814	-0.05
854.109	-0.06
854.404	-0.06
854.699	-0.08
854.994	-0.06
855.288	-0.05
855.583	-0.06
855.877	-0.07
856.172	-0.07
856.466	-0.07
856.76	-0.07
857.055	-0.08
857.349	-0.08
857.643	-0.08
857.937	-0.09
858.231	-0.1
858.525	-0.09
858.819	-0.09
859.113	-0.11
859.407	-0.1
859.701	-0.1
859.994	-0.11
860.288	-0.1
860.581	-0.11
860.875	-0.11
861.168	-0.11
861.462	-0.11
861.755	-0.1
862.048	-0.11
862.341	-0.11
862.634	-0.11
862.928	-0.11
863.221	-0.11
863.513	-0.11
863.806	-0.12
864.099	-0.12
864.392	-0.13
864.685	-0.12
864.977	-0.11
865.27	-0.12
865.562	-0.12
865.855	-0.11
866.147	-0.11
866.44	-0.12
866.732	-0.12
867.024	-0.12
867.316	-0.13
867.608	-0.13
867.9	-0.12
868.192	-0.12
868.484	-0.13
868.776	-0.14
869.068	-0.13
869.359	-0.14
869.651	-0.13
869.943	-0.16
870.234	-0.14
870.526	-0.15
870.817	-0.15
871.108	-0.13
871.4	-0.14
871.691	-0.15
871.982	-0.15
872.273	-0.16
872.564	-0.15
872.855	-0.14
873.146	-0.16
873.437	-0.15
873.728	-0.17
874.019	-0.16
874.309	-0.17
874.6	-0.17
874.89	-0.16
875.181	-0.17
875.471	-0.16
875.762	-0.17
876.052	-0.17
876.342	-0.14
876.632	-0.18
876.922	-0.17
877.213	-0.17
877.503	-0.19
877.792	-0.17
878.082	-0.17
878.372	-0.16
878.662	-0.17
878.952	-0.17
879.241	-0.16
879.531	-0.15
879.82	-0.15
880.11	-0.17
880.399	-0.16
880.688	-0.15
880.978	-0.15
881.267	-0.15
