Data from 12-12-AQDScycling_Absorbance__137__00137.txt Node

Date: Tue Dec 12 11:31:36 EST 2023
User: kyuminlee
Spectrometer: FLMS00943
Trigger mode: 0
Integration Time (sec): 1.000000E-1
Scans to average: 1
Electric dark correction enabled: true
Nonlinearity correction enabled: false
Boxcar width: 0
XAxis mode: Wavelengths
Number of Pixels in Spectrum: 2048
>>>>>Begin Spectral Data<<<<<
179.651	-0
180.037	-0
180.424	-0
180.81	-0.28
181.197	0.46
181.583	0.19
181.97	-0.35
182.356	-0
182.743	-0
183.129	-0
183.515	0.71
183.901	-1.49
184.288	0.43
184.674	-0
185.06	-0.59
185.446	0.23
185.832	-0
186.218	0.26
186.604	0.37
186.99	-0.18
187.376	-0
187.762	-0
188.148	0.42
188.534	-0.36
188.92	0.16
189.305	0.19
189.691	0.06
190.077	0.21
190.463	0.13
190.848	0.13
191.234	0.04
191.619	0.24
192.005	0.05
192.391	0.12
192.776	0.23
193.161	0.21
193.547	0.08
193.932	0.11
194.318	0.14
194.703	0.16
195.088	0.14
195.473	0.2
195.859	0.11
196.244	0.24
196.629	0.14
197.014	0.05
197.399	0.07
197.784	0.09
198.169	0.34
198.554	0.33
198.939	0.11
199.324	0.22
199.709	0.03
200.094	0.04
200.478	0.2
200.863	0.26
201.248	0.11
201.633	0.16
202.017	0.19
202.402	0.19
202.787	0.1
203.171	0.2
203.556	0.28
203.94	0.2
204.325	0.19
204.709	0.2
205.093	0.13
205.478	0.13
205.862	0.11
206.246	0.23
206.631	0.08
207.015	0.22
207.399	0.29
207.783	0.04
208.167	0.08
208.551	0.34
208.935	0.36
209.319	0.26
209.703	0.08
210.087	0.22
210.471	0.14
210.855	0.12
211.239	0.28
211.623	0.35
212.007	0.33
212.39	0.2
212.774	0.18
213.158	0.08
213.541	0.26
213.925	0.25
214.309	0.2
214.692	0.28
215.076	0.28
215.459	0.33
215.842	0.33
216.226	0.25
216.609	0.3
216.993	0.27
217.376	0.29
217.759	0.13
218.142	0.32
218.525	0.32
218.909	0.41
219.292	0.29
219.675	0.42
220.058	0.4
220.441	0.46
220.824	0.52
221.207	0.54
221.59	0.51
221.973	0.56
222.355	0.7
222.738	0.75
223.121	0.64
223.504	0.53
223.886	0.64
224.269	0.73
224.652	0.63
225.034	0.72
225.417	0.81
225.799	0.88
226.182	0.86
226.564	0.85
226.947	0.75
227.329	0.8
227.711	0.86
228.094	0.87
228.476	0.91
228.858	0.79
229.24	0.78
229.623	0.9
230.005	0.84
230.387	0.82
230.769	0.87
231.151	0.93
231.533	0.94
231.915	1
232.297	1.15
232.679	0.94
233.061	1.06
233.442	1.05
233.824	0.95
234.206	1.14
234.588	1.13
234.969	1.07
235.351	1.01
235.733	1
236.114	1.22
236.496	1.14
236.877	1.23
237.259	1.21
237.64	1.03
238.022	1
238.403	0.96
238.784	1.07
239.165	0.94
239.547	1.12
239.928	1.05
240.309	1.01
240.69	0.96
241.071	1.02
241.452	1.2
241.834	1.06
242.215	1.13
242.595	1.15
242.976	1.24
243.357	1.17
243.738	0.99
244.119	1.69
244.5	1.24
244.881	1.12
245.261	1.09
245.642	1.16
246.023	1.17
246.403	1.17
246.784	1.29
247.164	1.22
247.545	1.26
247.925	1.3
248.306	1.24
248.686	1.29
249.067	1.31
249.447	1.38
249.827	1.47
250.207	1.47
250.588	1.4
250.968	1.33
251.348	1.35
251.728	1.45
252.108	1.43
252.488	1.4
252.868	1.37
253.248	1.29
253.628	1.47
254.008	1.46
254.388	1.25
254.768	1.46
255.147	1.3
255.527	1.36
255.907	1.24
256.287	1.31
256.666	1.38
257.046	1.51
257.425	1.5
257.805	1.32
258.184	1.26
258.564	1.37
258.943	1.46
259.323	1.47
259.702	1.58
260.081	1.39
260.461	1.61
260.84	1.58
261.219	1.73
261.598	1.42
261.977	1.46
262.356	1.49
262.736	1.46
263.115	1.65
263.494	1.59
263.873	1.39
264.251	1.57
264.63	1.53
265.009	1.39
265.388	1.52
265.767	1.38
266.145	1.38
266.524	1.36
266.903	1.48
267.281	1.42
267.66	1.64
268.039	1.43
268.417	1.42
268.796	1.38
269.174	1.39
269.552	1.67
269.931	1.46
270.309	1.35
270.687	1.6
271.066	1.5
271.444	1.35
271.822	1.55
272.2	1.59
272.578	1.35
272.956	1.59
273.334	1.26
273.712	1.45
274.09	1.34
274.468	1.4
274.846	1.24
275.224	1.32
275.602	1.4
275.98	1.63
276.357	1.44
276.735	1.64
277.113	1.31
277.49	1.41
277.868	1.21
278.246	1.4
278.623	1.29
279.001	1.43
279.378	1.42
279.756	1.41
280.133	1.83
280.51	1.46
280.888	1.46
281.265	1.36
281.642	1.42
282.019	1.63
282.396	1.78
282.773	1.4
283.151	1.6
283.528	1.42
283.905	1.46
284.282	1.47
284.659	1.66
285.035	1.33
285.412	1.39
285.789	1.53
286.166	1.5
286.543	1.42
286.919	1.45
287.296	1.39
287.673	1.61
288.049	1.53
288.426	1.51
288.802	1.37
289.179	1.4
289.555	1.67
289.932	1.39
290.308	1.34
290.684	1.39
291.061	1.32
291.437	1.58
291.813	1.52
292.189	1.21
292.565	1.3
292.942	1.24
293.318	1.37
293.694	1.44
294.07	1.28
294.446	1.36
294.822	1.49
295.197	1.4
295.573	1.43
295.949	1.45
296.325	1.55
296.701	1.52
297.076	1.42
297.452	1.54
297.828	1.38
298.203	1.49
298.579	1.38
298.954	1.27
299.33	1.28
299.705	1.38
300.081	1.38
300.456	1.34
300.831	1.29
301.206	1.21
301.582	1.32
301.957	1.22
302.332	1.32
302.707	1.15
303.082	1.23
303.457	1.16
303.832	1.15
304.207	1.1
304.582	1.09
304.957	1.08
305.332	1.06
305.707	1.06
306.082	1.14
306.456	1.02
306.831	1.04
307.206	0.97
307.58	0.99
307.955	0.92
308.33	0.93
308.704	0.97
309.079	0.9
309.453	0.92
309.828	0.88
310.202	0.87
310.576	0.87
310.951	0.88
311.325	0.83
311.699	0.83
312.073	0.83
312.447	0.8
312.821	0.82
313.196	0.78
313.57	0.76
313.944	0.75
314.317	0.73
314.691	0.76
315.065	0.75
315.439	0.72
315.813	0.7
316.187	0.7
316.56	0.75
316.934	0.7
317.308	0.7
317.681	0.68
318.055	0.69
318.428	0.68
318.802	0.7
319.175	0.71
319.549	0.68
319.922	0.64
320.295	0.66
320.669	0.68
321.042	0.68
321.415	0.68
321.788	0.66
322.162	0.65
322.535	0.64
322.908	0.65
323.281	0.66
323.654	0.66
324.027	0.63
324.4	0.66
324.773	0.63
325.145	0.62
325.518	0.64
325.891	0.65
326.264	0.65
326.636	0.66
327.009	0.66
327.382	0.66
327.754	0.67
328.127	0.66
328.499	0.67
328.872	0.69
329.244	0.68
329.616	0.66
329.989	0.71
330.361	0.68
330.733	0.69
331.106	0.68
331.478	0.72
331.85	0.69
332.222	0.69
332.594	0.73
332.966	0.74
333.338	0.78
333.71	0.74
334.082	0.81
334.454	0.76
334.826	0.77
335.197	0.78
335.569	0.82
335.941	0.77
336.312	0.79
336.684	0.82
337.056	0.79
337.427	0.85
337.799	0.85
338.17	0.82
338.542	0.84
338.913	0.86
339.284	0.88
339.656	0.89
340.027	0.9
340.398	0.9
340.769	0.9
341.141	0.91
341.512	0.94
341.883	0.93
342.254	0.92
342.625	0.93
342.996	0.95
343.367	0.94
343.738	0.99
344.108	0.98
344.479	0.99
344.85	0.99
345.221	1.1
345.591	0.99
345.962	1.05
346.333	1.05
346.703	1.05
347.074	1.01
347.444	1.08
347.815	1.08
348.185	1.13
348.556	1.12
348.926	1.12
349.296	1.17
349.666	1.09
350.037	1.12
350.407	1.11
350.777	1.22
351.147	1.2
351.517	1.27
351.887	1.22
352.257	1.27
352.627	1.24
352.997	1.22
353.367	1.25
353.737	1.34
354.106	1.3
354.476	1.34
354.846	1.43
355.216	1.29
355.585	1.43
355.955	1.36
356.324	1.47
356.694	1.4
357.063	1.36
357.433	1.39
357.802	1.48
358.171	1.56
358.541	1.49
358.91	1.53
359.279	1.59
359.648	1.41
360.017	1.56
360.387	1.66
360.756	1.53
361.125	1.51
361.494	1.6
361.863	1.5
362.231	1.42
362.6	1.57
362.969	1.61
363.338	1.46
363.707	1.63
364.075	1.63
364.444	1.4
364.813	1.56
365.181	1.39
365.55	1.52
365.918	1.66
366.287	1.65
366.655	1.69
367.024	1.72
367.392	1.56
367.76	1.56
368.128	1.61
368.497	1.52
368.865	1.57
369.233	1.51
369.601	1.63
369.969	1.4
370.337	1.5
370.705	1.75
371.073	1.6
371.441	1.49
371.809	1.46
372.177	1.43
372.544	1.71
372.912	1.55
373.28	1.7
373.647	1.56
374.015	1.62
374.383	1.9
374.75	1.54
375.118	1.66
375.485	1.67
375.853	1.71
376.22	1.55
376.587	1.56
376.955	1.52
377.322	1.67
377.689	1.48
378.056	1.56
378.423	1.64
378.79	1.58
379.157	1.65
379.524	1.55
379.891	1.38
380.258	1.89
380.625	1.49
380.992	1.52
381.359	1.47
381.726	1.75
382.092	1.57
382.459	1.53
382.826	1.61
383.192	1.6
383.559	1.56
383.925	1.71
384.292	1.54
384.658	1.7
385.025	1.52
385.391	1.74
385.757	1.61
386.123	1.6
386.49	1.62
386.856	1.88
387.222	1.65
387.588	1.6
387.954	1.72
388.32	1.65
388.686	1.6
389.052	1.59
389.418	1.53
389.784	1.51
390.15	1.63
390.515	1.42
390.881	1.55
391.247	1.49
391.613	1.77
391.978	1.48
392.344	1.59
392.709	1.58
393.075	1.64
393.44	1.65
393.806	1.63
394.171	1.46
394.536	1.55
394.902	1.58
395.267	1.44
395.632	1.47
395.997	1.47
396.362	1.45
396.727	1.51
397.092	1.65
397.457	1.62
397.822	1.52
398.187	1.68
398.552	1.47
398.917	1.65
399.282	1.4
399.646	1.52
400.011	1.73
400.376	1.64
400.74	1.53
401.105	1.51
401.47	1.61
401.834	1.7
402.199	1.53
402.563	1.5
402.927	1.47
403.292	1.71
403.656	1.55
404.02	1.58
404.384	1.69
404.749	1.59
405.113	1.68
405.477	1.65
405.841	1.61
406.205	1.71
406.569	1.65
406.933	1.5
407.296	1.5
407.66	1.67
408.024	1.56
408.388	1.85
408.752	1.61
409.115	1.76
409.479	1.66
409.842	1.64
410.206	1.51
410.569	1.59
410.933	1.59
411.296	1.4
411.66	1.7
412.023	1.47
412.386	1.67
412.749	1.43
413.113	1.55
413.476	1.56
413.839	1.59
414.202	1.46
414.565	1.47
414.928	1.46
415.291	1.4
415.654	1.44
416.017	1.71
416.38	1.46
416.742	1.46
417.105	1.41
417.468	1.56
417.83	1.43
418.193	1.72
418.556	1.45
418.918	1.48
419.281	1.55
419.643	1.45
420.005	1.63
420.368	1.48
420.73	1.49
421.092	1.65
421.455	1.51
421.817	1.52
422.179	1.56
422.541	1.59
422.903	1.58
423.265	1.61
423.627	1.62
423.989	1.61
424.351	1.5
424.713	1.49
425.075	1.73
425.436	1.51
425.798	1.85
426.16	1.63
426.521	1.48
426.883	1.62
427.245	1.66
427.606	1.4
427.967	1.47
428.329	1.56
428.69	1.58
429.052	1.49
429.413	1.64
429.774	1.64
430.135	1.58
430.497	1.68
430.858	1.58
431.219	1.59
431.58	1.52
431.941	1.48
432.302	1.51
432.663	1.6
433.024	1.65
433.384	1.53
433.745	1.53
434.106	1.64
434.467	1.45
434.827	1.52
435.188	1.53
435.548	1.59
435.909	1.53
436.269	1.56
436.63	1.53
436.99	1.55
437.351	1.41
437.711	1.49
438.071	1.46
438.431	1.49
438.792	1.5
439.152	1.56
439.512	1.5
439.872	1.45
440.232	1.55
440.592	1.51
440.952	1.55
441.312	1.46
441.671	1.42
442.031	1.51
442.391	1.49
442.751	1.45
443.11	1.52
443.47	1.4
443.83	1.39
444.189	1.37
444.549	1.46
444.908	1.39
445.267	1.39
445.627	1.4
445.986	1.38
446.345	1.37
446.705	1.42
447.064	1.39
447.423	1.36
447.782	1.44
448.141	1.39
448.5	1.32
448.859	1.33
449.218	1.36
449.577	1.32
449.936	1.39
450.295	1.35
450.653	1.3
451.012	1.3
451.371	1.28
451.729	1.28
452.088	1.29
452.447	1.29
452.805	1.3
453.163	1.25
453.522	1.25
453.88	1.24
454.239	1.25
454.597	1.21
454.955	1.19
455.313	1.19
455.671	1.19
456.029	1.21
456.388	1.16
456.746	1.15
457.104	1.13
457.461	1.11
457.819	1.12
458.177	1.11
458.535	1.09
458.893	1.07
459.25	1.08
459.608	1.04
459.966	1.01
460.323	1.03
460.681	0.99
461.038	1.01
461.396	0.97
461.753	0.98
462.111	0.97
462.468	0.95
462.825	0.91
463.182	0.9
463.54	0.88
463.897	0.91
464.254	0.88
464.611	0.86
464.968	0.86
465.325	0.85
465.682	0.82
466.039	0.8
466.395	0.79
466.752	0.8
467.109	0.76
467.466	0.77
467.822	0.77
468.179	0.73
468.535	0.74
468.892	0.72
469.248	0.7
469.605	0.67
469.961	0.69
470.318	0.68
470.674	0.67
471.03	0.65
471.386	0.64
471.743	0.62
472.099	0.62
472.455	0.61
472.811	0.59
473.167	0.58
473.523	0.57
473.879	0.56
474.235	0.55
474.59	0.54
474.946	0.53
475.302	0.52
475.657	0.51
476.013	0.5
476.369	0.5
476.724	0.49
477.08	0.48
477.435	0.46
477.791	0.46
478.146	0.46
478.501	0.44
478.857	0.44
479.212	0.43
479.567	0.42
479.922	0.41
480.277	0.4
480.632	0.39
480.987	0.39
481.342	0.37
481.697	0.36
482.052	0.36
482.407	0.35
482.762	0.35
483.116	0.34
483.471	0.32
483.826	0.32
484.18	0.3
484.535	0.3
484.89	0.29
485.244	0.29
485.598	0.29
485.953	0.28
486.307	0.28
486.661	0.27
487.016	0.26
487.37	0.26
487.724	0.26
488.078	0.25
488.432	0.25
488.786	0.24
489.14	0.24
489.494	0.22
489.848	0.22
490.202	0.22
490.556	0.22
490.91	0.21
491.263	0.2
491.617	0.2
491.971	0.2
492.324	0.19
492.678	0.2
493.031	0.19
493.385	0.19
493.738	0.17
494.091	0.18
494.445	0.17
494.798	0.17
495.151	0.17
495.504	0.16
495.857	0.15
496.21	0.16
496.564	0.15
496.916	0.16
497.269	0.14
497.622	0.16
497.975	0.15
498.328	0.15
498.681	0.14
499.033	0.14
499.386	0.13
499.739	0.13
500.091	0.12
500.444	0.12
500.796	0.12
501.149	0.12
501.501	0.12
501.854	0.12
502.206	0.11
502.558	0.12
502.91	0.11
503.263	0.12
503.615	0.11
503.967	0.1
504.319	0.11
504.671	0.1
505.023	0.09
505.375	0.1
505.726	0.1
506.078	0.09
506.43	0.09
506.782	0.08
507.133	0.09
507.485	0.09
507.837	0.09
508.188	0.09
508.54	0.09
508.891	0.09
509.243	0.08
509.594	0.08
509.945	0.08
510.296	0.08
510.648	0.08
510.999	0.07
511.35	0.07
511.701	0.08
512.052	0.08
512.403	0.07
512.754	0.07
513.105	0.07
513.456	0.07
513.807	0.07
514.157	0.07
514.508	0.07
514.859	0.06
515.209	0.06
515.56	0.06
515.91	0.06
516.261	0.06
516.611	0.06
516.962	0.06
517.312	0.06
517.662	0.06
518.013	0.06
518.363	0.06
518.713	0.06
519.063	0.06
519.413	0.06
519.763	0.05
520.113	0.05
520.463	0.06
520.813	0.06
521.163	0.07
521.512	0.06
521.862	0.05
522.212	0.06
522.562	0.05
522.911	0.06
523.261	0.05
523.61	0.05
523.96	0.05
524.309	0.06
524.658	0.05
525.008	0.05
525.357	0.05
525.706	0.06
526.056	0.05
526.405	0.05
526.754	0.05
527.103	0.05
527.452	0.06
527.801	0.05
528.15	0.05
528.499	0.06
528.847	0.05
529.196	0.06
529.545	0.06
529.893	0.06
530.242	0.06
530.591	0.06
530.939	0.06
531.288	0.06
531.636	0.06
531.985	0.06
532.333	0.06
532.681	0.06
533.029	0.06
533.378	0.05
533.726	0.06
534.074	0.06
534.422	0.05
534.77	0.05
535.118	0.05
535.466	0.05
535.814	0.05
536.162	0.05
536.509	0.05
536.857	0.05
537.205	0.05
537.552	0.06
537.9	0.05
538.248	0.05
538.595	0.05
538.943	0.05
539.29	0.05
539.637	0.05
539.985	0.04
540.332	0.04
540.679	0.04
541.026	0.04
541.373	0.04
541.721	0.03
542.068	0.04
542.415	0.04
542.762	0.03
543.108	0.03
543.455	0.03
543.802	0.03
544.149	0.04
544.496	0.04
544.842	0.04
545.189	0.03
545.535	0.04
545.882	0.04
546.228	0.04
546.575	0.03
546.921	0.04
547.267	0.04
547.614	0.04
547.96	0.05
548.306	0.03
548.652	0.03
548.998	0.05
549.344	0.04
549.69	0.04
550.036	0.03
550.382	0.04
550.728	0.05
551.074	0.05
551.42	0.05
551.765	0.04
552.111	0.05
552.457	0.05
552.802	0.05
553.148	0.03
553.493	0.04
553.839	0.05
554.184	0.05
554.529	0.04
554.875	0.05
555.22	0.05
555.565	0.05
555.91	0.04
556.255	0.05
556.6	0.05
556.945	0.04
557.29	0.04
557.635	0.05
557.98	0.04
558.325	0.04
558.67	0.04
559.014	0.04
559.359	0.04
559.704	0.04
560.048	0.03
560.393	0.04
560.737	0.03
561.082	0.04
561.426	0.03
561.77	0.04
562.115	0.03
562.459	0.03
562.803	0.03
563.147	0.03
563.491	0.04
563.835	0.03
564.179	0.04
564.523	0.04
564.867	0.04
565.211	0.03
565.555	0.04
565.899	0.04
566.242	0.04
566.586	0.03
566.93	0.04
567.273	0.05
567.617	0.05
567.96	0.05
568.304	0.04
568.647	0.04
568.99	0.04
569.334	0.05
569.677	0.04
570.02	0.04
570.363	0.04
570.706	0.04
571.049	0.04
571.392	0.04
571.735	0.03
572.078	0.04
572.421	0.05
572.764	0.04
573.106	0.04
573.449	0.04
573.792	0.04
574.134	0.04
574.477	0.05
574.819	0.04
575.162	0.04
575.504	0.04
575.847	0.04
576.189	0.04
576.531	0.03
576.873	0.03
577.215	0.04
577.558	0.04
577.9	0.04
578.242	0.04
578.584	0.04
578.926	0.03
579.267	0.03
579.609	0.03
579.951	0.03
580.293	0.04
580.634	0.03
580.976	0.03
581.318	0.03
581.659	0.03
582.001	0.03
582.342	0.04
582.683	0.03
583.025	0.03
583.366	0.03
583.707	0.03
584.049	0.03
584.39	0.03
584.731	0.03
585.072	0.03
585.413	0.04
585.754	0.04
586.095	0.03
586.435	0.04
586.776	0.04
587.117	0.04
587.458	0.04
587.798	0.03
588.139	0.04
588.48	0.03
588.82	0.03
589.161	0.03
589.501	0.03
589.841	0.04
590.182	0.03
590.522	0.03
590.862	0.04
591.202	0.03
591.542	0.03
591.882	0.03
592.222	0.03
592.562	0.03
592.902	0.04
593.242	0.03
593.582	0.04
593.922	0.04
594.261	0.03
594.601	0.04
594.941	0.03
595.28	0.03
595.62	0.03
595.959	0.03
596.299	0.03
596.638	0.03
596.977	0.03
597.317	0.03
597.656	0.03
597.995	0.03
598.334	0.04
598.673	0.03
599.012	0.03
599.351	0.03
599.69	0.03
600.029	0.03
600.368	0.03
600.707	0.04
601.046	0.03
601.384	0.04
601.723	0.04
602.061	0.03
602.4	0.03
602.738	0.03
603.077	0.03
603.415	0.03
603.754	0.03
604.092	0.03
604.43	0.03
604.768	0.03
605.107	0.04
605.445	0.03
605.783	0.03
606.121	0.03
606.459	0.04
606.796	0.03
607.134	0.03
607.472	0.03
607.81	0.04
608.148	0.03
608.485	0.04
608.823	0.04
609.16	0.03
609.498	0.04
609.835	0.04
610.173	0.03
610.51	0.04
610.847	0.03
611.185	0.04
611.522	0.04
611.859	0.04
612.196	0.04
612.533	0.04
612.87	0.05
613.207	0.04
613.544	0.05
613.881	0.05
614.217	0.04
614.554	0.04
614.891	0.05
615.228	0.05
615.564	0.05
615.901	0.05
616.237	0.05
616.574	0.05
616.91	0.05
617.246	0.05
617.583	0.05
617.919	0.05
618.255	0.05
618.591	0.05
618.927	0.04
619.263	0.05
619.599	0.05
619.935	0.05
620.271	0.05
620.607	0.05
620.943	0.05
621.279	0.05
621.614	0.04
621.95	0.05
622.286	0.04
622.621	0.04
622.957	0.04
623.292	0.04
623.627	0.04
623.963	0.04
624.298	0.05
624.633	0.04
624.968	0.04
625.304	0.03
625.639	0.03
625.974	0.03
626.309	0.03
626.644	0.03
626.979	0.04
627.313	0.04
627.648	0.04
627.983	0.04
628.318	0.04
628.652	0.03
628.987	0.04
629.321	0.04
629.656	0.03
629.99	0.03
630.325	0.04
630.659	0.04
630.993	0.04
631.327	0.04
631.662	0.03
631.996	0.03
632.33	0.03
632.664	0.04
632.998	0.03
633.332	0.03
633.666	0.04
633.999	0.03
634.333	0.03
634.667	0.03
635.001	0.03
635.334	0.03
635.668	0.03
636.001	0.03
636.335	0.03
636.668	0.03
637.001	0.02
637.335	0.03
637.668	0.03
638.001	0.03
638.334	0.03
638.668	0.03
639.001	0.03
639.334	0.03
639.667	0.02
639.999	0.03
640.332	0.03
640.665	0.02
640.998	0.03
641.331	0.04
641.663	0.03
641.996	0.03
642.328	0.03
642.661	0.03
642.993	0.03
643.326	0.04
643.658	0.02
643.99	0.03
644.323	0.03
644.655	0.04
644.987	0.03
645.319	0.04
645.651	0.04
645.983	0.04
646.315	0.03
646.647	0.04
646.979	0.04
647.31	0.04
647.642	0.04
647.974	0.04
648.305	0.05
648.637	0.04
648.968	0.05
649.3	0.04
649.631	0.04
649.963	0.04
650.294	0.04
650.625	0.04
650.957	0.05
651.288	0.05
651.619	0.04
651.95	0.04
652.281	0.04
652.612	0.03
652.943	0.04
653.274	0.05
653.604	0.04
653.935	0.04
654.266	0.04
654.596	0.04
654.927	0.04
655.258	0.04
655.588	0.04
655.918	0.05
656.249	0.03
656.579	0.04
656.909	0.04
657.24	0.03
657.57	0.04
657.9	0.04
658.23	0.04
658.56	0.05
658.89	0.05
659.22	0.04
659.55	0.05
659.88	0.05
660.209	0.05
660.539	0.05
660.869	0.05
661.198	0.04
661.528	0.05
661.857	0.04
662.187	0.05
662.516	0.05
662.846	0.04
663.175	0.04
663.504	0.04
663.833	0.04
664.163	0.04
664.492	0.04
664.821	0.04
665.15	0.04
665.479	0.04
665.807	0.04
666.136	0.04
666.465	0.04
666.794	0.04
667.122	0.04
667.451	0.04
667.78	0.04
668.108	0.04
668.437	0.03
668.765	0.04
669.093	0.04
669.422	0.04
669.75	0.04
670.078	0.04
670.406	0.04
670.734	0.04
671.062	0.04
671.39	0.04
671.718	0.04
672.046	0.04
672.374	0.04
672.702	0.04
673.029	0.04
673.357	0.04
673.685	0.05
674.012	0.05
674.34	0.04
674.667	0.04
674.995	0.05
675.322	0.04
675.649	0.04
675.977	0.04
676.304	0.05
676.631	0.04
676.958	0.04
677.285	0.04
677.612	0.04
677.939	0.04
678.266	0.04
678.593	0.03
678.92	0.03
679.246	0.03
679.573	0.03
679.9	0.03
680.226	0.04
680.553	0.03
680.879	0.04
681.206	0.03
681.532	0.03
681.858	0.03
682.184	0.03
682.511	0.04
682.837	0.03
683.163	0.04
683.489	0.03
683.815	0.03
684.141	0.03
684.467	0.04
684.793	0.03
685.118	0.03
685.444	0.04
685.77	0.04
686.095	0.04
686.421	0.04
686.746	0.04
687.072	0.04
687.397	0.03
687.723	0.04
688.048	0.04
688.373	0.03
688.698	0.04
689.023	0.04
689.349	0.04
689.674	0.04
689.999	0.03
690.323	0.03
690.648	0.03
690.973	0.02
691.298	0.02
691.623	0.02
691.947	0.03
692.272	0.02
692.596	0.03
692.921	0.03
693.245	0.03
693.57	0.03
693.894	0.03
694.218	0.03
694.543	0.03
694.867	0.02
695.191	0.02
695.515	0.02
695.839	0.02
696.163	0.03
696.487	0.03
696.811	0.02
697.135	0.03
697.458	0.03
697.782	0.03
698.106	0.03
698.429	0.03
698.753	0.03
699.076	0.03
699.4	0.03
699.723	0.03
700.046	0.02
700.37	0.03
700.693	0.03
701.016	0.03
701.339	0.03
701.662	0.04
701.985	0.04
702.308	0.03
702.631	0.03
702.954	0.03
703.277	0.03
703.599	0.03
703.922	0.03
704.245	0.03
704.567	0.03
704.89	0.03
705.212	0.03
705.535	0.02
705.857	0.03
706.179	0.02
706.502	0.03
706.824	0.02
707.146	0.02
707.468	0.03
707.79	0.03
708.112	0.03
708.434	0.03
708.756	0.03
709.078	0.03
709.399	0.02
709.721	0.03
710.043	0.03
710.364	0.03
710.686	0.03
711.007	0.02
711.329	0.04
711.65	0.03
711.972	0.03
712.293	0.03
712.614	0.04
712.935	0.04
713.256	0.03
713.577	0.04
713.898	0.03
714.219	0.03
714.54	0.03
714.861	0.02
715.182	0.03
715.503	0.03
715.823	0.03
716.144	0.02
716.464	0.03
716.785	0.03
717.105	0.02
717.426	0.03
717.746	0.03
718.066	0.02
718.387	0.02
718.707	0.02
719.027	0.03
719.347	0.01
719.667	0.03
719.987	0.02
720.307	0.02
720.627	0.02
720.947	0.02
721.266	0.02
721.586	0.02
721.906	0.02
722.225	0.01
722.545	0.01
722.864	0.01
723.184	0.02
723.503	0.02
723.823	0.02
724.142	0.01
724.461	0.02
724.78	0.01
725.099	0.01
725.418	0.02
725.737	0.02
726.056	0.02
726.375	0.02
726.694	0.02
727.013	0.02
727.331	0.02
727.65	0.02
727.969	0.02
728.287	0.02
728.606	0.02
728.924	0.02
729.242	0.02
729.561	0.02
729.879	0.02
730.197	0.02
730.515	0.02
730.834	0.02
731.152	0.01
731.47	0.02
731.788	0.02
732.105	0.01
732.423	0.02
732.741	0.02
733.059	0.01
733.376	0.02
733.694	0.01
734.012	0.01
734.329	0.02
734.647	0.01
734.964	0.03
735.281	0.02
735.599	0.02
735.916	0.03
736.233	0.02
736.55	0.02
736.867	0.02
737.184	0.03
737.501	0.02
737.818	0.02
738.135	0.04
738.452	0.02
738.768	0.04
739.085	0.03
739.402	0.02
739.718	0.02
740.035	0.03
740.351	0.03
740.668	0.03
740.984	0.02
741.3	0.03
741.617	0.02
741.933	0.03
742.249	0.03
742.565	0.03
742.881	0.03
743.197	0.03
743.513	0.03
743.829	0.03
744.144	0.02
744.46	0.03
744.776	0.03
745.091	0.03
745.407	0.03
745.722	0.03
746.038	0.03
746.353	0.02
746.669	0.04
746.984	0.02
747.299	0.02
747.614	0.03
747.93	0.03
748.245	0.02
748.56	0.03
748.875	0.02
749.189	0.03
749.504	0.03
749.819	0.03
750.134	0.03
750.448	0.03
750.763	0.03
751.078	0.02
751.392	0.03
751.707	0.03
752.021	0.04
752.335	0.04
752.65	0.03
752.964	0.03
753.278	0.03
753.592	0.03
753.906	0.03
754.22	0.03
754.534	0.04
754.848	0.03
755.162	0.03
755.476	0.03
755.789	0.03
756.103	0.02
756.417	0.04
756.73	0.04
757.044	0.04
757.357	0.04
757.671	0.04
757.984	0.03
758.297	0.04
758.61	0.04
758.924	0.03
759.237	0.03
759.55	0.03
759.863	0.03
760.176	0.03
760.488	0.03
760.801	0.03
761.114	0.03
761.427	0.03
761.739	0.03
762.052	0.03
762.365	0.03
762.677	0.03
762.99	0.03
763.302	0.03
763.614	0.03
763.926	0.03
764.239	0.03
764.551	0.02
764.863	0.03
765.175	0.02
765.487	0.03
765.799	0.02
766.111	0.02
766.423	0.02
766.734	0.03
767.046	0.02
767.358	0.02
767.669	0.02
767.981	0.02
768.292	0.02
768.604	0.03
768.915	0.02
769.226	0.02
769.537	0.01
769.849	0.02
770.16	0.02
770.471	0.02
770.782	0.01
771.093	0.02
771.404	0.02
771.715	0.01
772.025	0.02
772.336	0.02
772.647	0.01
772.957	0.02
773.268	0.02
773.578	0.02
773.889	0.02
774.199	0.03
774.51	0.02
774.82	0.02
775.13	0.02
775.44	0.02
775.75	0.03
776.06	0.02
776.37	0.02
776.68	0.02
776.99	0.03
777.3	0.01
777.61	0.03
777.92	0.02
778.229	0.03
778.539	0.03
778.848	0.02
779.158	0.04
779.467	0.02
779.777	0.02
780.086	0.03
780.395	0.02
780.704	0.02
781.013	0.02
781.323	0.02
781.632	0.03
781.941	0.03
782.249	0.03
782.558	0.02
782.867	0.03
783.176	0.02
783.485	0.02
783.793	0.03
784.102	0.02
784.41	0.02
784.719	0.02
785.027	0.02
785.335	0.02
785.644	0.02
785.952	0.01
786.26	0.02
786.568	0.01
786.876	0.02
787.184	0.03
787.492	0.03
787.8	0.02
788.108	0.02
788.416	0.02
788.723	0.01
789.031	0.02
789.338	0.02
789.646	0.01
789.953	0.02
790.261	0.03
790.568	0.02
790.876	0.02
791.183	0.03
791.49	0.02
791.797	0.02
792.104	0.02
792.411	0.03
792.718	0.02
793.025	0.03
793.332	0.02
793.639	0.03
793.945	0.03
794.252	0.03
794.559	0.03
794.865	0.03
795.172	0.03
795.478	0.03
795.784	0.04
796.091	0.04
796.397	0.03
796.703	0.04
797.009	0.04
797.315	0.03
797.622	0.03
797.927	0.03
798.233	0.03
798.539	0.04
798.845	0.03
799.151	0.04
799.456	0.03
799.762	0.02
800.068	0.03
800.373	0.04
800.679	0.02
800.984	0.02
801.289	0.02
801.595	0.03
801.9	0.02
802.205	0.02
802.51	0.02
802.815	0.02
803.12	0.02
803.425	0.02
803.73	0.03
804.035	0.02
804.339	0.02
804.644	0.02
804.949	0.02
805.253	0.02
805.558	0.03
805.862	0.02
806.167	0.02
806.471	0.02
806.775	0.03
807.08	0.03
807.384	0.03
807.688	0.03
807.992	0.03
808.296	0.03
808.6	0.03
808.904	0.04
809.207	0.03
809.511	0.04
809.815	0.04
810.119	0.03
810.422	0.04
810.726	0.04
811.029	0.04
811.332	0.04
811.636	0.04
811.939	0.03
812.242	0.04
812.546	0.04
812.849	0.04
813.152	0.04
813.455	0.04
813.758	0.04
814.06	0.04
814.363	0.04
814.666	0.04
814.969	0.04
815.271	0.04
815.574	0.02
815.877	0.03
816.179	0.04
816.481	0.03
816.784	0.03
817.086	0.02
817.388	0.03
817.69	0.02
817.993	0.02
818.295	0.02
818.597	0.02
818.899	0.01
819.2	0.01
819.502	0.01
819.804	0.02
820.106	0.02
820.407	0.02
820.709	0.03
821.01	0.02
821.312	0.02
821.613	0.02
821.915	0.02
822.216	0.02
822.517	0.01
822.818	0.02
823.119	0.03
823.42	0.03
823.721	0.02
824.022	0.01
824.323	0.03
824.624	0.02
824.925	0.02
825.226	0.03
825.526	0.02
825.827	0.02
826.127	0.02
826.428	0.03
826.728	0.02
827.028	0.03
827.329	0.02
827.629	0.01
827.929	0.01
828.229	0.03
828.529	0.02
828.829	0.02
829.129	0.02
829.429	0.01
829.729	0.02
830.029	0.01
830.328	0.02
830.628	0.01
830.927	0.01
831.227	0.01
831.526	0.02
831.826	0.02
832.125	0.01
832.424	0.01
832.724	0.01
833.023	0.01
833.322	0.02
833.621	0.01
833.92	0.01
834.219	0
834.518	0.02
834.816	0
835.115	0.01
835.414	0.02
835.712	0.01
836.011	0.01
836.309	0.01
836.608	0
836.906	0
837.205	-0
837.503	-0
837.801	-0
838.099	-0.01
838.397	-0.02
838.695	-0.01
838.993	-0.02
839.291	-0.01
839.589	-0.01
839.887	-0.02
840.184	-0.03
840.482	-0.03
840.78	-0.03
841.077	-0.03
841.375	-0.03
841.672	-0.04
841.969	-0.04
842.267	-0.04
842.564	-0.04
842.861	-0.04
843.158	-0.04
843.455	-0.06
843.752	-0.04
844.049	-0.05
844.346	-0.05
844.643	-0.05
844.94	-0.05
845.236	-0.04
845.533	-0.05
845.83	-0.05
846.126	-0.06
846.423	-0.05
846.719	-0.06
847.015	-0.05
847.312	-0.06
847.608	-0.06
847.904	-0.06
848.2	-0.07
848.496	-0.07
848.792	-0.06
849.088	-0.05
849.384	-0.06
849.68	-0.06
849.975	-0.07
850.271	-0.07
850.567	-0.07
850.862	-0.07
851.158	-0.07
851.453	-0.07
851.748	-0.07
852.044	-0.07
852.339	-0.08
852.634	-0.1
852.929	-0.07
853.224	-0.08
853.519	-0.09
853.814	-0.07
854.109	-0.09
854.404	-0.09
854.699	-0.1
854.994	-0.08
855.288	-0.08
855.583	-0.08
855.877	-0.1
856.172	-0.09
856.466	-0.1
856.76	-0.09
857.055	-0.1
857.349	-0.11
857.643	-0.11
857.937	-0.11
858.231	-0.11
858.525	-0.11
858.819	-0.11
859.113	-0.12
859.407	-0.12
859.701	-0.12
859.994	-0.13
860.288	-0.11
860.581	-0.12
860.875	-0.12
861.168	-0.13
861.462	-0.12
861.755	-0.12
862.048	-0.14
862.341	-0.13
862.634	-0.13
862.928	-0.13
863.221	-0.13
863.513	-0.15
863.806	-0.13
864.099	-0.13
864.392	-0.14
864.685	-0.13
864.977	-0.13
865.27	-0.13
865.562	-0.13
865.855	-0.13
866.147	-0.13
866.44	-0.13
866.732	-0.13
867.024	-0.14
867.316	-0.15
867.608	-0.14
867.9	-0.14
868.192	-0.15
868.484	-0.14
868.776	-0.15
869.068	-0.15
869.359	-0.14
869.651	-0.15
869.943	-0.16
870.234	-0.16
870.526	-0.17
870.817	-0.16
871.108	-0.14
871.4	-0.15
871.691	-0.16
871.982	-0.17
872.273	-0.17
872.564	-0.17
872.855	-0.17
873.146	-0.17
873.437	-0.17
873.728	-0.18
874.019	-0.17
874.309	-0.17
874.6	-0.17
874.89	-0.18
875.181	-0.18
875.471	-0.17
875.762	-0.16
876.052	-0.17
876.342	-0.16
876.632	-0.18
876.922	-0.18
877.213	-0.18
877.503	-0.19
877.792	-0.17
878.082	-0.18
878.372	-0.17
878.662	-0.19
878.952	-0.17
879.241	-0.18
879.531	-0.18
879.82	-0.18
880.11	-0.18
880.399	-0.18
880.688	-0.17
880.978	-0.17
881.267	-0.17
