Data from 12-12-AQDScycling_Absorbance__700__00700.txt Node

Date: Tue Dec 12 13:51:44 EST 2023
User: kyuminlee
Spectrometer: FLMS00943
Trigger mode: 0
Integration Time (sec): 1.000000E-1
Scans to average: 1
Electric dark correction enabled: true
Nonlinearity correction enabled: false
Boxcar width: 0
XAxis mode: Wavelengths
Number of Pixels in Spectrum: 2048
>>>>>Begin Spectral Data<<<<<
179.651	-0
180.037	-0
180.424	-0
180.81	-0.3
181.197	0.6
181.583	-0.4
181.97	-0.57
182.356	-0
182.743	-0
183.129	-0
183.515	1.13
183.901	-1.72
184.288	0.83
184.674	-0
185.06	-0.49
185.446	-0.04
185.832	-0.85
186.218	0
186.604	0.09
186.99	-0.42
187.376	-0
187.762	-0
188.148	0.26
188.534	-0.36
188.92	0.09
189.305	0.16
189.691	0.2
190.077	0.15
190.463	0.07
190.848	0.03
191.234	0.07
191.619	0.11
192.005	0.18
192.391	0.12
192.776	0.05
193.161	0.04
193.547	0.1
193.932	0.11
194.318	0.05
194.703	0.11
195.088	0.19
195.473	0.15
195.859	0.21
196.244	0.21
196.629	0.15
197.014	0.15
197.399	0.17
197.784	0.09
198.169	0.06
198.554	0.31
198.939	0.04
199.324	0.14
199.709	0.05
200.094	0.08
200.478	0.3
200.863	0.07
201.248	0.16
201.633	0.12
202.017	0.09
202.402	0.09
202.787	0.09
203.171	0.06
203.556	0.42
203.94	0.23
204.325	0.16
204.709	0.23
205.093	0.1
205.478	0.1
205.862	0.07
206.246	0.2
206.631	0.23
207.015	0.17
207.399	0.14
207.783	0.15
208.167	0.25
208.551	0.19
208.935	0.12
209.319	0.14
209.703	0.15
210.087	0.19
210.471	0.26
210.855	0.14
211.239	0.42
211.623	0.22
212.007	0.31
212.39	0.25
212.774	0.14
213.158	0.2
213.541	0.23
213.925	0.16
214.309	0.35
214.692	0.26
215.076	0.2
215.459	0.13
215.842	0.09
216.226	0.19
216.609	0.33
216.993	0.11
217.376	0.44
217.759	0.18
218.142	0.23
218.525	0.5
218.909	0.29
219.292	0.28
219.675	0.41
220.058	0.41
220.441	0.53
220.824	0.5
221.207	0.39
221.59	0.5
221.973	0.43
222.355	0.55
222.738	0.68
223.121	0.67
223.504	0.6
223.886	0.72
224.269	0.77
224.652	0.7
225.034	0.69
225.417	0.67
225.799	0.73
226.182	0.81
226.564	0.83
226.947	0.86
227.329	0.84
227.711	1.08
228.094	0.96
228.476	0.78
228.858	0.78
229.24	0.8
229.623	0.89
230.005	0.82
230.387	0.89
230.769	0.81
231.151	0.95
231.533	0.91
231.915	0.89
232.297	1.12
232.679	0.94
233.061	0.93
233.442	1.17
233.824	1.06
234.206	1.08
234.588	1.08
234.969	0.98
235.351	1.09
235.733	1.03
236.114	1.14
236.496	1.2
236.877	1.12
237.259	1.05
237.64	1.04
238.022	0.94
238.403	0.97
238.784	1.03
239.165	0.93
239.547	1.05
239.928	1.02
240.309	1.02
240.69	1
241.071	1.06
241.452	1.15
241.834	1.03
242.215	1.03
242.595	1.15
242.976	1.15
243.357	1.12
243.738	1.03
244.119	1.26
244.5	1.12
244.881	1.19
245.261	1.27
245.642	1.15
246.023	1.2
246.403	1.21
246.784	1.21
247.164	1.35
247.545	1.2
247.925	1.3
248.306	1.21
248.686	1.47
249.067	1.21
249.447	1.32
249.827	1.69
250.207	1.35
250.588	1.28
250.968	1.42
251.348	1.45
251.728	1.47
252.108	1.61
252.488	1.56
252.868	1.33
253.248	1.27
253.628	1.33
254.008	1.46
254.388	1.28
254.768	1.29
255.147	1.38
255.527	1.31
255.907	1.32
256.287	1.32
256.666	1.44
257.046	1.46
257.425	1.48
257.805	1.41
258.184	1.28
258.564	1.36
258.943	1.37
259.323	1.41
259.702	1.5
260.081	1.43
260.461	1.5
260.84	1.42
261.219	1.82
261.598	1.46
261.977	1.34
262.356	1.4
262.736	1.48
263.115	1.44
263.494	1.33
263.873	1.48
264.251	1.49
264.63	1.74
265.009	1.48
265.388	1.43
265.767	1.4
266.145	1.31
266.524	1.37
266.903	1.46
267.281	1.26
267.66	1.73
268.039	1.51
268.417	1.39
268.796	1.37
269.174	1.42
269.552	1.37
269.931	1.44
270.309	1.42
270.687	1.49
271.066	1.63
271.444	1.32
271.822	1.62
272.2	1.46
272.578	1.64
272.956	1.5
273.334	1.36
273.712	1.64
274.09	1.39
274.468	1.29
274.846	1.28
275.224	1.3
275.602	1.39
275.98	1.48
276.357	1.32
276.735	1.4
277.113	1.35
277.49	1.31
277.868	1.23
278.246	1.33
278.623	1.31
279.001	1.37
279.378	1.41
279.756	1.42
280.133	1.38
280.51	1.6
280.888	1.42
281.265	1.35
281.642	1.42
282.019	1.52
282.396	1.5
282.773	1.39
283.151	1.41
283.528	1.46
283.905	1.36
284.282	1.38
284.659	1.48
285.035	1.29
285.412	1.34
285.789	1.55
286.166	1.45
286.543	1.49
286.919	1.32
287.296	1.37
287.673	1.85
288.049	1.48
288.426	1.53
288.802	1.62
289.179	1.61
289.555	1.75
289.932	1.56
290.308	1.26
290.684	1.35
291.061	1.33
291.437	1.73
291.813	1.28
292.189	1.23
292.565	1.39
292.942	1.35
293.318	1.31
293.694	1.37
294.07	1.48
294.446	1.45
294.822	1.57
295.197	1.59
295.573	1.36
295.949	1.43
296.325	1.51
296.701	1.51
297.076	1.5
297.452	1.54
297.828	1.42
298.203	1.54
298.579	1.61
298.954	1.44
299.33	1.51
299.705	1.47
300.081	1.49
300.456	1.56
300.831	1.49
301.206	1.42
301.582	1.6
301.957	1.53
302.332	1.66
302.707	1.45
303.082	1.5
303.457	1.46
303.832	1.47
304.207	1.42
304.582	1.62
304.957	1.51
305.332	1.67
305.707	1.49
306.082	1.75
306.456	1.76
306.831	1.54
307.206	1.52
307.58	1.54
307.955	1.57
308.33	1.43
308.704	1.55
309.079	1.55
309.453	1.61
309.828	1.52
310.202	1.5
310.576	1.51
310.951	1.59
311.325	1.58
311.699	1.63
312.073	1.57
312.447	1.41
312.821	1.39
313.196	1.48
313.57	1.44
313.944	1.4
314.317	1.5
314.691	1.6
315.065	1.54
315.439	1.57
315.813	1.62
316.187	1.46
316.56	1.57
316.934	1.58
317.308	1.51
317.681	1.49
318.055	1.5
318.428	1.73
318.802	1.47
319.175	1.58
319.549	1.49
319.922	1.32
320.295	1.53
320.669	1.81
321.042	1.56
321.415	1.66
321.788	1.53
322.162	1.46
322.535	1.59
322.908	1.44
323.281	1.49
323.654	1.51
324.027	1.47
324.4	1.63
324.773	1.54
325.145	1.53
325.518	1.56
325.891	1.45
326.264	1.6
326.636	1.37
327.009	1.63
327.382	1.49
327.754	1.49
328.127	1.44
328.499	1.51
328.872	1.49
329.244	1.6
329.616	1.46
329.989	1.4
330.361	1.56
330.733	1.43
331.106	1.48
331.478	1.59
331.85	1.4
332.222	1.36
332.594	1.5
332.966	1.5
333.338	1.56
333.71	1.79
334.082	1.56
334.454	1.45
334.826	1.6
335.197	1.59
335.569	1.48
335.941	1.44
336.312	1.49
336.684	1.41
337.056	1.43
337.427	1.5
337.799	1.63
338.17	1.47
338.542	1.51
338.913	1.73
339.284	1.65
339.656	1.47
340.027	1.54
340.398	1.63
340.769	1.57
341.141	1.66
341.512	1.59
341.883	1.65
342.254	1.54
342.625	1.7
342.996	1.51
343.367	1.47
343.738	1.43
344.108	1.39
344.479	1.6
344.85	1.44
345.221	1.6
345.591	1.39
345.962	1.39
346.333	1.39
346.703	1.34
347.074	1.45
347.444	1.31
347.815	1.37
348.185	1.46
348.556	1.57
348.926	1.28
349.296	1.38
349.666	1.34
350.037	1.34
350.407	1.29
350.777	1.36
351.147	1.33
351.517	1.44
351.887	1.43
352.257	1.37
352.627	1.28
352.997	1.3
353.367	1.29
353.737	1.45
354.106	1.4
354.476	1.41
354.846	1.35
355.216	1.29
355.585	1.3
355.955	1.29
356.324	1.32
356.694	1.27
357.063	1.2
357.433	1.23
357.802	1.21
358.171	1.28
358.541	1.21
358.91	1.16
359.279	1.15
359.648	1.17
360.017	1.14
360.387	1.19
360.756	1.07
361.125	1.06
361.494	1.13
361.863	0.99
362.231	1.02
362.6	0.95
362.969	0.92
363.338	0.94
363.707	0.97
364.075	0.93
364.444	0.85
364.813	0.88
365.181	0.84
365.55	0.87
365.918	0.87
366.287	0.78
366.655	0.83
367.024	0.79
367.392	0.76
367.76	0.71
368.128	0.74
368.497	0.71
368.865	0.72
369.233	0.68
369.601	0.67
369.969	0.66
370.337	0.64
370.705	0.62
371.073	0.64
371.441	0.59
371.809	0.61
372.177	0.62
372.544	0.6
372.912	0.57
373.28	0.57
373.647	0.58
374.015	0.58
374.383	0.57
374.75	0.58
375.118	0.53
375.485	0.53
375.853	0.53
376.22	0.5
376.587	0.51
376.955	0.51
377.322	0.51
377.689	0.49
378.056	0.48
378.423	0.47
378.79	0.5
379.157	0.48
379.524	0.46
379.891	0.47
380.258	0.47
380.625	0.45
380.992	0.46
381.359	0.44
381.726	0.46
382.092	0.43
382.459	0.43
382.826	0.45
383.192	0.43
383.559	0.45
383.925	0.41
384.292	0.41
384.658	0.44
385.025	0.41
385.391	0.43
385.757	0.43
386.123	0.43
386.49	0.43
386.856	0.43
387.222	0.41
387.588	0.41
387.954	0.42
388.32	0.43
388.686	0.4
389.052	0.39
389.418	0.41
389.784	0.4
390.15	0.4
390.515	0.4
390.881	0.41
391.247	0.41
391.613	0.41
391.978	0.39
392.344	0.4
392.709	0.39
393.075	0.4
393.44	0.39
393.806	0.39
394.171	0.39
394.536	0.39
394.902	0.37
395.267	0.37
395.632	0.36
395.997	0.39
396.362	0.39
396.727	0.38
397.092	0.37
397.457	0.37
397.822	0.37
398.187	0.36
398.552	0.36
398.917	0.36
399.282	0.36
399.646	0.35
400.011	0.35
400.376	0.35
400.74	0.37
401.105	0.35
401.47	0.37
401.834	0.35
402.199	0.35
402.563	0.34
402.927	0.34
403.292	0.35
403.656	0.34
404.02	0.36
404.384	0.35
404.749	0.32
405.113	0.35
405.477	0.33
405.841	0.32
406.205	0.31
406.569	0.32
406.933	0.31
407.296	0.32
407.66	0.32
408.024	0.32
408.388	0.32
408.752	0.29
409.115	0.31
409.479	0.3
409.842	0.3
410.206	0.31
410.569	0.31
410.933	0.31
411.296	0.29
411.66	0.29
412.023	0.29
412.386	0.3
412.749	0.29
413.113	0.28
413.476	0.26
413.839	0.29
414.202	0.28
414.565	0.27
414.928	0.29
415.291	0.26
415.654	0.27
416.017	0.28
416.38	0.26
416.742	0.25
417.105	0.25
417.468	0.27
417.83	0.27
418.193	0.27
418.556	0.27
418.918	0.26
419.281	0.26
419.643	0.26
420.005	0.24
420.368	0.25
420.73	0.26
421.092	0.25
421.455	0.25
421.817	0.24
422.179	0.25
422.541	0.24
422.903	0.24
423.265	0.23
423.627	0.23
423.989	0.23
424.351	0.24
424.713	0.23
425.075	0.22
425.436	0.22
425.798	0.23
426.16	0.22
426.521	0.23
426.883	0.24
427.245	0.23
427.606	0.21
427.967	0.23
428.329	0.21
428.69	0.23
429.052	0.23
429.413	0.23
429.774	0.23
430.135	0.21
430.497	0.21
430.858	0.2
431.219	0.21
431.58	0.22
431.941	0.21
432.302	0.22
432.663	0.21
433.024	0.23
433.384	0.21
433.745	0.2
434.106	0.21
434.467	0.21
434.827	0.22
435.188	0.21
435.548	0.23
435.909	0.21
436.269	0.23
436.63	0.19
436.99	0.21
437.351	0.21
437.711	0.22
438.071	0.2
438.431	0.21
438.792	0.2
439.152	0.19
439.512	0.19
439.872	0.19
440.232	0.21
440.592	0.2
440.952	0.2
441.312	0.19
441.671	0.19
442.031	0.19
442.391	0.19
442.751	0.2
443.11	0.19
443.47	0.19
443.83	0.19
444.189	0.18
444.549	0.19
444.908	0.2
445.267	0.18
445.627	0.18
445.986	0.18
446.345	0.17
446.705	0.17
447.064	0.17
447.423	0.18
447.782	0.17
448.141	0.18
448.5	0.16
448.859	0.17
449.218	0.17
449.577	0.17
449.936	0.18
450.295	0.17
450.653	0.17
451.012	0.18
451.371	0.17
451.729	0.18
452.088	0.18
452.447	0.18
452.805	0.18
453.163	0.18
453.522	0.18
453.88	0.17
454.239	0.17
454.597	0.16
454.955	0.17
455.313	0.16
455.671	0.17
456.029	0.15
456.388	0.16
456.746	0.16
457.104	0.15
457.461	0.15
457.819	0.15
458.177	0.14
458.535	0.15
458.893	0.14
459.25	0.14
459.608	0.15
459.966	0.14
460.323	0.13
460.681	0.13
461.038	0.14
461.396	0.13
461.753	0.13
462.111	0.14
462.468	0.14
462.825	0.12
463.182	0.14
463.54	0.12
463.897	0.13
464.254	0.13
464.611	0.13
464.968	0.13
465.325	0.14
465.682	0.13
466.039	0.14
466.395	0.12
466.752	0.12
467.109	0.12
467.466	0.12
467.822	0.13
468.179	0.11
468.535	0.12
468.892	0.12
469.248	0.11
469.605	0.12
469.961	0.11
470.318	0.12
470.674	0.12
471.03	0.11
471.386	0.12
471.743	0.11
472.099	0.11
472.455	0.11
472.811	0.1
473.167	0.11
473.523	0.11
473.879	0.11
474.235	0.11
474.59	0.11
474.946	0.1
475.302	0.11
475.657	0.1
476.013	0.1
476.369	0.09
476.724	0.1
477.08	0.1
477.435	0.1
477.791	0.09
478.146	0.1
478.501	0.1
478.857	0.1
479.212	0.1
479.567	0.09
479.922	0.09
480.277	0.09
480.632	0.09
480.987	0.09
481.342	0.09
481.697	0.08
482.052	0.09
482.407	0.09
482.762	0.08
483.116	0.09
483.471	0.08
483.826	0.08
484.18	0.08
484.535	0.08
484.89	0.08
485.244	0.08
485.598	0.08
485.953	0.08
486.307	0.08
486.661	0.08
487.016	0.07
487.37	0.08
487.724	0.07
488.078	0.07
488.432	0.08
488.786	0.08
489.14	0.07
489.494	0.07
489.848	0.07
490.202	0.07
490.556	0.08
490.91	0.07
491.263	0.07
491.617	0.07
491.971	0.07
492.324	0.07
492.678	0.08
493.031	0.07
493.385	0.07
493.738	0.07
494.091	0.07
494.445	0.07
494.798	0.07
495.151	0.07
495.504	0.07
495.857	0.07
496.21	0.08
496.564	0.07
496.916	0.07
497.269	0.06
497.622	0.07
497.975	0.07
498.328	0.07
498.681	0.06
499.033	0.06
499.386	0.06
499.739	0.06
500.091	0.06
500.444	0.06
500.796	0.06
501.149	0.06
501.501	0.06
501.854	0.06
502.206	0.06
502.558	0.06
502.91	0.07
503.263	0.06
503.615	0.07
503.967	0.06
504.319	0.06
504.671	0.06
505.023	0.06
505.375	0.06
505.726	0.06
506.078	0.06
506.43	0.06
506.782	0.05
507.133	0.06
507.485	0.07
507.837	0.07
508.188	0.06
508.54	0.06
508.891	0.06
509.243	0.05
509.594	0.06
509.945	0.06
510.296	0.05
510.648	0.06
510.999	0.05
511.35	0.06
511.701	0.06
512.052	0.06
512.403	0.07
512.754	0.05
513.105	0.06
513.456	0.05
513.807	0.05
514.157	0.06
514.508	0.06
514.859	0.05
515.209	0.05
515.56	0.06
515.91	0.05
516.261	0.06
516.611	0.05
516.962	0.06
517.312	0.06
517.662	0.06
518.013	0.06
518.363	0.06
518.713	0.06
519.063	0.06
519.413	0.06
519.763	0.06
520.113	0.06
520.463	0.07
520.813	0.07
521.163	0.07
521.512	0.06
521.862	0.06
522.212	0.07
522.562	0.07
522.911	0.06
523.261	0.06
523.61	0.06
523.96	0.06
524.309	0.07
524.658	0.06
525.008	0.06
525.357	0.06
525.706	0.06
526.056	0.06
526.405	0.06
526.754	0.06
527.103	0.06
527.452	0.06
527.801	0.06
528.15	0.06
528.499	0.07
528.847	0.06
529.196	0.07
529.545	0.07
529.893	0.07
530.242	0.06
530.591	0.07
530.939	0.07
531.288	0.07
531.636	0.07
531.985	0.07
532.333	0.06
532.681	0.07
533.029	0.07
533.378	0.06
533.726	0.06
534.074	0.07
534.422	0.06
534.77	0.07
535.118	0.07
535.466	0.06
535.814	0.06
536.162	0.07
536.509	0.07
536.857	0.06
537.205	0.07
537.552	0.07
537.9	0.07
538.248	0.06
538.595	0.07
538.943	0.06
539.29	0.07
539.637	0.07
539.985	0.07
540.332	0.06
540.679	0.06
541.026	0.06
541.373	0.07
541.721	0.06
542.068	0.06
542.415	0.06
542.762	0.07
543.108	0.05
543.455	0.05
543.802	0.06
544.149	0.06
544.496	0.06
544.842	0.06
545.189	0.05
545.535	0.05
545.882	0.05
546.228	0.05
546.575	0.05
546.921	0.05
547.267	0.05
547.614	0.05
547.96	0.05
548.306	0.05
548.652	0.05
548.998	0.05
549.344	0.05
549.69	0.06
550.036	0.05
550.382	0.05
550.728	0.05
551.074	0.06
551.42	0.06
551.765	0.06
552.111	0.06
552.457	0.06
552.802	0.06
553.148	0.06
553.493	0.05
553.839	0.06
554.184	0.06
554.529	0.05
554.875	0.06
555.22	0.06
555.565	0.05
555.91	0.06
556.255	0.06
556.6	0.07
556.945	0.05
557.29	0.06
557.635	0.07
557.98	0.06
558.325	0.06
558.67	0.06
559.014	0.06
559.359	0.07
559.704	0.05
560.048	0.05
560.393	0.06
560.737	0.05
561.082	0.05
561.426	0.05
561.77	0.06
562.115	0.05
562.459	0.05
562.803	0.05
563.147	0.05
563.491	0.06
563.835	0.05
564.179	0.05
564.523	0.05
564.867	0.06
565.211	0.06
565.555	0.06
565.899	0.07
566.242	0.06
566.586	0.05
566.93	0.05
567.273	0.06
567.617	0.06
567.96	0.06
568.304	0.06
568.647	0.05
568.99	0.06
569.334	0.06
569.677	0.06
570.02	0.06
570.363	0.06
570.706	0.06
571.049	0.06
571.392	0.06
571.735	0.06
572.078	0.06
572.421	0.07
572.764	0.06
573.106	0.06
573.449	0.06
573.792	0.06
574.134	0.06
574.477	0.06
574.819	0.06
575.162	0.05
575.504	0.06
575.847	0.06
576.189	0.06
576.531	0.06
576.873	0.05
577.215	0.06
577.558	0.06
577.9	0.05
578.242	0.06
578.584	0.06
578.926	0.05
579.267	0.06
579.609	0.06
579.951	0.05
580.293	0.06
580.634	0.06
580.976	0.06
581.318	0.06
581.659	0.06
582.001	0.06
582.342	0.05
582.683	0.05
583.025	0.05
583.366	0.06
583.707	0.05
584.049	0.04
584.39	0.05
584.731	0.05
585.072	0.05
585.413	0.06
585.754	0.05
586.095	0.06
586.435	0.06
586.776	0.05
587.117	0.06
587.458	0.05
587.798	0.06
588.139	0.06
588.48	0.05
588.82	0.06
589.161	0.04
589.501	0.05
589.841	0.05
590.182	0.06
590.522	0.05
590.862	0.06
591.202	0.05
591.542	0.05
591.882	0.05
592.222	0.06
592.562	0.05
592.902	0.05
593.242	0.05
593.582	0.06
593.922	0.05
594.261	0.05
594.601	0.06
594.941	0.05
595.28	0.05
595.62	0.06
595.959	0.05
596.299	0.05
596.638	0.05
596.977	0.05
597.317	0.06
597.656	0.05
597.995	0.05
598.334	0.06
598.673	0.06
599.012	0.05
599.351	0.06
599.69	0.06
600.029	0.06
600.368	0.06
600.707	0.06
601.046	0.06
601.384	0.07
601.723	0.06
602.061	0.05
602.4	0.06
602.738	0.06
603.077	0.06
603.415	0.06
603.754	0.06
604.092	0.06
604.43	0.06
604.768	0.06
605.107	0.06
605.445	0.06
605.783	0.06
606.121	0.05
606.459	0.06
606.796	0.06
607.134	0.05
607.472	0.04
607.81	0.05
608.148	0.05
608.485	0.06
608.823	0.06
609.16	0.05
609.498	0.06
609.835	0.05
610.173	0.05
610.51	0.05
610.847	0.06
611.185	0.06
611.522	0.06
611.859	0.06
612.196	0.06
612.533	0.06
612.87	0.07
613.207	0.06
613.544	0.07
613.881	0.07
614.217	0.06
614.554	0.07
614.891	0.06
615.228	0.06
615.564	0.07
615.901	0.06
616.237	0.07
616.574	0.07
616.91	0.07
617.246	0.07
617.583	0.07
617.919	0.07
618.255	0.07
618.591	0.06
618.927	0.07
619.263	0.07
619.599	0.07
619.935	0.06
620.271	0.07
620.607	0.07
620.943	0.06
621.279	0.07
621.614	0.07
621.95	0.06
622.286	0.07
622.621	0.06
622.957	0.06
623.292	0.06
623.627	0.06
623.963	0.06
624.298	0.07
624.633	0.06
624.968	0.06
625.304	0.06
625.639	0.06
625.974	0.06
626.309	0.05
626.644	0.06
626.979	0.07
627.313	0.06
627.648	0.06
627.983	0.06
628.318	0.06
628.652	0.05
628.987	0.06
629.321	0.06
629.656	0.05
629.99	0.05
630.325	0.05
630.659	0.05
630.993	0.05
631.327	0.05
631.662	0.04
631.996	0.05
632.33	0.05
632.664	0.06
632.998	0.04
633.332	0.05
633.666	0.05
633.999	0.05
634.333	0.04
634.667	0.04
635.001	0.05
635.334	0.05
635.668	0.05
636.001	0.05
636.335	0.05
636.668	0.05
637.001	0.05
637.335	0.05
637.668	0.05
638.001	0.04
638.334	0.05
638.668	0.05
639.001	0.05
639.334	0.05
639.667	0.05
639.999	0.04
640.332	0.05
640.665	0.05
640.998	0.05
641.331	0.06
641.663	0.05
641.996	0.05
642.328	0.06
642.661	0.05
642.993	0.05
643.326	0.05
643.658	0.05
643.99	0.05
644.323	0.05
644.655	0.05
644.987	0.05
645.319	0.05
645.651	0.06
645.983	0.05
646.315	0.05
646.647	0.06
646.979	0.06
647.31	0.06
647.642	0.06
647.974	0.06
648.305	0.06
648.637	0.05
648.968	0.05
649.3	0.06
649.631	0.06
649.963	0.05
650.294	0.06
650.625	0.05
650.957	0.06
651.288	0.06
651.619	0.06
651.95	0.06
652.281	0.06
652.612	0.06
652.943	0.06
653.274	0.06
653.604	0.06
653.935	0.06
654.266	0.06
654.596	0.05
654.927	0.05
655.258	0.06
655.588	0.07
655.918	0.06
656.249	0.04
656.579	0.05
656.909	0.05
657.24	0.04
657.57	0.05
657.9	0.06
658.23	0.05
658.56	0.06
658.89	0.05
659.22	0.06
659.55	0.05
659.88	0.05
660.209	0.06
660.539	0.07
660.869	0.06
661.198	0.06
661.528	0.06
661.857	0.05
662.187	0.06
662.516	0.05
662.846	0.05
663.175	0.05
663.504	0.05
663.833	0.05
664.163	0.06
664.492	0.05
664.821	0.05
665.15	0.05
665.479	0.05
665.807	0.05
666.136	0.05
666.465	0.06
666.794	0.06
667.122	0.06
667.451	0.06
667.78	0.06
668.108	0.06
668.437	0.06
668.765	0.06
669.093	0.06
669.422	0.06
669.75	0.06
670.078	0.06
670.406	0.07
670.734	0.07
671.062	0.06
671.39	0.06
671.718	0.06
672.046	0.06
672.374	0.05
672.702	0.05
673.029	0.05
673.357	0.06
673.685	0.06
674.012	0.05
674.34	0.06
674.667	0.06
674.995	0.06
675.322	0.06
675.649	0.05
675.977	0.06
676.304	0.06
676.631	0.06
676.958	0.05
677.285	0.05
677.612	0.05
677.939	0.06
678.266	0.06
678.593	0.05
678.92	0.06
679.246	0.05
679.573	0.06
679.9	0.05
680.226	0.06
680.553	0.05
680.879	0.06
681.206	0.05
681.532	0.05
681.858	0.06
682.184	0.06
682.511	0.06
682.837	0.06
683.163	0.06
683.489	0.06
683.815	0.06
684.141	0.06
684.467	0.06
684.793	0.06
685.118	0.06
685.444	0.06
685.77	0.06
686.095	0.06
686.421	0.06
686.746	0.06
687.072	0.06
687.397	0.05
687.723	0.06
688.048	0.06
688.373	0.05
688.698	0.06
689.023	0.05
689.349	0.05
689.674	0.05
689.999	0.05
690.323	0.04
690.648	0.05
690.973	0.04
691.298	0.05
691.623	0.05
691.947	0.05
692.272	0.05
692.596	0.06
692.921	0.05
693.245	0.05
693.57	0.06
693.894	0.06
694.218	0.06
694.543	0.06
694.867	0.06
695.191	0.05
695.515	0.06
695.839	0.05
696.163	0.05
696.487	0.05
696.811	0.05
697.135	0.06
697.458	0.06
697.782	0.05
698.106	0.06
698.429	0.06
698.753	0.05
699.076	0.05
699.4	0.05
699.723	0.06
700.046	0.05
700.37	0.06
700.693	0.06
701.016	0.06
701.339	0.05
701.662	0.06
701.985	0.06
702.308	0.05
702.631	0.05
702.954	0.06
703.277	0.05
703.599	0.06
703.922	0.05
704.245	0.05
704.567	0.05
704.89	0.05
705.212	0.05
705.535	0.05
705.857	0.04
706.179	0.05
706.502	0.04
706.824	0.05
707.146	0.05
707.468	0.05
707.79	0.05
708.112	0.05
708.434	0.05
708.756	0.06
709.078	0.06
709.399	0.05
709.721	0.05
710.043	0.05
710.364	0.05
710.686	0.05
711.007	0.05
711.329	0.06
711.65	0.06
711.972	0.06
712.293	0.06
712.614	0.05
712.935	0.06
713.256	0.05
713.577	0.06
713.898	0.05
714.219	0.05
714.54	0.05
714.861	0.05
715.182	0.05
715.503	0.05
715.823	0.05
716.144	0.05
716.464	0.05
716.785	0.04
717.105	0.05
717.426	0.05
717.746	0.05
718.066	0.04
718.387	0.04
718.707	0.04
719.027	0.05
719.347	0.04
719.667	0.05
719.987	0.04
720.307	0.04
720.627	0.04
720.947	0.04
721.266	0.04
721.586	0.04
721.906	0.05
722.225	0.04
722.545	0.04
722.864	0.04
723.184	0.05
723.503	0.05
723.823	0.05
724.142	0.04
724.461	0.05
724.78	0.04
725.099	0.05
725.418	0.05
725.737	0.04
726.056	0.05
726.375	0.05
726.694	0.05
727.013	0.04
727.331	0.04
727.65	0.04
727.969	0.05
728.287	0.05
728.606	0.05
728.924	0.04
729.242	0.05
729.561	0.05
729.879	0.04
730.197	0.05
730.515	0.04
730.834	0.05
731.152	0.04
731.47	0.05
731.788	0.05
732.105	0.04
732.423	0.05
732.741	0.04
733.059	0.05
733.376	0.06
733.694	0.04
734.012	0.04
734.329	0.05
734.647	0.05
734.964	0.05
735.281	0.05
735.599	0.06
735.916	0.06
736.233	0.05
736.55	0.06
736.867	0.05
737.184	0.06
737.501	0.05
737.818	0.05
738.135	0.06
738.452	0.05
738.768	0.05
739.085	0.05
739.402	0.04
739.718	0.05
740.035	0.05
740.351	0.05
740.668	0.06
740.984	0.05
741.3	0.04
741.617	0.05
741.933	0.05
742.249	0.05
742.565	0.04
742.881	0.05
743.197	0.05
743.513	0.05
743.829	0.04
744.144	0.04
744.46	0.05
744.776	0.05
745.091	0.05
745.407	0.04
745.722	0.05
746.038	0.04
746.353	0.04
746.669	0.04
746.984	0.04
747.299	0.04
747.614	0.05
747.93	0.05
748.245	0.03
748.56	0.04
748.875	0.04
749.189	0.04
749.504	0.04
749.819	0.04
750.134	0.03
750.448	0.04
750.763	0.04
751.078	0.03
751.392	0.04
751.707	0.05
752.021	0.05
752.335	0.05
752.65	0.05
752.964	0.04
753.278	0.05
753.592	0.04
753.906	0.04
754.22	0.05
754.534	0.05
754.848	0.05
755.162	0.05
755.476	0.05
755.789	0.05
756.103	0.04
756.417	0.05
756.73	0.05
757.044	0.05
757.357	0.04
757.671	0.04
757.984	0.05
758.297	0.06
758.61	0.05
758.924	0.05
759.237	0.04
759.55	0.05
759.863	0.04
760.176	0.05
760.488	0.05
760.801	0.04
761.114	0.04
761.427	0.04
761.739	0.05
762.052	0.04
762.365	0.05
762.677	0.04
762.99	0.04
763.302	0.04
763.614	0.05
763.926	0.04
764.239	0.04
764.551	0.05
764.863	0.04
765.175	0.05
765.487	0.04
765.799	0.03
766.111	0.03
766.423	0.05
766.734	0.04
767.046	0.04
767.358	0.05
767.669	0.04
767.981	0.05
768.292	0.04
768.604	0.05
768.915	0.04
769.226	0.04
769.537	0.03
769.849	0.05
770.16	0.04
770.471	0.04
770.782	0.05
771.093	0.04
771.404	0.03
771.715	0.04
772.025	0.04
772.336	0.04
772.647	0.03
772.957	0.04
773.268	0.05
773.578	0.03
773.889	0.05
774.199	0.05
774.51	0.05
774.82	0.04
775.13	0.05
775.44	0.05
775.75	0.06
776.06	0.05
776.37	0.05
776.68	0.05
776.99	0.05
777.3	0.05
777.61	0.05
777.92	0.05
778.229	0.04
778.539	0.05
778.848	0.05
779.158	0.04
779.467	0.06
779.777	0.04
780.086	0.05
780.395	0.03
780.704	0.04
781.013	0.03
781.323	0.04
781.632	0.04
781.941	0.04
782.249	0.04
782.558	0.03
782.867	0.04
783.176	0.04
783.485	0.04
783.793	0.05
784.102	0.04
784.41	0.04
784.719	0.04
785.027	0.03
785.335	0.04
785.644	0.04
785.952	0.04
786.26	0.04
786.568	0.03
786.876	0.04
787.184	0.04
787.492	0.04
787.8	0.04
788.108	0.04
788.416	0.04
788.723	0.05
789.031	0.04
789.338	0.04
789.646	0.04
789.953	0.05
790.261	0.05
790.568	0.05
790.876	0.05
791.183	0.05
791.49	0.04
791.797	0.04
792.104	0.04
792.411	0.04
792.718	0.04
793.025	0.05
793.332	0.04
793.639	0.05
793.945	0.06
794.252	0.05
794.559	0.05
794.865	0.05
795.172	0.05
795.478	0.05
795.784	0.05
796.091	0.06
796.397	0.06
796.703	0.05
797.009	0.06
797.315	0.05
797.622	0.05
797.927	0.05
798.233	0.05
798.539	0.06
798.845	0.06
799.151	0.06
799.456	0.06
799.762	0.05
800.068	0.05
800.373	0.06
800.679	0.05
800.984	0.06
801.289	0.04
801.595	0.06
801.9	0.05
802.205	0.05
802.51	0.05
802.815	0.05
803.12	0.06
803.425	0.05
803.73	0.05
804.035	0.05
804.339	0.05
804.644	0.05
804.949	0.05
805.253	0.05
805.558	0.04
805.862	0.04
806.167	0.04
806.471	0.04
806.775	0.05
807.08	0.05
807.384	0.05
807.688	0.04
807.992	0.05
808.296	0.04
808.6	0.04
808.904	0.05
809.207	0.05
809.511	0.05
809.815	0.06
810.119	0.05
810.422	0.05
810.726	0.06
811.029	0.06
811.332	0.06
811.636	0.06
811.939	0.05
812.242	0.06
812.546	0.06
812.849	0.06
813.152	0.07
813.455	0.06
813.758	0.07
814.06	0.06
814.363	0.06
814.666	0.06
814.969	0.07
815.271	0.06
815.574	0.06
815.877	0.06
816.179	0.06
816.481	0.05
816.784	0.06
817.086	0.05
817.388	0.05
817.69	0.05
817.993	0.04
818.295	0.05
818.597	0.04
818.899	0.04
819.2	0.03
819.502	0.04
819.804	0.04
820.106	0.04
820.407	0.04
820.709	0.04
821.01	0.04
821.312	0.05
821.613	0.03
821.915	0.04
822.216	0.03
822.517	0.02
822.818	0.04
823.119	0.04
823.42	0.04
823.721	0.04
824.022	0.03
824.323	0.04
824.624	0.03
824.925	0.05
825.226	0.04
825.526	0.04
825.827	0.03
826.127	0.04
826.428	0.04
826.728	0.03
827.028	0.03
827.329	0.03
827.629	0.02
827.929	0.03
828.229	0.04
828.529	0.04
828.829	0.03
829.129	0.04
829.429	0.04
829.729	0.04
830.029	0.03
830.328	0.04
830.628	0.03
830.927	0.02
831.227	0.03
831.526	0.03
831.826	0.03
832.125	0.03
832.424	0.02
832.724	0.03
833.023	0.03
833.322	0.03
833.621	0.03
833.92	0.02
834.219	0.02
834.518	0.03
834.816	0.01
835.115	0.03
835.414	0.02
835.712	0.02
836.011	0.01
836.309	0.02
836.608	0.01
836.906	0.01
837.205	-0
837.503	0
837.801	-0
838.099	-0
838.397	-0.01
838.695	-0.01
838.993	-0.01
839.291	-0.01
839.589	-0.01
839.887	-0.01
840.184	-0.02
840.482	-0.01
840.78	-0.01
841.077	-0.01
841.375	-0.01
841.672	-0.01
841.969	-0.02
842.267	-0.02
842.564	-0.01
842.861	-0.01
843.158	-0.01
843.455	-0.03
843.752	-0.02
844.049	-0.02
844.346	-0.02
844.643	-0.03
844.94	-0.03
845.236	-0.01
845.533	-0.02
845.83	-0.02
846.126	-0.02
846.423	-0.02
846.719	-0.04
847.015	-0.02
847.312	-0.03
847.608	-0.03
847.904	-0.04
848.2	-0.04
848.496	-0.04
848.792	-0.03
849.088	-0.02
849.384	-0.04
849.68	-0.03
849.975	-0.03
850.271	-0.04
850.567	-0.05
850.862	-0.04
851.158	-0.05
851.453	-0.04
851.748	-0.06
852.044	-0.05
852.339	-0.04
852.634	-0.06
852.929	-0.05
853.224	-0.05
853.519	-0.06
853.814	-0.05
854.109	-0.06
854.404	-0.06
854.699	-0.06
854.994	-0.06
855.288	-0.06
855.583	-0.05
855.877	-0.06
856.172	-0.05
856.466	-0.07
856.76	-0.07
857.055	-0.06
857.349	-0.07
857.643	-0.08
857.937	-0.09
858.231	-0.08
858.525	-0.09
858.819	-0.09
859.113	-0.1
859.407	-0.1
859.701	-0.09
859.994	-0.11
860.288	-0.09
860.581	-0.1
860.875	-0.1
861.168	-0.11
861.462	-0.11
861.755	-0.1
862.048	-0.1
862.341	-0.1
862.634	-0.11
862.928	-0.11
863.221	-0.1
863.513	-0.11
863.806	-0.11
864.099	-0.12
864.392	-0.12
864.685	-0.11
864.977	-0.11
865.27	-0.12
865.562	-0.11
865.855	-0.11
866.147	-0.11
866.44	-0.12
866.732	-0.12
867.024	-0.12
867.316	-0.12
867.608	-0.13
867.9	-0.13
868.192	-0.13
868.484	-0.13
868.776	-0.14
869.068	-0.13
869.359	-0.13
869.651	-0.12
869.943	-0.14
870.234	-0.13
870.526	-0.14
870.817	-0.14
871.108	-0.13
871.4	-0.13
871.691	-0.15
871.982	-0.15
872.273	-0.16
872.564	-0.15
872.855	-0.16
873.146	-0.15
873.437	-0.16
873.728	-0.17
874.019	-0.16
874.309	-0.16
874.6	-0.15
874.89	-0.17
875.181	-0.16
875.471	-0.16
875.762	-0.16
876.052	-0.16
876.342	-0.15
876.632	-0.15
876.922	-0.17
877.213	-0.17
877.503	-0.18
877.792	-0.16
878.082	-0.18
878.372	-0.16
878.662	-0.18
878.952	-0.18
879.241	-0.17
879.531	-0.16
879.82	-0.17
880.11	-0.17
880.399	-0.18
880.688	-0.15
880.978	-0.15
881.267	-0.15
