Data from 12-12-AQDScycling_Absorbance__397__00397.txt Node

Date: Tue Dec 12 12:35:59 EST 2023
User: kyuminlee
Spectrometer: FLMS00943
Trigger mode: 0
Integration Time (sec): 1.000000E-1
Scans to average: 1
Electric dark correction enabled: true
Nonlinearity correction enabled: false
Boxcar width: 0
XAxis mode: Wavelengths
Number of Pixels in Spectrum: 2048
>>>>>Begin Spectral Data<<<<<
179.651	-0.47
180.037	-0.47
180.424	-0.47
180.81	-0.55
181.197	0.49
181.583	-0.27
181.97	-0.04
182.356	-0
182.743	-0.97
183.129	-0
183.515	0.2
183.901	-2.78
184.288	0.84
184.674	-0
185.06	-0.97
185.446	-0
185.832	-1.47
186.218	-0
186.604	0.52
186.99	-0
187.376	-0
187.762	-0
188.148	0.22
188.534	-0.05
188.92	0.12
189.305	0.08
189.691	0.25
190.077	0.26
190.463	0.31
190.848	0.13
191.234	0.16
191.619	0.04
192.005	0.07
192.391	0.19
192.776	0.21
193.161	0.21
193.547	0.13
193.932	0.19
194.318	0.03
194.703	0.07
195.088	0.4
195.473	0.24
195.859	0.19
196.244	0.17
196.629	0.18
197.014	0.16
197.399	0.12
197.784	0.09
198.169	0.18
198.554	0.24
198.939	0.18
199.324	0.11
199.709	0.13
200.094	0.19
200.478	0.02
200.863	0.16
201.248	0.2
201.633	0.13
202.017	0.1
202.402	0.29
202.787	0.45
203.171	0.19
203.556	0.12
203.94	0.15
204.325	0.17
204.709	0.27
205.093	0.19
205.478	0.14
205.862	0.11
206.246	0.16
206.631	0.11
207.015	0.07
207.399	0.21
207.783	0.13
208.167	0.15
208.551	0.28
208.935	0.19
209.319	0.16
209.703	0.1
210.087	0.13
210.471	0.09
210.855	0.17
211.239	0.35
211.623	0.29
212.007	0.27
212.39	0.24
212.774	0.16
213.158	0.22
213.541	0.27
213.925	0.19
214.309	0.25
214.692	0.25
215.076	0.24
215.459	0.17
215.842	0.21
216.226	0.17
216.609	0.21
216.993	0.49
217.376	0.57
217.759	0.23
218.142	0.31
218.525	0.37
218.909	0.44
219.292	0.32
219.675	0.44
220.058	0.51
220.441	0.49
220.824	0.58
221.207	0.56
221.59	0.51
221.973	0.51
222.355	0.47
222.738	0.73
223.121	0.54
223.504	0.52
223.886	0.64
224.269	0.76
224.652	0.74
225.034	0.67
225.417	0.66
225.799	0.78
226.182	0.95
226.564	0.9
226.947	0.78
227.329	0.78
227.711	0.98
228.094	0.9
228.476	0.9
228.858	0.85
229.24	0.75
229.623	0.91
230.005	0.88
230.387	0.87
230.769	0.93
231.151	1.06
231.533	0.96
231.915	0.89
232.297	1.01
232.679	0.95
233.061	1.11
233.442	1.02
233.824	1.13
234.206	1.14
234.588	1.06
234.969	1.13
235.351	1.02
235.733	1.17
236.114	1.13
236.496	1.07
236.877	1.11
237.259	1.22
237.64	1.06
238.022	1.1
238.403	1.03
238.784	1.04
239.165	0.95
239.547	1.1
239.928	1.13
240.309	1.03
240.69	1.05
241.071	1.13
241.452	1.18
241.834	1.12
242.215	1.05
242.595	1.1
242.976	1.16
243.357	1.13
243.738	1.18
244.119	1.35
244.5	1.11
244.881	1.41
245.261	1.22
245.642	1.2
246.023	1.19
246.403	1.14
246.784	1.27
247.164	1.23
247.545	1.31
247.925	1.31
248.306	1.28
248.686	1.44
249.067	1.19
249.447	1.4
249.827	1.45
250.207	1.85
250.588	1.25
250.968	1.54
251.348	1.35
251.728	1.42
252.108	1.48
252.488	1.45
252.868	1.36
253.248	1.31
253.628	1.36
254.008	1.43
254.388	1.34
254.768	1.34
255.147	1.44
255.527	1.38
255.907	1.39
256.287	1.35
256.666	1.48
257.046	1.48
257.425	1.47
257.805	1.26
258.184	1.33
258.564	1.39
258.943	1.41
259.323	1.54
259.702	1.44
260.081	1.4
260.461	1.39
260.84	1.46
261.219	1.67
261.598	1.58
261.977	1.5
262.356	1.5
262.736	1.54
263.115	1.56
263.494	1.39
263.873	1.57
264.251	1.5
264.63	1.58
265.009	1.39
265.388	1.45
265.767	1.23
266.145	1.42
266.524	1.39
266.903	1.34
267.281	1.35
267.66	1.47
268.039	1.51
268.417	1.38
268.796	1.63
269.174	1.41
269.552	1.31
269.931	1.44
270.309	1.4
270.687	1.58
271.066	1.71
271.444	1.44
271.822	1.42
272.2	1.61
272.578	1.33
272.956	1.37
273.334	1.34
273.712	1.38
274.09	1.46
274.468	1.4
274.846	1.2
275.224	1.41
275.602	1.57
275.98	1.55
276.357	1.41
276.735	1.41
277.113	1.32
277.49	1.46
277.868	1.26
278.246	1.37
278.623	1.33
279.001	1.45
279.378	1.4
279.756	1.65
280.133	1.57
280.51	1.43
280.888	1.36
281.265	1.31
281.642	1.49
282.019	1.54
282.396	1.48
282.773	1.47
283.151	1.76
283.528	1.52
283.905	1.41
284.282	1.54
284.659	1.89
285.035	1.46
285.412	1.47
285.789	1.57
286.166	1.52
286.543	1.48
286.919	1.61
287.296	1.42
287.673	2.1
288.049	1.6
288.426	1.52
288.802	1.69
289.179	1.44
289.555	1.55
289.932	1.52
290.308	1.37
290.684	1.4
291.061	1.37
291.437	1.64
291.813	1.39
292.189	1.35
292.565	1.29
292.942	1.35
293.318	1.37
293.694	1.35
294.07	1.28
294.446	1.44
294.822	1.46
295.197	1.43
295.573	1.6
295.949	1.44
296.325	1.44
296.701	1.56
297.076	1.55
297.452	1.64
297.828	1.4
298.203	1.52
298.579	1.41
298.954	1.37
299.33	1.44
299.705	1.51
300.081	1.52
300.456	1.48
300.831	1.46
301.206	1.36
301.582	1.46
301.957	1.32
302.332	1.51
302.707	1.34
303.082	1.33
303.457	1.31
303.832	1.28
304.207	1.26
304.582	1.33
304.957	1.33
305.332	1.33
305.707	1.32
306.082	1.25
306.456	1.34
306.831	1.31
307.206	1.19
307.58	1.4
307.955	1.18
308.33	1.19
308.704	1.25
309.079	1.24
309.453	1.37
309.828	1.27
310.202	1.24
310.576	1.15
310.951	1.14
311.325	1.16
311.699	1.16
312.073	1.17
312.447	1.2
312.821	1.15
313.196	1.22
313.57	1.1
313.944	1.2
314.317	1.13
314.691	1.14
315.065	1.21
315.439	1.19
315.813	1.19
316.187	1.11
316.56	1.19
316.934	1.13
317.308	1.13
317.681	1.11
318.055	1.15
318.428	1.14
318.802	1.21
319.175	1.17
319.549	1.15
319.922	1.09
320.295	1.15
320.669	1.3
321.042	1.17
321.415	1.23
321.788	1.16
322.162	1.19
322.535	1.21
322.908	1.18
323.281	1.18
323.654	1.18
324.027	1.14
324.4	1.22
324.773	1.21
325.145	1.17
325.518	1.11
325.891	1.2
326.264	1.21
326.636	1.13
327.009	1.11
327.382	1.15
327.754	1.28
328.127	1.12
328.499	1.16
328.872	1.17
329.244	1.2
329.616	1.22
329.989	1.18
330.361	1.14
330.733	1.2
331.106	1.2
331.478	1.29
331.85	1.16
332.222	1.11
332.594	1.2
332.966	1.2
333.338	1.22
333.71	1.27
334.082	1.25
334.454	1.15
334.826	1.21
335.197	1.4
335.569	1.28
335.941	1.19
336.312	1.24
336.684	1.18
337.056	1.23
337.427	1.21
337.799	1.2
338.17	1.21
338.542	1.19
338.913	1.27
339.284	1.32
339.656	1.25
340.027	1.24
340.398	1.29
340.769	1.19
341.141	1.37
341.512	1.26
341.883	1.33
342.254	1.29
342.625	1.31
342.996	1.28
343.367	1.26
343.738	1.28
344.108	1.25
344.479	1.35
344.85	1.21
345.221	1.29
345.591	1.2
345.962	1.43
346.333	1.37
346.703	1.18
347.074	1.3
347.444	1.23
347.815	1.29
348.185	1.29
348.556	1.21
348.926	1.29
349.296	1.3
349.666	1.28
350.037	1.31
350.407	1.18
350.777	1.32
351.147	1.33
351.517	1.3
351.887	1.27
352.257	1.29
352.627	1.29
352.997	1.28
353.367	1.38
353.737	1.44
354.106	1.27
354.476	1.32
354.846	1.39
355.216	1.41
355.585	1.44
355.955	1.34
356.324	1.41
356.694	1.46
357.063	1.46
357.433	1.37
357.802	1.47
358.171	1.46
358.541	1.37
358.91	1.39
359.279	1.45
359.648	1.41
360.017	1.51
360.387	1.46
360.756	1.29
361.125	1.55
361.494	1.6
361.863	1.44
362.231	1.48
362.6	1.5
362.969	1.58
363.338	1.41
363.707	1.67
364.075	1.62
364.444	1.39
364.813	1.58
365.181	1.46
365.55	1.47
365.918	1.78
366.287	1.61
366.655	1.53
367.024	1.68
367.392	1.6
367.76	1.46
368.128	1.45
368.497	1.51
368.865	1.44
369.233	1.43
369.601	1.45
369.969	1.47
370.337	1.47
370.705	1.5
371.073	1.45
371.441	1.44
371.809	1.39
372.177	1.61
372.544	1.6
372.912	1.57
373.28	1.55
373.647	1.56
374.015	1.65
374.383	1.72
374.75	1.6
375.118	1.57
375.485	1.65
375.853	1.64
376.22	1.52
376.587	1.55
376.955	1.59
377.322	1.62
377.689	1.61
378.056	1.5
378.423	1.49
378.79	1.7
379.157	1.53
379.524	1.46
379.891	1.45
380.258	1.61
380.625	1.48
380.992	1.45
381.359	1.56
381.726	1.62
382.092	1.63
382.459	1.47
382.826	1.51
383.192	1.48
383.559	1.54
383.925	1.45
384.292	1.52
384.658	1.93
385.025	1.63
385.391	1.89
385.757	1.81
386.123	1.58
386.49	1.64
386.856	1.65
387.222	1.54
387.588	1.5
387.954	1.81
388.32	1.75
388.686	1.64
389.052	1.46
389.418	1.55
389.784	1.53
390.15	1.67
390.515	1.43
390.881	1.78
391.247	1.5
391.613	1.65
391.978	1.52
392.344	1.86
392.709	1.62
393.075	1.51
393.44	1.66
393.806	1.7
394.171	1.48
394.536	1.5
394.902	1.63
395.267	1.57
395.632	1.52
395.997	1.43
396.362	1.52
396.727	1.64
397.092	1.53
397.457	1.62
397.822	1.49
398.187	1.6
398.552	1.56
398.917	1.73
399.282	1.46
399.646	1.46
400.011	1.71
400.376	1.52
400.74	1.77
401.105	1.55
401.47	1.59
401.834	1.41
402.199	1.6
402.563	1.48
402.927	1.56
403.292	1.58
403.656	1.62
404.02	1.58
404.384	1.65
404.749	1.53
405.113	1.66
405.477	1.7
405.841	1.66
406.205	1.44
406.569	1.44
406.933	1.54
407.296	1.69
407.66	1.55
408.024	1.62
408.388	1.57
408.752	1.54
409.115	1.61
409.479	1.51
409.842	1.71
410.206	1.4
410.569	1.65
410.933	1.7
411.296	1.4
411.66	1.43
412.023	1.43
412.386	1.58
412.749	1.43
413.113	1.52
413.476	1.53
413.839	1.49
414.202	1.57
414.565	1.5
414.928	1.47
415.291	1.55
415.654	1.42
416.017	1.57
416.38	1.48
416.742	1.38
417.105	1.35
417.468	1.38
417.83	1.6
418.193	1.71
418.556	1.41
418.918	1.44
419.281	1.4
419.643	1.56
420.005	1.42
420.368	1.44
420.73	1.43
421.092	1.52
421.455	1.51
421.817	1.36
422.179	1.4
422.541	1.47
422.903	1.56
423.265	1.49
423.627	1.59
423.989	1.47
424.351	1.47
424.713	1.54
425.075	1.45
425.436	1.41
425.798	1.41
426.16	1.48
426.521	1.51
426.883	1.43
427.245	1.4
427.606	1.44
427.967	1.4
428.329	1.37
428.69	1.47
429.052	1.4
429.413	1.51
429.774	1.49
430.135	1.39
430.497	1.53
430.858	1.4
431.219	1.44
431.58	1.38
431.941	1.42
432.302	1.37
432.663	1.48
433.024	1.41
433.384	1.43
433.745	1.35
434.106	1.47
434.467	1.52
434.827	1.42
435.188	1.34
435.548	1.48
435.909	1.37
436.269	1.45
436.63	1.41
436.99	1.39
437.351	1.28
437.711	1.34
438.071	1.33
438.431	1.31
438.792	1.28
439.152	1.31
439.512	1.29
439.872	1.3
440.232	1.35
440.592	1.39
440.952	1.33
441.312	1.28
441.671	1.25
442.031	1.29
442.391	1.24
442.751	1.28
443.11	1.28
443.47	1.2
443.83	1.28
444.189	1.22
444.549	1.2
444.908	1.21
445.267	1.22
445.627	1.18
445.986	1.18
446.345	1.17
446.705	1.17
447.064	1.25
447.423	1.2
447.782	1.19
448.141	1.17
448.5	1.14
448.859	1.16
449.218	1.15
449.577	1.14
449.936	1.13
450.295	1.14
450.653	1.13
451.012	1.12
451.371	1.13
451.729	1.11
452.088	1.11
452.447	1.09
452.805	1.08
453.163	1.08
453.522	1.07
453.88	1.06
454.239	1.05
454.597	1.02
454.955	1.01
455.313	1.04
455.671	1.02
456.029	1
456.388	0.97
456.746	0.98
457.104	0.97
457.461	0.95
457.819	0.94
458.177	0.93
458.535	0.91
458.893	0.9
459.25	0.91
459.608	0.89
459.966	0.88
460.323	0.85
460.681	0.85
461.038	0.85
461.396	0.83
461.753	0.8
462.111	0.8
462.468	0.8
462.825	0.79
463.182	0.75
463.54	0.77
463.897	0.78
464.254	0.75
464.611	0.73
464.968	0.72
465.325	0.72
465.682	0.72
466.039	0.69
466.395	0.69
466.752	0.68
467.109	0.68
467.466	0.66
467.822	0.66
468.179	0.64
468.535	0.63
468.892	0.61
469.248	0.6
469.605	0.59
469.961	0.59
470.318	0.6
470.674	0.58
471.03	0.58
471.386	0.56
471.743	0.54
472.099	0.55
472.455	0.54
472.811	0.52
473.167	0.53
473.523	0.5
473.879	0.51
474.235	0.5
474.59	0.48
474.946	0.47
475.302	0.48
475.657	0.45
476.013	0.46
476.369	0.44
476.724	0.45
477.08	0.43
477.435	0.43
477.791	0.43
478.146	0.42
478.501	0.41
478.857	0.41
479.212	0.4
479.567	0.4
479.922	0.38
480.277	0.38
480.632	0.37
480.987	0.37
481.342	0.36
481.697	0.35
482.052	0.35
482.407	0.34
482.762	0.34
483.116	0.33
483.471	0.33
483.826	0.32
484.18	0.31
484.535	0.3
484.89	0.3
485.244	0.3
485.598	0.3
485.953	0.28
486.307	0.29
486.661	0.29
487.016	0.28
487.37	0.28
487.724	0.27
488.078	0.27
488.432	0.26
488.786	0.26
489.14	0.26
489.494	0.25
489.848	0.24
490.202	0.24
490.556	0.24
490.91	0.24
491.263	0.23
491.617	0.23
491.971	0.23
492.324	0.23
492.678	0.23
493.031	0.22
493.385	0.22
493.738	0.22
494.091	0.21
494.445	0.21
494.798	0.21
495.151	0.2
495.504	0.2
495.857	0.2
496.21	0.2
496.564	0.19
496.916	0.2
497.269	0.19
497.622	0.19
497.975	0.19
498.328	0.2
498.681	0.19
499.033	0.19
499.386	0.19
499.739	0.17
500.091	0.18
500.444	0.18
500.796	0.17
501.149	0.17
501.501	0.17
501.854	0.17
502.206	0.17
502.558	0.17
502.91	0.17
503.263	0.16
503.615	0.16
503.967	0.16
504.319	0.17
504.671	0.16
505.023	0.15
505.375	0.16
505.726	0.15
506.078	0.15
506.43	0.16
506.782	0.14
507.133	0.15
507.485	0.16
507.837	0.17
508.188	0.16
508.54	0.15
508.891	0.16
509.243	0.15
509.594	0.15
509.945	0.15
510.296	0.14
510.648	0.15
510.999	0.14
511.35	0.14
511.701	0.14
512.052	0.14
512.403	0.15
512.754	0.15
513.105	0.15
513.456	0.14
513.807	0.14
514.157	0.14
514.508	0.15
514.859	0.14
515.209	0.14
515.56	0.14
515.91	0.14
516.261	0.14
516.611	0.14
516.962	0.15
517.312	0.15
517.662	0.14
518.013	0.14
518.363	0.14
518.713	0.14
519.063	0.14
519.413	0.14
519.763	0.14
520.113	0.14
520.463	0.15
520.813	0.15
521.163	0.15
521.512	0.14
521.862	0.14
522.212	0.14
522.562	0.15
522.911	0.14
523.261	0.13
523.61	0.14
523.96	0.14
524.309	0.14
524.658	0.15
525.008	0.13
525.357	0.14
525.706	0.14
526.056	0.14
526.405	0.15
526.754	0.13
527.103	0.14
527.452	0.14
527.801	0.14
528.15	0.14
528.499	0.14
528.847	0.14
529.196	0.15
529.545	0.14
529.893	0.15
530.242	0.15
530.591	0.15
530.939	0.15
531.288	0.15
531.636	0.15
531.985	0.14
532.333	0.14
532.681	0.14
533.029	0.15
533.378	0.14
533.726	0.15
534.074	0.15
534.422	0.14
534.77	0.15
535.118	0.15
535.466	0.14
535.814	0.14
536.162	0.15
536.509	0.16
536.857	0.15
537.205	0.15
537.552	0.15
537.9	0.15
538.248	0.14
538.595	0.15
538.943	0.15
539.29	0.15
539.637	0.15
539.985	0.15
540.332	0.15
540.679	0.15
541.026	0.14
541.373	0.16
541.721	0.14
542.068	0.14
542.415	0.14
542.762	0.14
543.108	0.13
543.455	0.13
543.802	0.14
544.149	0.14
544.496	0.14
544.842	0.13
545.189	0.13
545.535	0.14
545.882	0.14
546.228	0.13
546.575	0.13
546.921	0.14
547.267	0.14
547.614	0.13
547.96	0.14
548.306	0.13
548.652	0.13
548.998	0.15
549.344	0.14
549.69	0.13
550.036	0.13
550.382	0.14
550.728	0.13
551.074	0.14
551.42	0.14
551.765	0.15
552.111	0.15
552.457	0.14
552.802	0.14
553.148	0.14
553.493	0.15
553.839	0.14
554.184	0.15
554.529	0.14
554.875	0.15
555.22	0.15
555.565	0.15
555.91	0.14
556.255	0.16
556.6	0.15
556.945	0.14
557.29	0.15
557.635	0.15
557.98	0.14
558.325	0.15
558.67	0.15
559.014	0.14
559.359	0.15
559.704	0.16
560.048	0.14
560.393	0.14
560.737	0.14
561.082	0.15
561.426	0.14
561.77	0.14
562.115	0.14
562.459	0.14
562.803	0.14
563.147	0.14
563.491	0.15
563.835	0.14
564.179	0.15
564.523	0.14
564.867	0.14
565.211	0.14
565.555	0.14
565.899	0.15
566.242	0.14
566.586	0.13
566.93	0.15
567.273	0.15
567.617	0.14
567.96	0.15
568.304	0.15
568.647	0.15
568.99	0.15
569.334	0.16
569.677	0.15
570.02	0.16
570.363	0.15
570.706	0.14
571.049	0.15
571.392	0.15
571.735	0.14
572.078	0.14
572.421	0.15
572.764	0.14
573.106	0.15
573.449	0.14
573.792	0.15
574.134	0.14
574.477	0.15
574.819	0.14
575.162	0.14
575.504	0.14
575.847	0.15
576.189	0.15
576.531	0.14
576.873	0.14
577.215	0.15
577.558	0.14
577.9	0.14
578.242	0.14
578.584	0.14
578.926	0.14
579.267	0.15
579.609	0.15
579.951	0.15
580.293	0.15
580.634	0.15
580.976	0.15
581.318	0.14
581.659	0.14
582.001	0.15
582.342	0.14
582.683	0.14
583.025	0.14
583.366	0.14
583.707	0.15
584.049	0.14
584.39	0.15
584.731	0.15
585.072	0.14
585.413	0.14
585.754	0.15
586.095	0.14
586.435	0.15
586.776	0.15
587.117	0.14
587.458	0.14
587.798	0.14
588.139	0.15
588.48	0.14
588.82	0.15
589.161	0.14
589.501	0.14
589.841	0.14
590.182	0.14
590.522	0.14
590.862	0.14
591.202	0.14
591.542	0.14
591.882	0.14
592.222	0.14
592.562	0.14
592.902	0.14
593.242	0.13
593.582	0.14
593.922	0.13
594.261	0.14
594.601	0.14
594.941	0.14
595.28	0.14
595.62	0.14
595.959	0.14
596.299	0.14
596.638	0.15
596.977	0.14
597.317	0.15
597.656	0.14
597.995	0.14
598.334	0.15
598.673	0.15
599.012	0.14
599.351	0.15
599.69	0.14
600.029	0.15
600.368	0.15
600.707	0.14
601.046	0.14
601.384	0.15
601.723	0.14
602.061	0.14
602.4	0.14
602.738	0.15
603.077	0.14
603.415	0.14
603.754	0.14
604.092	0.14
604.43	0.14
604.768	0.14
605.107	0.15
605.445	0.14
605.783	0.14
606.121	0.13
606.459	0.14
606.796	0.14
607.134	0.14
607.472	0.13
607.81	0.14
608.148	0.14
608.485	0.14
608.823	0.14
609.16	0.13
609.498	0.14
609.835	0.14
610.173	0.14
610.51	0.14
610.847	0.14
611.185	0.14
611.522	0.15
611.859	0.15
612.196	0.14
612.533	0.15
612.87	0.16
613.207	0.15
613.544	0.14
613.881	0.15
614.217	0.15
614.554	0.15
614.891	0.15
615.228	0.14
615.564	0.15
615.901	0.14
616.237	0.15
616.574	0.14
616.91	0.15
617.246	0.15
617.583	0.14
617.919	0.15
618.255	0.15
618.591	0.14
618.927	0.15
619.263	0.15
619.599	0.15
619.935	0.14
620.271	0.15
620.607	0.15
620.943	0.14
621.279	0.15
621.614	0.15
621.95	0.15
622.286	0.14
622.621	0.14
622.957	0.14
623.292	0.13
623.627	0.13
623.963	0.13
624.298	0.13
624.633	0.13
624.968	0.13
625.304	0.13
625.639	0.13
625.974	0.13
626.309	0.13
626.644	0.13
626.979	0.14
627.313	0.13
627.648	0.13
627.983	0.14
628.318	0.13
628.652	0.12
628.987	0.12
629.321	0.13
629.656	0.12
629.99	0.12
630.325	0.13
630.659	0.13
630.993	0.12
631.327	0.13
631.662	0.12
631.996	0.12
632.33	0.13
632.664	0.13
632.998	0.12
633.332	0.13
633.666	0.12
633.999	0.13
634.333	0.12
634.667	0.12
635.001	0.12
635.334	0.12
635.668	0.12
636.001	0.12
636.335	0.12
636.668	0.12
637.001	0.12
637.335	0.12
637.668	0.12
638.001	0.11
638.334	0.13
638.668	0.11
639.001	0.12
639.334	0.11
639.667	0.11
639.999	0.11
640.332	0.11
640.665	0.11
640.998	0.11
641.331	0.12
641.663	0.11
641.996	0.11
642.328	0.12
642.661	0.11
642.993	0.12
643.326	0.11
643.658	0.12
643.99	0.11
644.323	0.11
644.655	0.11
644.987	0.12
645.319	0.11
645.651	0.11
645.983	0.11
646.315	0.11
646.647	0.11
646.979	0.12
647.31	0.12
647.642	0.11
647.974	0.11
648.305	0.12
648.637	0.12
648.968	0.12
649.3	0.12
649.631	0.12
649.963	0.11
650.294	0.12
650.625	0.12
650.957	0.12
651.288	0.12
651.619	0.12
651.95	0.12
652.281	0.12
652.612	0.12
652.943	0.12
653.274	0.13
653.604	0.12
653.935	0.11
654.266	0.12
654.596	0.11
654.927	0.11
655.258	0.12
655.588	0.12
655.918	0.12
656.249	0.1
656.579	0.12
656.909	0.11
657.24	0.11
657.57	0.12
657.9	0.12
658.23	0.12
658.56	0.12
658.89	0.12
659.22	0.11
659.55	0.12
659.88	0.12
660.209	0.12
660.539	0.13
660.869	0.12
661.198	0.12
661.528	0.12
661.857	0.12
662.187	0.12
662.516	0.12
662.846	0.12
663.175	0.12
663.504	0.12
663.833	0.12
664.163	0.13
664.492	0.12
664.821	0.12
665.15	0.11
665.479	0.11
665.807	0.11
666.136	0.12
666.465	0.11
666.794	0.11
667.122	0.11
667.451	0.11
667.78	0.11
668.108	0.11
668.437	0.11
668.765	0.11
669.093	0.11
669.422	0.11
669.75	0.11
670.078	0.11
670.406	0.11
670.734	0.11
671.062	0.11
671.39	0.11
671.718	0.11
672.046	0.11
672.374	0.11
672.702	0.11
673.029	0.11
673.357	0.11
673.685	0.12
674.012	0.11
674.34	0.11
674.667	0.11
674.995	0.12
675.322	0.11
675.649	0.11
675.977	0.11
676.304	0.11
676.631	0.11
676.958	0.11
677.285	0.1
677.612	0.1
677.939	0.11
678.266	0.11
678.593	0.11
678.92	0.11
679.246	0.1
679.573	0.1
679.9	0.1
680.226	0.11
680.553	0.1
680.879	0.11
681.206	0.11
681.532	0.1
681.858	0.1
682.184	0.1
682.511	0.1
682.837	0.1
683.163	0.1
683.489	0.1
683.815	0.1
684.141	0.1
684.467	0.1
684.793	0.09
685.118	0.1
685.444	0.09
685.77	0.1
686.095	0.1
686.421	0.1
686.746	0.1
687.072	0.1
687.397	0.09
687.723	0.11
688.048	0.1
688.373	0.1
688.698	0.1
689.023	0.1
689.349	0.11
689.674	0.11
689.999	0.1
690.323	0.09
690.648	0.09
690.973	0.09
691.298	0.1
691.623	0.1
691.947	0.1
692.272	0.09
692.596	0.1
692.921	0.1
693.245	0.09
693.57	0.1
693.894	0.1
694.218	0.1
694.543	0.09
694.867	0.1
695.191	0.09
695.515	0.1
695.839	0.08
696.163	0.09
696.487	0.1
696.811	0.1
697.135	0.09
697.458	0.09
697.782	0.09
698.106	0.1
698.429	0.09
698.753	0.09
699.076	0.09
699.4	0.09
699.723	0.09
700.046	0.09
700.37	0.09
700.693	0.1
701.016	0.08
701.339	0.09
701.662	0.1
701.985	0.09
702.308	0.09
702.631	0.09
702.954	0.09
703.277	0.09
703.599	0.09
703.922	0.09
704.245	0.09
704.567	0.08
704.89	0.08
705.212	0.09
705.535	0.08
705.857	0.08
706.179	0.08
706.502	0.08
706.824	0.07
707.146	0.07
707.468	0.08
707.79	0.08
708.112	0.08
708.434	0.08
708.756	0.07
709.078	0.08
709.399	0.07
709.721	0.08
710.043	0.09
710.364	0.08
710.686	0.09
711.007	0.08
711.329	0.09
711.65	0.09
711.972	0.08
712.293	0.08
712.614	0.09
712.935	0.09
713.256	0.09
713.577	0.1
713.898	0.08
714.219	0.08
714.54	0.07
714.861	0.07
715.182	0.08
715.503	0.08
715.823	0.08
716.144	0.07
716.464	0.07
716.785	0.07
717.105	0.07
717.426	0.08
717.746	0.07
718.066	0.06
718.387	0.08
718.707	0.06
719.027	0.07
719.347	0.06
719.667	0.07
719.987	0.06
720.307	0.07
720.627	0.06
720.947	0.07
721.266	0.06
721.586	0.07
721.906	0.07
722.225	0.07
722.545	0.07
722.864	0.07
723.184	0.07
723.503	0.07
723.823	0.07
724.142	0.06
724.461	0.06
724.78	0.06
725.099	0.06
725.418	0.06
725.737	0.06
726.056	0.07
726.375	0.07
726.694	0.06
727.013	0.07
727.331	0.06
727.65	0.07
727.969	0.07
728.287	0.07
728.606	0.07
728.924	0.07
729.242	0.07
729.561	0.06
729.879	0.07
730.197	0.07
730.515	0.07
730.834	0.07
731.152	0.06
731.47	0.06
731.788	0.07
732.105	0.06
732.423	0.06
732.741	0.06
733.059	0.06
733.376	0.07
733.694	0.06
734.012	0.06
734.329	0.07
734.647	0.06
734.964	0.07
735.281	0.07
735.599	0.07
735.916	0.07
736.233	0.06
736.55	0.07
736.867	0.06
737.184	0.07
737.501	0.06
737.818	0.07
738.135	0.07
738.452	0.07
738.768	0.06
739.085	0.07
739.402	0.05
739.718	0.06
740.035	0.06
740.351	0.07
740.668	0.06
740.984	0.06
741.3	0.06
741.617	0.06
741.933	0.07
742.249	0.07
742.565	0.06
742.881	0.07
743.197	0.07
743.513	0.06
743.829	0.06
744.144	0.07
744.46	0.06
744.776	0.06
745.091	0.06
745.407	0.06
745.722	0.05
746.038	0.05
746.353	0.05
746.669	0.06
746.984	0.05
747.299	0.06
747.614	0.06
747.93	0.06
748.245	0.05
748.56	0.05
748.875	0.05
749.189	0.06
749.504	0.06
749.819	0.06
750.134	0.06
750.448	0.05
750.763	0.06
751.078	0.05
751.392	0.06
751.707	0.06
752.021	0.07
752.335	0.07
752.65	0.07
752.964	0.06
753.278	0.06
753.592	0.06
753.906	0.06
754.22	0.06
754.534	0.06
754.848	0.06
755.162	0.06
755.476	0.06
755.789	0.06
756.103	0.06
756.417	0.06
756.73	0.06
757.044	0.07
757.357	0.06
757.671	0.06
757.984	0.06
758.297	0.06
758.61	0.06
758.924	0.06
759.237	0.06
759.55	0.06
759.863	0.06
760.176	0.06
760.488	0.06
760.801	0.06
761.114	0.06
761.427	0.05
761.739	0.06
762.052	0.05
762.365	0.06
762.677	0.06
762.99	0.05
763.302	0.06
763.614	0.05
763.926	0.07
764.239	0.06
764.551	0.05
764.863	0.05
765.175	0.06
765.487	0.06
765.799	0.05
766.111	0.05
766.423	0.05
766.734	0.06
767.046	0.05
767.358	0.05
767.669	0.05
767.981	0.06
768.292	0.05
768.604	0.05
768.915	0.05
769.226	0.05
769.537	0.04
769.849	0.06
770.16	0.05
770.471	0.05
770.782	0.04
771.093	0.05
771.404	0.04
771.715	0.04
772.025	0.05
772.336	0.05
772.647	0.04
772.957	0.05
773.268	0.05
773.578	0.05
773.889	0.05
774.199	0.05
774.51	0.05
774.82	0.04
775.13	0.05
775.44	0.05
775.75	0.05
776.06	0.05
776.37	0.05
776.68	0.05
776.99	0.05
777.3	0.05
777.61	0.06
777.92	0.05
778.229	0.05
778.539	0.06
778.848	0.05
779.158	0.06
779.467	0.05
779.777	0.04
780.086	0.05
780.395	0.04
780.704	0.05
781.013	0.04
781.323	0.04
781.632	0.04
781.941	0.05
782.249	0.04
782.558	0.04
782.867	0.05
783.176	0.04
783.485	0.04
783.793	0.05
784.102	0.04
784.41	0.04
784.719	0.04
785.027	0.04
785.335	0.05
785.644	0.05
785.952	0.04
786.26	0.05
786.568	0.04
786.876	0.04
787.184	0.04
787.492	0.05
787.8	0.04
788.108	0.04
788.416	0.04
788.723	0.04
789.031	0.04
789.338	0.04
789.646	0.04
789.953	0.05
790.261	0.05
790.568	0.04
790.876	0.05
791.183	0.05
791.49	0.04
791.797	0.05
792.104	0.04
792.411	0.05
792.718	0.05
793.025	0.05
793.332	0.04
793.639	0.05
793.945	0.05
794.252	0.05
794.559	0.06
794.865	0.06
795.172	0.05
795.478	0.05
795.784	0.04
796.091	0.06
796.397	0.06
796.703	0.06
797.009	0.07
797.315	0.06
797.622	0.05
797.927	0.06
798.233	0.06
798.539	0.07
798.845	0.06
799.151	0.06
799.456	0.06
799.762	0.05
800.068	0.05
800.373	0.06
800.679	0.06
800.984	0.06
801.289	0.05
801.595	0.05
801.9	0.05
802.205	0.05
802.51	0.05
802.815	0.05
803.12	0.04
803.425	0.05
803.73	0.06
804.035	0.05
804.339	0.05
804.644	0.05
804.949	0.05
805.253	0.05
805.558	0.05
805.862	0.05
806.167	0.05
806.471	0.04
806.775	0.05
807.08	0.05
807.384	0.04
807.688	0.04
807.992	0.05
808.296	0.05
808.6	0.05
808.904	0.05
809.207	0.05
809.511	0.06
809.815	0.06
810.119	0.05
810.422	0.06
810.726	0.07
811.029	0.07
811.332	0.06
811.636	0.07
811.939	0.07
812.242	0.06
812.546	0.07
812.849	0.05
813.152	0.07
813.455	0.07
813.758	0.06
814.06	0.06
814.363	0.07
814.666	0.06
814.969	0.06
815.271	0.06
815.574	0.06
815.877	0.06
816.179	0.06
816.481	0.06
816.784	0.06
817.086	0.05
817.388	0.04
817.69	0.05
817.993	0.04
818.295	0.04
818.597	0.05
818.899	0.04
819.2	0.04
819.502	0.04
819.804	0.04
820.106	0.04
820.407	0.04
820.709	0.04
821.01	0.04
821.312	0.05
821.613	0.03
821.915	0.04
822.216	0.04
822.517	0.04
822.818	0.04
823.119	0.04
823.42	0.04
823.721	0.03
824.022	0.03
824.323	0.04
824.624	0.04
824.925	0.04
825.226	0.04
825.526	0.03
825.827	0.03
826.127	0.04
826.428	0.04
826.728	0.04
827.028	0.03
827.329	0.03
827.629	0.03
827.929	0.03
828.229	0.04
828.529	0.04
828.829	0.04
829.129	0.04
829.429	0.04
829.729	0.03
830.029	0.03
830.328	0.03
830.628	0.03
830.927	0.03
831.227	0.03
831.526	0.03
831.826	0.02
832.125	0.03
832.424	0.02
832.724	0.03
833.023	0.03
833.322	0.02
833.621	0.02
833.92	0.02
834.219	0.02
834.518	0.02
834.816	0.01
835.115	0.02
835.414	0.02
835.712	0.02
836.011	0.01
836.309	0.01
836.608	0
836.906	0.01
837.205	-0
837.503	0
837.801	0.01
838.099	-0
838.397	-0.01
838.695	-0.01
838.993	0
839.291	-0.01
839.589	-0
839.887	-0
840.184	-0.01
840.482	-0
840.78	-0
841.077	-0.02
841.375	-0.01
841.672	-0
841.969	-0.02
842.267	-0.02
842.564	-0.01
842.861	-0.01
843.158	-0.01
843.455	-0.03
843.752	-0.02
844.049	-0.02
844.346	-0.03
844.643	-0.03
844.94	-0.03
845.236	-0.01
845.533	-0.02
845.83	-0.03
846.126	-0.04
846.423	-0.04
846.719	-0.04
847.015	-0.04
847.312	-0.03
847.608	-0.05
847.904	-0.05
848.2	-0.05
848.496	-0.04
848.792	-0.04
849.088	-0.03
849.384	-0.05
849.68	-0.05
849.975	-0.05
850.271	-0.05
850.567	-0.05
850.862	-0.06
851.158	-0.06
851.453	-0.05
851.748	-0.07
852.044	-0.07
852.339	-0.06
852.634	-0.08
852.929	-0.06
853.224	-0.08
853.519	-0.07
853.814	-0.07
854.109	-0.07
854.404	-0.07
854.699	-0.08
854.994	-0.07
855.288	-0.07
855.583	-0.07
855.877	-0.08
856.172	-0.08
856.466	-0.07
856.76	-0.08
857.055	-0.08
857.349	-0.09
857.643	-0.09
857.937	-0.1
858.231	-0.1
858.525	-0.1
858.819	-0.1
859.113	-0.11
859.407	-0.1
859.701	-0.11
859.994	-0.1
860.288	-0.1
860.581	-0.1
860.875	-0.1
861.168	-0.12
861.462	-0.11
861.755	-0.1
862.048	-0.11
862.341	-0.1
862.634	-0.11
862.928	-0.1
863.221	-0.1
863.513	-0.11
863.806	-0.11
864.099	-0.12
864.392	-0.11
864.685	-0.1
864.977	-0.1
865.27	-0.12
865.562	-0.11
865.855	-0.12
866.147	-0.13
866.44	-0.11
866.732	-0.12
867.024	-0.13
867.316	-0.13
867.608	-0.13
867.9	-0.12
868.192	-0.13
868.484	-0.13
868.776	-0.13
869.068	-0.13
869.359	-0.14
869.651	-0.14
869.943	-0.15
870.234	-0.15
870.526	-0.15
870.817	-0.15
871.108	-0.13
871.4	-0.15
871.691	-0.15
871.982	-0.16
872.273	-0.17
872.564	-0.16
872.855	-0.15
873.146	-0.16
873.437	-0.17
873.728	-0.18
874.019	-0.17
874.309	-0.18
874.6	-0.16
874.89	-0.17
875.181	-0.17
875.471	-0.16
875.762	-0.17
876.052	-0.17
876.342	-0.16
876.632	-0.16
876.922	-0.17
877.213	-0.18
877.503	-0.18
877.792	-0.16
878.082	-0.17
878.372	-0.16
878.662	-0.18
878.952	-0.16
879.241	-0.17
879.531	-0.16
879.82	-0.17
880.11	-0.17
880.399	-0.18
880.688	-0.15
880.978	-0.15
881.267	-0.15
