Data from 12-12-AQDScycling_Absorbance__704__00704.txt Node

Date: Tue Dec 12 13:52:44 EST 2023
User: kyuminlee
Spectrometer: FLMS00943
Trigger mode: 0
Integration Time (sec): 1.000000E-1
Scans to average: 1
Electric dark correction enabled: true
Nonlinearity correction enabled: false
Boxcar width: 0
XAxis mode: Wavelengths
Number of Pixels in Spectrum: 2048
>>>>>Begin Spectral Data<<<<<
179.651	-0
180.037	-0
180.424	-0
180.81	-0.03
181.197	0.15
181.583	-0
181.97	-0.06
182.356	-0
182.743	-1.21
183.129	-0
183.515	-0
183.901	-0
184.288	0.56
184.674	-0
185.06	-0
185.446	-0
185.832	-1.48
186.218	-0
186.604	0.88
186.99	-0
187.376	-0
187.762	-0.14
188.148	0.07
188.534	-0.3
188.92	-0.03
189.305	0.13
189.691	0.17
190.077	0.11
190.463	0.1
190.848	0.06
191.234	-0.06
191.619	0.02
192.005	0.13
192.391	0.04
192.776	0.06
193.161	0.21
193.547	0.1
193.932	0.05
194.318	0.08
194.703	-0.05
195.088	0.21
195.473	0.1
195.859	0.14
196.244	0.09
196.629	0.04
197.014	0.17
197.399	0.14
197.784	0.18
198.169	0.05
198.554	0.11
198.939	0.12
199.324	0.07
199.709	0.05
200.094	0.15
200.478	0.06
200.863	0.16
201.248	0.06
201.633	0.1
202.017	0.16
202.402	0.12
202.787	0.07
203.171	0.09
203.556	0.16
203.94	0.1
204.325	0.26
204.709	0.23
205.093	0.09
205.478	0.09
205.862	0.12
206.246	0.21
206.631	0
207.015	0.04
207.399	0.25
207.783	0.11
208.167	0.05
208.551	0.19
208.935	0.1
209.319	0.18
209.703	0.1
210.087	0.1
210.471	0.11
210.855	0.12
211.239	0.25
211.623	0.13
212.007	0.24
212.39	0.26
212.774	0.1
213.158	0.04
213.541	0.2
213.925	0.18
214.309	0.21
214.692	0.2
215.076	0.24
215.459	0.06
215.842	0.28
216.226	0.28
216.609	0.3
216.993	0.18
217.376	0.45
217.759	0.16
218.142	0.28
218.525	0.42
218.909	0.49
219.292	0.25
219.675	0.32
220.058	0.34
220.441	0.41
220.824	0.49
221.207	0.46
221.59	0.5
221.973	0.72
222.355	0.51
222.738	0.73
223.121	0.57
223.504	0.59
223.886	0.7
224.269	0.68
224.652	0.68
225.034	0.71
225.417	0.74
225.799	0.81
226.182	0.78
226.564	0.76
226.947	0.71
227.329	0.74
227.711	1.11
228.094	1.14
228.476	0.97
228.858	0.75
229.24	0.76
229.623	0.84
230.005	0.77
230.387	0.95
230.769	0.81
231.151	0.94
231.533	0.9
231.915	0.96
232.297	0.98
232.679	0.96
233.061	0.95
233.442	0.96
233.824	0.92
234.206	1.01
234.588	1.04
234.969	1.03
235.351	0.88
235.733	0.85
236.114	0.99
236.496	1.16
236.877	1.03
237.259	1.03
237.64	1.05
238.022	0.95
238.403	0.96
238.784	0.99
239.165	0.91
239.547	0.98
239.928	1.21
240.309	1.15
240.69	1.08
241.071	1.1
241.452	1.15
241.834	1
242.215	0.97
242.595	0.95
242.976	1.1
243.357	1.17
243.738	1.03
244.119	1.22
244.5	1.09
244.881	1.13
245.261	1.19
245.642	1.16
246.023	1.16
246.403	1.18
246.784	1.22
247.164	1.22
247.545	1.21
247.925	1.36
248.306	1.24
248.686	1.38
249.067	1.15
249.447	1.35
249.827	1.38
250.207	1.42
250.588	1.16
250.968	1.43
251.348	1.21
251.728	1.34
252.108	1.4
252.488	1.33
252.868	1.28
253.248	1.37
253.628	1.37
254.008	1.58
254.388	1.2
254.768	1.44
255.147	1.4
255.527	1.36
255.907	1.34
256.287	1.31
256.666	1.38
257.046	1.35
257.425	1.42
257.805	1.36
258.184	1.27
258.564	1.31
258.943	1.23
259.323	1.52
259.702	1.38
260.081	1.47
260.461	1.5
260.84	1.32
261.219	1.55
261.598	1.56
261.977	1.53
262.356	1.42
262.736	1.43
263.115	1.5
263.494	1.42
263.873	1.44
264.251	1.43
264.63	1.51
265.009	1.39
265.388	1.49
265.767	1.33
266.145	1.29
266.524	1.35
266.903	1.36
267.281	1.44
267.66	1.5
268.039	1.44
268.417	1.36
268.796	1.33
269.174	1.44
269.552	1.23
269.931	1.35
270.309	1.54
270.687	1.52
271.066	1.52
271.444	1.31
271.822	1.5
272.2	1.32
272.578	1.28
272.956	1.27
273.334	1.28
273.712	1.29
274.09	1.53
274.468	1.45
274.846	1.2
275.224	1.35
275.602	1.46
275.98	1.59
276.357	1.44
276.735	1.41
277.113	1.3
277.49	1.37
277.868	1.32
278.246	1.42
278.623	1.28
279.001	1.27
279.378	1.34
279.756	1.49
280.133	1.43
280.51	1.29
280.888	1.64
281.265	1.39
281.642	1.41
282.019	1.47
282.396	1.68
282.773	1.53
283.151	1.46
283.528	1.34
283.905	1.38
284.282	1.53
284.659	1.49
285.035	1.35
285.412	1.32
285.789	1.39
286.166	1.48
286.543	1.45
286.919	1.55
287.296	1.42
287.673	1.72
288.049	1.55
288.426	1.77
288.802	1.48
289.179	1.42
289.555	1.6
289.932	1.42
290.308	1.36
290.684	1.31
291.061	1.26
291.437	1.49
291.813	1.32
292.189	1.3
292.565	1.26
292.942	1.31
293.318	1.22
293.694	1.44
294.07	1.29
294.446	1.37
294.822	1.47
295.197	1.39
295.573	1.33
295.949	1.46
296.325	1.62
296.701	1.52
297.076	1.46
297.452	1.46
297.828	1.36
298.203	1.49
298.579	1.38
298.954	1.44
299.33	1.52
299.705	1.47
300.081	1.52
300.456	1.52
300.831	1.33
301.206	1.48
301.582	1.61
301.957	1.48
302.332	1.54
302.707	1.38
303.082	1.46
303.457	1.5
303.832	1.53
304.207	1.52
304.582	1.42
304.957	1.48
305.332	1.69
305.707	1.5
306.082	1.55
306.456	1.67
306.831	1.44
307.206	1.57
307.58	1.49
307.955	1.52
308.33	1.43
308.704	1.5
309.079	1.45
309.453	1.67
309.828	1.53
310.202	1.58
310.576	1.43
310.951	1.55
311.325	1.53
311.699	1.46
312.073	1.35
312.447	1.39
312.821	1.37
313.196	1.66
313.57	1.5
313.944	1.48
314.317	1.29
314.691	1.47
315.065	1.53
315.439	1.55
315.813	1.48
316.187	1.41
316.56	1.5
316.934	1.52
317.308	1.44
317.681	1.57
318.055	1.56
318.428	1.38
318.802	1.56
319.175	1.54
319.549	1.47
319.922	1.32
320.295	1.39
320.669	1.54
321.042	1.55
321.415	1.58
321.788	1.4
322.162	1.41
322.535	1.62
322.908	1.48
323.281	1.41
323.654	1.43
324.027	1.49
324.4	1.43
324.773	1.44
325.145	1.56
325.518	1.42
325.891	1.39
326.264	1.69
326.636	1.49
327.009	1.39
327.382	1.5
327.754	1.66
328.127	1.59
328.499	1.42
328.872	1.44
329.244	1.51
329.616	1.5
329.989	1.5
330.361	1.46
330.733	1.55
331.106	1.5
331.478	1.67
331.85	1.53
332.222	1.37
332.594	1.43
332.966	1.38
333.338	1.65
333.71	1.45
334.082	1.45
334.454	1.52
334.826	1.38
335.197	1.47
335.569	1.4
335.941	1.34
336.312	1.49
336.684	1.45
337.056	1.35
337.427	1.53
337.799	1.61
338.17	1.44
338.542	1.43
338.913	1.47
339.284	1.61
339.656	1.51
340.027	1.57
340.398	1.62
340.769	1.57
341.141	1.58
341.512	1.54
341.883	1.56
342.254	1.5
342.625	1.59
342.996	1.43
343.367	1.55
343.738	1.57
344.108	1.45
344.479	1.63
344.85	1.46
345.221	1.47
345.591	1.45
345.962	1.46
346.333	1.52
346.703	1.27
347.074	1.32
347.444	1.3
347.815	1.31
348.185	1.35
348.556	1.41
348.926	1.33
349.296	1.3
349.666	1.35
350.037	1.27
350.407	1.32
350.777	1.3
351.147	1.27
351.517	1.37
351.887	1.33
352.257	1.33
352.627	1.29
352.997	1.27
353.367	1.35
353.737	1.36
354.106	1.4
354.476	1.26
354.846	1.29
355.216	1.37
355.585	1.36
355.955	1.29
356.324	1.35
356.694	1.26
357.063	1.25
357.433	1.21
357.802	1.18
358.171	1.2
358.541	1.15
358.91	1.13
359.279	1.2
359.648	1.09
360.017	1.11
360.387	1.09
360.756	1.05
361.125	1.03
361.494	1.01
361.863	0.99
362.231	0.94
362.6	0.95
362.969	0.98
363.338	0.89
363.707	0.87
364.075	0.85
364.444	0.82
364.813	0.82
365.181	0.82
365.55	0.82
365.918	0.82
366.287	0.76
366.655	0.75
367.024	0.74
367.392	0.7
367.76	0.69
368.128	0.67
368.497	0.67
368.865	0.63
369.233	0.65
369.601	0.61
369.969	0.6
370.337	0.6
370.705	0.57
371.073	0.55
371.441	0.54
371.809	0.55
372.177	0.53
372.544	0.54
372.912	0.51
373.28	0.52
373.647	0.5
374.015	0.49
374.383	0.48
374.75	0.47
375.118	0.46
375.485	0.46
375.853	0.45
376.22	0.43
376.587	0.41
376.955	0.44
377.322	0.4
377.689	0.41
378.056	0.37
378.423	0.39
378.79	0.4
379.157	0.4
379.524	0.36
379.891	0.38
380.258	0.37
380.625	0.35
380.992	0.35
381.359	0.34
381.726	0.35
382.092	0.34
382.459	0.34
382.826	0.32
383.192	0.34
383.559	0.32
383.925	0.32
384.292	0.31
384.658	0.32
385.025	0.32
385.391	0.32
385.757	0.32
386.123	0.32
386.49	0.31
386.856	0.32
387.222	0.3
387.588	0.31
387.954	0.31
388.32	0.29
388.686	0.29
389.052	0.28
389.418	0.29
389.784	0.29
390.15	0.29
390.515	0.3
390.881	0.29
391.247	0.29
391.613	0.29
391.978	0.29
392.344	0.3
392.709	0.27
393.075	0.27
393.44	0.27
393.806	0.27
394.171	0.27
394.536	0.27
394.902	0.25
395.267	0.24
395.632	0.25
395.997	0.26
396.362	0.26
396.727	0.26
397.092	0.26
397.457	0.26
397.822	0.27
398.187	0.25
398.552	0.24
398.917	0.23
399.282	0.24
399.646	0.24
400.011	0.24
400.376	0.24
400.74	0.26
401.105	0.25
401.47	0.25
401.834	0.23
402.199	0.24
402.563	0.22
402.927	0.23
403.292	0.24
403.656	0.23
404.02	0.24
404.384	0.23
404.749	0.23
405.113	0.23
405.477	0.22
405.841	0.23
406.205	0.22
406.569	0.23
406.933	0.21
407.296	0.22
407.66	0.22
408.024	0.22
408.388	0.23
408.752	0.22
409.115	0.21
409.479	0.2
409.842	0.21
410.206	0.2
410.569	0.2
410.933	0.2
411.296	0.22
411.66	0.21
412.023	0.2
412.386	0.2
412.749	0.2
413.113	0.18
413.476	0.18
413.839	0.19
414.202	0.19
414.565	0.18
414.928	0.18
415.291	0.19
415.654	0.2
416.017	0.19
416.38	0.18
416.742	0.19
417.105	0.16
417.468	0.18
417.83	0.17
418.193	0.19
418.556	0.18
418.918	0.18
419.281	0.18
419.643	0.17
420.005	0.17
420.368	0.18
420.73	0.16
421.092	0.16
421.455	0.17
421.817	0.15
422.179	0.16
422.541	0.15
422.903	0.16
423.265	0.15
423.627	0.15
423.989	0.15
424.351	0.16
424.713	0.15
425.075	0.14
425.436	0.14
425.798	0.14
426.16	0.15
426.521	0.16
426.883	0.16
427.245	0.14
427.606	0.15
427.967	0.14
428.329	0.14
428.69	0.15
429.052	0.16
429.413	0.15
429.774	0.16
430.135	0.14
430.497	0.14
430.858	0.13
431.219	0.14
431.58	0.14
431.941	0.12
432.302	0.14
432.663	0.14
433.024	0.17
433.384	0.15
433.745	0.12
434.106	0.14
434.467	0.14
434.827	0.15
435.188	0.14
435.548	0.14
435.909	0.13
436.269	0.15
436.63	0.12
436.99	0.13
437.351	0.14
437.711	0.13
438.071	0.13
438.431	0.13
438.792	0.13
439.152	0.12
439.512	0.13
439.872	0.13
440.232	0.14
440.592	0.15
440.952	0.14
441.312	0.13
441.671	0.12
442.031	0.11
442.391	0.13
442.751	0.13
443.11	0.12
443.47	0.12
443.83	0.13
444.189	0.11
444.549	0.12
444.908	0.14
445.267	0.12
445.627	0.11
445.986	0.11
446.345	0.11
446.705	0.11
447.064	0.12
447.423	0.12
447.782	0.11
448.141	0.12
448.5	0.11
448.859	0.12
449.218	0.1
449.577	0.12
449.936	0.12
450.295	0.12
450.653	0.11
451.012	0.11
451.371	0.12
451.729	0.12
452.088	0.12
452.447	0.12
452.805	0.12
453.163	0.12
453.522	0.12
453.88	0.11
454.239	0.12
454.597	0.11
454.955	0.11
455.313	0.1
455.671	0.11
456.029	0.1
456.388	0.1
456.746	0.11
457.104	0.1
457.461	0.09
457.819	0.1
458.177	0.1
458.535	0.09
458.893	0.09
459.25	0.1
459.608	0.09
459.966	0.09
460.323	0.1
460.681	0.08
461.038	0.09
461.396	0.09
461.753	0.08
462.111	0.08
462.468	0.08
462.825	0.08
463.182	0.08
463.54	0.08
463.897	0.08
464.254	0.08
464.611	0.08
464.968	0.08
465.325	0.08
465.682	0.08
466.039	0.09
466.395	0.08
466.752	0.08
467.109	0.08
467.466	0.09
467.822	0.08
468.179	0.08
468.535	0.08
468.892	0.08
469.248	0.07
469.605	0.07
469.961	0.07
470.318	0.09
470.674	0.08
471.03	0.07
471.386	0.08
471.743	0.07
472.099	0.07
472.455	0.08
472.811	0.07
473.167	0.08
473.523	0.07
473.879	0.07
474.235	0.07
474.59	0.06
474.946	0.07
475.302	0.08
475.657	0.07
476.013	0.07
476.369	0.06
476.724	0.07
477.08	0.07
477.435	0.07
477.791	0.07
478.146	0.07
478.501	0.07
478.857	0.07
479.212	0.07
479.567	0.07
479.922	0.06
480.277	0.06
480.632	0.06
480.987	0.06
481.342	0.06
481.697	0.06
482.052	0.06
482.407	0.06
482.762	0.06
483.116	0.06
483.471	0.05
483.826	0.05
484.18	0.06
484.535	0.06
484.89	0.06
485.244	0.06
485.598	0.06
485.953	0.06
486.307	0.05
486.661	0.06
487.016	0.06
487.37	0.06
487.724	0.06
488.078	0.06
488.432	0.06
488.786	0.05
489.14	0.05
489.494	0.05
489.848	0.05
490.202	0.05
490.556	0.05
490.91	0.05
491.263	0.05
491.617	0.05
491.971	0.05
492.324	0.05
492.678	0.05
493.031	0.06
493.385	0.06
493.738	0.06
494.091	0.06
494.445	0.06
494.798	0.05
495.151	0.05
495.504	0.05
495.857	0.05
496.21	0.06
496.564	0.05
496.916	0.06
497.269	0.05
497.622	0.05
497.975	0.05
498.328	0.05
498.681	0.05
499.033	0.05
499.386	0.05
499.739	0.04
500.091	0.05
500.444	0.04
500.796	0.04
501.149	0.04
501.501	0.04
501.854	0.04
502.206	0.05
502.558	0.05
502.91	0.05
503.263	0.05
503.615	0.05
503.967	0.05
504.319	0.05
504.671	0.04
505.023	0.04
505.375	0.05
505.726	0.05
506.078	0.05
506.43	0.05
506.782	0.04
507.133	0.04
507.485	0.05
507.837	0.05
508.188	0.05
508.54	0.05
508.891	0.05
509.243	0.05
509.594	0.04
509.945	0.05
510.296	0.04
510.648	0.05
510.999	0.04
511.35	0.05
511.701	0.05
512.052	0.05
512.403	0.05
512.754	0.05
513.105	0.05
513.456	0.04
513.807	0.04
514.157	0.04
514.508	0.05
514.859	0.04
515.209	0.04
515.56	0.04
515.91	0.04
516.261	0.05
516.611	0.04
516.962	0.04
517.312	0.04
517.662	0.05
518.013	0.04
518.363	0.05
518.713	0.05
519.063	0.05
519.413	0.05
519.763	0.04
520.113	0.05
520.463	0.05
520.813	0.06
521.163	0.05
521.512	0.05
521.862	0.05
522.212	0.05
522.562	0.06
522.911	0.05
523.261	0.05
523.61	0.05
523.96	0.05
524.309	0.05
524.658	0.05
525.008	0.05
525.357	0.05
525.706	0.06
526.056	0.04
526.405	0.05
526.754	0.05
527.103	0.04
527.452	0.05
527.801	0.05
528.15	0.05
528.499	0.05
528.847	0.05
529.196	0.05
529.545	0.05
529.893	0.06
530.242	0.06
530.591	0.06
530.939	0.06
531.288	0.05
531.636	0.06
531.985	0.05
532.333	0.05
532.681	0.05
533.029	0.05
533.378	0.05
533.726	0.05
534.074	0.06
534.422	0.05
534.77	0.06
535.118	0.05
535.466	0.05
535.814	0.05
536.162	0.06
536.509	0.05
536.857	0.05
537.205	0.06
537.552	0.06
537.9	0.06
538.248	0.05
538.595	0.06
538.943	0.06
539.29	0.05
539.637	0.05
539.985	0.05
540.332	0.05
540.679	0.05
541.026	0.05
541.373	0.05
541.721	0.05
542.068	0.05
542.415	0.05
542.762	0.04
543.108	0.04
543.455	0.04
543.802	0.04
544.149	0.04
544.496	0.04
544.842	0.04
545.189	0.04
545.535	0.04
545.882	0.04
546.228	0.03
546.575	0.04
546.921	0.03
547.267	0.03
547.614	0.03
547.96	0.04
548.306	0.03
548.652	0.04
548.998	0.04
549.344	0.04
549.69	0.04
550.036	0.04
550.382	0.03
550.728	0.04
551.074	0.04
551.42	0.04
551.765	0.04
552.111	0.04
552.457	0.05
552.802	0.03
553.148	0.04
553.493	0.04
553.839	0.04
554.184	0.04
554.529	0.03
554.875	0.04
555.22	0.04
555.565	0.04
555.91	0.04
556.255	0.05
556.6	0.05
556.945	0.04
557.29	0.04
557.635	0.05
557.98	0.04
558.325	0.04
558.67	0.04
559.014	0.04
559.359	0.05
559.704	0.04
560.048	0.03
560.393	0.04
560.737	0.03
561.082	0.04
561.426	0.03
561.77	0.04
562.115	0.04
562.459	0.03
562.803	0.04
563.147	0.04
563.491	0.04
563.835	0.04
564.179	0.04
564.523	0.04
564.867	0.03
565.211	0.04
565.555	0.04
565.899	0.05
566.242	0.04
566.586	0.03
566.93	0.05
567.273	0.04
567.617	0.04
567.96	0.04
568.304	0.05
568.647	0.04
568.99	0.04
569.334	0.05
569.677	0.04
570.02	0.05
570.363	0.05
570.706	0.04
571.049	0.04
571.392	0.05
571.735	0.04
572.078	0.05
572.421	0.05
572.764	0.04
573.106	0.05
573.449	0.04
573.792	0.04
574.134	0.04
574.477	0.05
574.819	0.04
575.162	0.04
575.504	0.03
575.847	0.04
576.189	0.04
576.531	0.04
576.873	0.04
577.215	0.04
577.558	0.04
577.9	0.03
578.242	0.04
578.584	0.04
578.926	0.04
579.267	0.04
579.609	0.04
579.951	0.04
580.293	0.04
580.634	0.04
580.976	0.04
581.318	0.04
581.659	0.04
582.001	0.05
582.342	0.04
582.683	0.04
583.025	0.04
583.366	0.03
583.707	0.03
584.049	0.04
584.39	0.03
584.731	0.03
585.072	0.03
585.413	0.04
585.754	0.04
586.095	0.04
586.435	0.04
586.776	0.04
587.117	0.03
587.458	0.04
587.798	0.04
588.139	0.04
588.48	0.04
588.82	0.04
589.161	0.04
589.501	0.03
589.841	0.04
590.182	0.04
590.522	0.03
590.862	0.04
591.202	0.03
591.542	0.03
591.882	0.04
592.222	0.04
592.562	0.04
592.902	0.04
593.242	0.04
593.582	0.04
593.922	0.03
594.261	0.03
594.601	0.04
594.941	0.04
595.28	0.04
595.62	0.03
595.959	0.03
596.299	0.04
596.638	0.03
596.977	0.04
597.317	0.04
597.656	0.04
597.995	0.04
598.334	0.05
598.673	0.05
599.012	0.04
599.351	0.05
599.69	0.04
600.029	0.04
600.368	0.05
600.707	0.04
601.046	0.04
601.384	0.05
601.723	0.04
602.061	0.03
602.4	0.05
602.738	0.04
603.077	0.04
603.415	0.04
603.754	0.04
604.092	0.05
604.43	0.04
604.768	0.04
605.107	0.04
605.445	0.04
605.783	0.04
606.121	0.03
606.459	0.04
606.796	0.04
607.134	0.03
607.472	0.04
607.81	0.04
608.148	0.03
608.485	0.04
608.823	0.04
609.16	0.03
609.498	0.04
609.835	0.04
610.173	0.04
610.51	0.04
610.847	0.04
611.185	0.04
611.522	0.04
611.859	0.04
612.196	0.04
612.533	0.05
612.87	0.05
613.207	0.05
613.544	0.05
613.881	0.05
614.217	0.05
614.554	0.04
614.891	0.05
615.228	0.05
615.564	0.05
615.901	0.06
616.237	0.05
616.574	0.05
616.91	0.05
617.246	0.05
617.583	0.05
617.919	0.06
618.255	0.05
618.591	0.05
618.927	0.05
619.263	0.05
619.599	0.05
619.935	0.05
620.271	0.05
620.607	0.05
620.943	0.05
621.279	0.06
621.614	0.05
621.95	0.05
622.286	0.05
622.621	0.05
622.957	0.05
623.292	0.05
623.627	0.05
623.963	0.05
624.298	0.05
624.633	0.05
624.968	0.05
625.304	0.05
625.639	0.04
625.974	0.04
626.309	0.04
626.644	0.05
626.979	0.05
627.313	0.04
627.648	0.05
627.983	0.05
628.318	0.04
628.652	0.04
628.987	0.04
629.321	0.04
629.656	0.04
629.99	0.04
630.325	0.04
630.659	0.04
630.993	0.04
631.327	0.04
631.662	0.03
631.996	0.03
632.33	0.03
632.664	0.04
632.998	0.03
633.332	0.04
633.666	0.04
633.999	0.04
634.333	0.03
634.667	0.04
635.001	0.03
635.334	0.03
635.668	0.04
636.001	0.03
636.335	0.04
636.668	0.03
637.001	0.03
637.335	0.04
637.668	0.03
638.001	0.03
638.334	0.03
638.668	0.03
639.001	0.03
639.334	0.03
639.667	0.03
639.999	0.03
640.332	0.04
640.665	0.03
640.998	0.04
641.331	0.04
641.663	0.03
641.996	0.04
642.328	0.04
642.661	0.04
642.993	0.04
643.326	0.04
643.658	0.04
643.99	0.03
644.323	0.04
644.655	0.04
644.987	0.04
645.319	0.04
645.651	0.04
645.983	0.04
646.315	0.04
646.647	0.04
646.979	0.05
647.31	0.04
647.642	0.04
647.974	0.04
648.305	0.05
648.637	0.04
648.968	0.04
649.3	0.04
649.631	0.05
649.963	0.04
650.294	0.05
650.625	0.04
650.957	0.05
651.288	0.04
651.619	0.05
651.95	0.05
652.281	0.05
652.612	0.05
652.943	0.05
653.274	0.05
653.604	0.04
653.935	0.04
654.266	0.04
654.596	0.05
654.927	0.04
655.258	0.05
655.588	0.05
655.918	0.04
656.249	0.03
656.579	0.04
656.909	0.04
657.24	0.04
657.57	0.05
657.9	0.05
658.23	0.04
658.56	0.05
658.89	0.05
659.22	0.05
659.55	0.04
659.88	0.05
660.209	0.05
660.539	0.05
660.869	0.05
661.198	0.04
661.528	0.05
661.857	0.04
662.187	0.05
662.516	0.04
662.846	0.04
663.175	0.04
663.504	0.04
663.833	0.04
664.163	0.05
664.492	0.04
664.821	0.04
665.15	0.04
665.479	0.04
665.807	0.04
666.136	0.05
666.465	0.04
666.794	0.05
667.122	0.05
667.451	0.04
667.78	0.05
668.108	0.05
668.437	0.05
668.765	0.05
669.093	0.06
669.422	0.05
669.75	0.05
670.078	0.05
670.406	0.05
670.734	0.05
671.062	0.05
671.39	0.05
671.718	0.05
672.046	0.05
672.374	0.04
672.702	0.04
673.029	0.04
673.357	0.05
673.685	0.05
674.012	0.05
674.34	0.04
674.667	0.05
674.995	0.05
675.322	0.05
675.649	0.04
675.977	0.05
676.304	0.04
676.631	0.04
676.958	0.05
677.285	0.04
677.612	0.04
677.939	0.04
678.266	0.05
678.593	0.05
678.92	0.05
679.246	0.04
679.573	0.04
679.9	0.04
680.226	0.04
680.553	0.04
680.879	0.04
681.206	0.04
681.532	0.05
681.858	0.04
682.184	0.04
682.511	0.05
682.837	0.04
683.163	0.05
683.489	0.05
683.815	0.05
684.141	0.05
684.467	0.05
684.793	0.05
685.118	0.05
685.444	0.05
685.77	0.05
686.095	0.05
686.421	0.04
686.746	0.05
687.072	0.05
687.397	0.04
687.723	0.05
688.048	0.05
688.373	0.04
688.698	0.04
689.023	0.04
689.349	0.04
689.674	0.04
689.999	0.04
690.323	0.04
690.648	0.04
690.973	0.04
691.298	0.04
691.623	0.04
691.947	0.05
692.272	0.04
692.596	0.05
692.921	0.05
693.245	0.04
693.57	0.05
693.894	0.05
694.218	0.05
694.543	0.04
694.867	0.05
695.191	0.04
695.515	0.05
695.839	0.04
696.163	0.05
696.487	0.05
696.811	0.05
697.135	0.05
697.458	0.05
697.782	0.04
698.106	0.05
698.429	0.05
698.753	0.05
699.076	0.04
699.4	0.04
699.723	0.05
700.046	0.04
700.37	0.05
700.693	0.05
701.016	0.05
701.339	0.05
701.662	0.05
701.985	0.05
702.308	0.05
702.631	0.05
702.954	0.05
703.277	0.05
703.599	0.05
703.922	0.04
704.245	0.04
704.567	0.04
704.89	0.05
705.212	0.05
705.535	0.04
705.857	0.04
706.179	0.03
706.502	0.03
706.824	0.03
707.146	0.05
707.468	0.05
707.79	0.05
708.112	0.04
708.434	0.05
708.756	0.04
709.078	0.05
709.399	0.04
709.721	0.04
710.043	0.05
710.364	0.05
710.686	0.05
711.007	0.04
711.329	0.05
711.65	0.05
711.972	0.05
712.293	0.05
712.614	0.05
712.935	0.05
713.256	0.05
713.577	0.05
713.898	0.05
714.219	0.04
714.54	0.05
714.861	0.04
715.182	0.05
715.503	0.04
715.823	0.04
716.144	0.04
716.464	0.04
716.785	0.04
717.105	0.04
717.426	0.04
717.746	0.04
718.066	0.04
718.387	0.04
718.707	0.03
719.027	0.04
719.347	0.03
719.667	0.04
719.987	0.04
720.307	0.03
720.627	0.04
720.947	0.04
721.266	0.04
721.586	0.04
721.906	0.04
722.225	0.03
722.545	0.03
722.864	0.03
723.184	0.04
723.503	0.04
723.823	0.05
724.142	0.03
724.461	0.04
724.78	0.04
725.099	0.04
725.418	0.04
725.737	0.04
726.056	0.04
726.375	0.04
726.694	0.04
727.013	0.04
727.331	0.03
727.65	0.04
727.969	0.04
728.287	0.04
728.606	0.04
728.924	0.03
729.242	0.04
729.561	0.04
729.879	0.03
730.197	0.04
730.515	0.04
730.834	0.04
731.152	0.04
731.47	0.04
731.788	0.04
732.105	0.03
732.423	0.04
732.741	0.04
733.059	0.04
733.376	0.05
733.694	0.04
734.012	0.03
734.329	0.05
734.647	0.05
734.964	0.05
735.281	0.05
735.599	0.05
735.916	0.05
736.233	0.04
736.55	0.04
736.867	0.05
737.184	0.05
737.501	0.04
737.818	0.05
738.135	0.06
738.452	0.04
738.768	0.05
739.085	0.04
739.402	0.03
739.718	0.05
740.035	0.05
740.351	0.05
740.668	0.04
740.984	0.04
741.3	0.04
741.617	0.05
741.933	0.05
742.249	0.05
742.565	0.05
742.881	0.05
743.197	0.04
743.513	0.04
743.829	0.04
744.144	0.04
744.46	0.04
744.776	0.05
745.091	0.05
745.407	0.04
745.722	0.04
746.038	0.04
746.353	0.03
746.669	0.04
746.984	0.03
747.299	0.04
747.614	0.04
747.93	0.04
748.245	0.04
748.56	0.03
748.875	0.03
749.189	0.03
749.504	0.04
749.819	0.03
750.134	0.03
750.448	0.03
750.763	0.03
751.078	0.03
751.392	0.04
751.707	0.05
752.021	0.04
752.335	0.05
752.65	0.04
752.964	0.04
753.278	0.04
753.592	0.04
753.906	0.04
754.22	0.04
754.534	0.04
754.848	0.04
755.162	0.04
755.476	0.04
755.789	0.04
756.103	0.04
756.417	0.05
756.73	0.04
757.044	0.04
757.357	0.04
757.671	0.05
757.984	0.04
758.297	0.04
758.61	0.05
758.924	0.05
759.237	0.04
759.55	0.05
759.863	0.04
760.176	0.05
760.488	0.04
760.801	0.03
761.114	0.04
761.427	0.04
761.739	0.04
762.052	0.04
762.365	0.04
762.677	0.04
762.99	0.04
763.302	0.04
763.614	0.04
763.926	0.04
764.239	0.04
764.551	0.04
764.863	0.04
765.175	0.05
765.487	0.04
765.799	0.03
766.111	0.03
766.423	0.04
766.734	0.04
767.046	0.04
767.358	0.04
767.669	0.04
767.981	0.04
768.292	0.04
768.604	0.04
768.915	0.03
769.226	0.04
769.537	0.03
769.849	0.04
770.16	0.04
770.471	0.04
770.782	0.03
771.093	0.04
771.404	0.03
771.715	0.03
772.025	0.04
772.336	0.04
772.647	0.03
772.957	0.04
773.268	0.05
773.578	0.04
773.889	0.04
774.199	0.04
774.51	0.04
774.82	0.04
775.13	0.04
775.44	0.04
775.75	0.05
776.06	0.04
776.37	0.04
776.68	0.05
776.99	0.05
777.3	0.04
777.61	0.06
777.92	0.05
778.229	0.05
778.539	0.04
778.848	0.04
779.158	0.04
779.467	0.05
779.777	0.04
780.086	0.04
780.395	0.04
780.704	0.03
781.013	0.04
781.323	0.03
781.632	0.04
781.941	0.04
782.249	0.04
782.558	0.03
782.867	0.04
783.176	0.03
783.485	0.03
783.793	0.03
784.102	0.04
784.41	0.03
784.719	0.03
785.027	0.04
785.335	0.04
785.644	0.04
785.952	0.03
786.26	0.04
786.568	0.03
786.876	0.04
787.184	0.04
787.492	0.05
787.8	0.04
788.108	0.04
788.416	0.04
788.723	0.04
789.031	0.03
789.338	0.04
789.646	0.04
789.953	0.04
790.261	0.05
790.568	0.04
790.876	0.03
791.183	0.04
791.49	0.04
791.797	0.04
792.104	0.04
792.411	0.04
792.718	0.03
793.025	0.04
793.332	0.04
793.639	0.05
793.945	0.05
794.252	0.04
794.559	0.05
794.865	0.04
795.172	0.05
795.478	0.04
795.784	0.05
796.091	0.04
796.397	0.05
796.703	0.05
797.009	0.05
797.315	0.05
797.622	0.06
797.927	0.05
798.233	0.05
798.539	0.06
798.845	0.05
799.151	0.05
799.456	0.06
799.762	0.05
800.068	0.05
800.373	0.06
800.679	0.05
800.984	0.05
801.289	0.05
801.595	0.05
801.9	0.05
802.205	0.05
802.51	0.05
802.815	0.05
803.12	0.05
803.425	0.06
803.73	0.05
804.035	0.05
804.339	0.05
804.644	0.05
804.949	0.06
805.253	0.05
805.558	0.05
805.862	0.05
806.167	0.05
806.471	0.05
806.775	0.04
807.08	0.05
807.384	0.05
807.688	0.04
807.992	0.05
808.296	0.04
808.6	0.05
808.904	0.05
809.207	0.05
809.511	0.05
809.815	0.06
810.119	0.05
810.422	0.06
810.726	0.06
811.029	0.07
811.332	0.06
811.636	0.06
811.939	0.06
812.242	0.06
812.546	0.06
812.849	0.06
813.152	0.06
813.455	0.06
813.758	0.06
814.06	0.06
814.363	0.06
814.666	0.07
814.969	0.06
815.271	0.06
815.574	0.05
815.877	0.05
816.179	0.05
816.481	0.05
816.784	0.06
817.086	0.05
817.388	0.05
817.69	0.04
817.993	0.04
818.295	0.05
818.597	0.05
818.899	0.03
819.2	0.04
819.502	0.04
819.804	0.04
820.106	0.03
820.407	0.03
820.709	0.03
821.01	0.04
821.312	0.05
821.613	0.03
821.915	0.04
822.216	0.04
822.517	0.03
822.818	0.03
823.119	0.03
823.42	0.05
823.721	0.02
824.022	0.03
824.323	0.04
824.624	0.04
824.925	0.04
825.226	0.04
825.526	0.03
825.827	0.03
826.127	0.04
826.428	0.04
826.728	0.03
827.028	0.04
827.329	0.03
827.629	0.02
827.929	0.03
828.229	0.03
828.529	0.03
828.829	0.03
829.129	0.03
829.429	0.04
829.729	0.03
830.029	0.03
830.328	0.03
830.628	0.03
830.927	0.02
831.227	0.02
831.526	0.03
831.826	0.04
832.125	0.03
832.424	0.02
832.724	0.03
833.023	0.02
833.322	0.03
833.621	0.03
833.92	0.02
834.219	0.03
834.518	0.02
834.816	0.02
835.115	0.03
835.414	0.02
835.712	0.01
836.011	0.02
836.309	0.02
836.608	0.01
836.906	-0
837.205	0.01
837.503	0
837.801	0.01
838.099	-0.01
838.397	-0.02
838.695	-0
838.993	-0
839.291	-0.01
839.589	-0.01
839.887	-0.01
840.184	-0.01
840.482	-0.01
840.78	-0
841.077	-0.01
841.375	-0.02
841.672	-0.01
841.969	-0.02
842.267	-0.01
842.564	-0.01
842.861	-0.01
843.158	-0.02
843.455	-0.03
843.752	-0.02
844.049	-0.01
844.346	-0.02
844.643	-0.03
844.94	-0.02
845.236	-0.02
845.533	-0.02
845.83	-0.02
846.126	-0.02
846.423	-0.02
846.719	-0.04
847.015	-0.03
847.312	-0.03
847.608	-0.04
847.904	-0.04
848.2	-0.04
848.496	-0.04
848.792	-0.03
849.088	-0.03
849.384	-0.04
849.68	-0.04
849.975	-0.04
850.271	-0.04
850.567	-0.04
850.862	-0.05
851.158	-0.05
851.453	-0.05
851.748	-0.06
852.044	-0.06
852.339	-0.05
852.634	-0.06
852.929	-0.05
853.224	-0.05
853.519	-0.06
853.814	-0.05
854.109	-0.06
854.404	-0.06
854.699	-0.06
854.994	-0.05
855.288	-0.06
855.583	-0.05
855.877	-0.06
856.172	-0.06
856.466	-0.07
856.76	-0.07
857.055	-0.07
857.349	-0.07
857.643	-0.09
857.937	-0.09
858.231	-0.08
858.525	-0.08
858.819	-0.09
859.113	-0.1
859.407	-0.1
859.701	-0.1
859.994	-0.1
860.288	-0.1
860.581	-0.1
860.875	-0.11
861.168	-0.1
861.462	-0.1
861.755	-0.1
862.048	-0.1
862.341	-0.1
862.634	-0.12
862.928	-0.11
863.221	-0.1
863.513	-0.12
863.806	-0.11
864.099	-0.11
864.392	-0.11
864.685	-0.11
864.977	-0.11
865.27	-0.11
865.562	-0.13
865.855	-0.12
866.147	-0.12
866.44	-0.11
866.732	-0.12
867.024	-0.13
867.316	-0.13
867.608	-0.13
867.9	-0.12
868.192	-0.13
868.484	-0.13
868.776	-0.13
869.068	-0.13
869.359	-0.12
869.651	-0.13
869.943	-0.15
870.234	-0.14
870.526	-0.14
870.817	-0.14
871.108	-0.13
871.4	-0.13
871.691	-0.15
871.982	-0.16
872.273	-0.16
872.564	-0.15
872.855	-0.15
873.146	-0.15
873.437	-0.16
873.728	-0.16
874.019	-0.16
874.309	-0.17
874.6	-0.16
874.89	-0.16
875.181	-0.16
875.471	-0.16
875.762	-0.16
876.052	-0.15
876.342	-0.15
876.632	-0.17
876.922	-0.17
877.213	-0.17
877.503	-0.17
877.792	-0.17
878.082	-0.18
878.372	-0.16
878.662	-0.18
878.952	-0.17
879.241	-0.17
879.531	-0.16
879.82	-0.16
880.11	-0.17
880.399	-0.16
880.688	-0.16
880.978	-0.16
881.267	-0.16
