Data from 12-12-AQDScycling_Absorbance__122__00122.txt Node

Date: Tue Dec 12 11:27:14 EST 2023
User: kyuminlee
Spectrometer: FLMS00943
Trigger mode: 0
Integration Time (sec): 1.000000E-1
Scans to average: 1
Electric dark correction enabled: true
Nonlinearity correction enabled: false
Boxcar width: 0
XAxis mode: Wavelengths
Number of Pixels in Spectrum: 2048
>>>>>Begin Spectral Data<<<<<
179.651	0.83
180.037	0.83
180.424	0.83
180.81	-0.27
181.197	0.09
181.583	0.69
181.97	0.12
182.356	-1.02
182.743	-0.79
183.129	0.12
183.515	-0
183.901	-1.3
184.288	-0.03
184.674	-0
185.06	-0.48
185.446	-0.05
185.832	-0.97
186.218	1.01
186.604	-0
186.99	-0.22
187.376	-0
187.762	-0.11
188.148	-0
188.534	-0.52
188.92	0.06
189.305	-0.04
189.691	0.2
190.077	0.05
190.463	0.08
190.848	0.05
191.234	0.03
191.619	-0.01
192.005	0.21
192.391	0.16
192.776	0.16
193.161	0.1
193.547	0.15
193.932	0.06
194.318	0.06
194.703	0.14
195.088	0.11
195.473	0.18
195.859	0.13
196.244	0.14
196.629	0.01
197.014	0.16
197.399	0.05
197.784	0.07
198.169	0.07
198.554	0.1
198.939	0.14
199.324	0.12
199.709	0.03
200.094	0.06
200.478	0.02
200.863	0.28
201.248	0.24
201.633	0.13
202.017	0.16
202.402	0.21
202.787	0.04
203.171	0.12
203.556	0.13
203.94	0.14
204.325	0.26
204.709	0.18
205.093	0.09
205.478	0.11
205.862	0.11
206.246	0.14
206.631	0.1
207.015	0.19
207.399	0.29
207.783	0.26
208.167	0.11
208.551	0.06
208.935	0.08
209.319	0.13
209.703	0.14
210.087	0.23
210.471	0.05
210.855	0.13
211.239	0.15
211.623	0.28
212.007	0.24
212.39	0.17
212.774	0.32
213.158	0.04
213.541	0.22
213.925	0.24
214.309	0.2
214.692	0.28
215.076	0.26
215.459	0.2
215.842	0.26
216.226	0.21
216.609	0.23
216.993	0.2
217.376	0.38
217.759	0.13
218.142	0.26
218.525	0.39
218.909	0.35
219.292	0.32
219.675	0.45
220.058	0.4
220.441	0.6
220.824	0.49
221.207	0.45
221.59	0.52
221.973	0.49
222.355	0.57
222.738	0.83
223.121	0.64
223.504	0.52
223.886	0.7
224.269	0.75
224.652	0.6
225.034	0.95
225.417	0.92
225.799	0.84
226.182	0.82
226.564	0.85
226.947	0.88
227.329	0.75
227.711	0.99
228.094	0.94
228.476	0.96
228.858	0.86
229.24	0.84
229.623	0.98
230.005	0.87
230.387	1.08
230.769	0.76
231.151	0.93
231.533	0.87
231.915	0.89
232.297	1.01
232.679	0.88
233.061	0.95
233.442	1.06
233.824	1.02
234.206	1.09
234.588	1.04
234.969	1.09
235.351	0.93
235.733	1.08
236.114	1.18
236.496	1.03
236.877	1.01
237.259	1.1
237.64	1.04
238.022	0.91
238.403	1.06
238.784	1.02
239.165	0.97
239.547	1.12
239.928	1.15
240.309	0.94
240.69	1.01
241.071	1.13
241.452	1.19
241.834	1.06
242.215	1.04
242.595	1.01
242.976	1.05
243.357	1.08
243.738	1
244.119	1.35
244.5	1.16
244.881	1.17
245.261	1.11
245.642	1.06
246.023	1.2
246.403	1.27
246.784	1.29
247.164	1.16
247.545	1.28
247.925	1.34
248.306	1.11
248.686	1.2
249.067	1.2
249.447	1.3
249.827	1.4
250.207	1.41
250.588	1.3
250.968	1.47
251.348	1.3
251.728	1.42
252.108	1.31
252.488	1.54
252.868	1.25
253.248	1.31
253.628	1.46
254.008	1.46
254.388	1.34
254.768	1.26
255.147	1.34
255.527	1.38
255.907	1.53
256.287	1.2
256.666	1.36
257.046	1.51
257.425	1.63
257.805	1.3
258.184	1.39
258.564	1.4
258.943	1.5
259.323	1.44
259.702	1.41
260.081	1.49
260.461	1.45
260.84	1.45
261.219	1.64
261.598	1.6
261.977	1.56
262.356	1.46
262.736	1.49
263.115	1.5
263.494	1.39
263.873	1.48
264.251	1.48
264.63	1.59
265.009	1.43
265.388	1.38
265.767	1.3
266.145	1.34
266.524	1.43
266.903	1.33
267.281	1.31
267.66	1.53
268.039	1.38
268.417	1.32
268.796	1.41
269.174	1.51
269.552	1.38
269.931	1.37
270.309	1.4
270.687	1.48
271.066	1.65
271.444	1.42
271.822	1.55
272.2	1.4
272.578	1.45
272.956	1.46
273.334	1.4
273.712	1.33
274.09	1.34
274.468	1.31
274.846	1.22
275.224	1.32
275.602	1.62
275.98	1.77
276.357	1.49
276.735	1.46
277.113	1.44
277.49	1.21
277.868	1.34
278.246	1.34
278.623	1.35
279.001	1.29
279.378	1.33
279.756	1.41
280.133	1.49
280.51	1.38
280.888	1.47
281.265	1.32
281.642	1.47
282.019	1.5
282.396	1.51
282.773	1.37
283.151	1.51
283.528	1.4
283.905	1.36
284.282	1.51
284.659	1.61
285.035	1.35
285.412	1.28
285.789	1.4
286.166	1.37
286.543	1.47
286.919	1.47
287.296	1.38
287.673	1.7
288.049	1.49
288.426	1.57
288.802	1.52
289.179	1.39
289.555	1.52
289.932	1.4
290.308	1.28
290.684	1.44
291.061	1.32
291.437	1.56
291.813	1.39
292.189	1.16
292.565	1.34
292.942	1.35
293.318	1.36
293.694	1.56
294.07	1.27
294.446	1.52
294.822	1.47
295.197	1.42
295.573	1.45
295.949	1.32
296.325	1.32
296.701	1.48
297.076	1.44
297.452	1.53
297.828	1.28
298.203	1.42
298.579	1.3
298.954	1.35
299.33	1.31
299.705	1.28
300.081	1.35
300.456	1.35
300.831	1.23
301.206	1.2
301.582	1.29
301.957	1.17
302.332	1.22
302.707	1.16
303.082	1.11
303.457	1.17
303.832	1.15
304.207	1.07
304.582	1.03
304.957	1.04
305.332	1.05
305.707	1.03
306.082	1.04
306.456	1.02
306.831	0.95
307.206	0.93
307.58	0.93
307.955	0.89
308.33	0.88
308.704	0.85
309.079	0.82
309.453	0.86
309.828	0.85
310.202	0.79
310.576	0.79
310.951	0.8
311.325	0.76
311.699	0.77
312.073	0.76
312.447	0.74
312.821	0.73
313.196	0.73
313.57	0.69
313.944	0.69
314.317	0.69
314.691	0.67
315.065	0.67
315.439	0.66
315.813	0.67
316.187	0.63
316.56	0.65
316.934	0.64
317.308	0.61
317.681	0.6
318.055	0.61
318.428	0.61
318.802	0.62
319.175	0.6
319.549	0.6
319.922	0.58
320.295	0.58
320.669	0.61
321.042	0.58
321.415	0.59
321.788	0.57
322.162	0.56
322.535	0.57
322.908	0.57
323.281	0.55
323.654	0.56
324.027	0.55
324.4	0.54
324.773	0.56
325.145	0.53
325.518	0.55
325.891	0.54
326.264	0.58
326.636	0.53
327.009	0.55
327.382	0.55
327.754	0.58
328.127	0.57
328.499	0.58
328.872	0.56
329.244	0.56
329.616	0.58
329.989	0.6
330.361	0.58
330.733	0.6
331.106	0.59
331.478	0.62
331.85	0.62
332.222	0.61
332.594	0.63
332.966	0.63
333.338	0.66
333.71	0.65
334.082	0.67
334.454	0.65
334.826	0.68
335.197	0.67
335.569	0.68
335.941	0.69
336.312	0.69
336.684	0.68
337.056	0.74
337.427	0.75
337.799	0.75
338.17	0.79
338.542	0.75
338.913	0.79
339.284	0.8
339.656	0.79
340.027	0.79
340.398	0.84
340.769	0.82
341.141	0.85
341.512	0.83
341.883	0.86
342.254	0.87
342.625	0.9
342.996	0.89
343.367	0.86
343.738	0.95
344.108	0.9
344.479	0.97
344.85	0.91
345.221	0.99
345.591	0.96
345.962	1.05
346.333	1.02
346.703	0.94
347.074	1
347.444	0.96
347.815	1.01
348.185	1.07
348.556	1.04
348.926	1.05
349.296	1.09
349.666	1.07
350.037	1.08
350.407	1.06
350.777	1.14
351.147	1.1
351.517	1.22
351.887	1.19
352.257	1.27
352.627	1.19
352.997	1.21
353.367	1.25
353.737	1.35
354.106	1.31
354.476	1.28
354.846	1.33
355.216	1.34
355.585	1.48
355.955	1.35
356.324	1.43
356.694	1.39
357.063	1.43
357.433	1.36
357.802	1.37
358.171	1.46
358.541	1.47
358.91	1.55
359.279	1.5
359.648	1.42
360.017	1.59
360.387	1.54
360.756	1.51
361.125	1.51
361.494	1.62
361.863	1.54
362.231	1.5
362.6	1.5
362.969	1.65
363.338	1.5
363.707	1.6
364.075	1.57
364.444	1.5
364.813	1.48
365.181	1.5
365.55	1.49
365.918	1.66
366.287	1.51
366.655	1.59
367.024	1.46
367.392	1.64
367.76	1.54
368.128	1.49
368.497	1.4
368.865	1.44
369.233	1.59
369.601	1.47
369.969	1.52
370.337	1.56
370.705	1.53
371.073	1.53
371.441	1.63
371.809	1.43
372.177	1.42
372.544	1.51
372.912	1.55
373.28	1.63
373.647	1.78
374.015	1.48
374.383	1.74
374.75	1.65
375.118	1.56
375.485	1.6
375.853	1.55
376.22	1.45
376.587	1.56
376.955	1.59
377.322	1.51
377.689	1.51
378.056	1.42
378.423	1.45
378.79	1.64
379.157	1.58
379.524	1.53
379.891	1.57
380.258	1.51
380.625	1.52
380.992	1.41
381.359	1.51
381.726	1.74
382.092	1.49
382.459	1.53
382.826	1.53
383.192	1.6
383.559	1.45
383.925	1.62
384.292	1.44
384.658	1.81
385.025	1.47
385.391	1.67
385.757	1.62
386.123	1.6
386.49	1.49
386.856	1.66
387.222	1.47
387.588	1.54
387.954	1.6
388.32	1.65
388.686	1.63
389.052	1.44
389.418	1.61
389.784	1.47
390.15	1.61
390.515	1.38
390.881	1.75
391.247	1.46
391.613	1.63
391.978	1.5
392.344	1.65
392.709	1.56
393.075	1.47
393.44	1.58
393.806	1.59
394.171	1.46
394.536	1.44
394.902	1.52
395.267	1.65
395.632	1.45
395.997	1.38
396.362	1.5
396.727	1.51
397.092	1.54
397.457	1.53
397.822	1.56
398.187	1.58
398.552	1.46
398.917	1.66
399.282	1.63
399.646	1.55
400.011	1.92
400.376	1.47
400.74	1.55
401.105	1.5
401.47	1.58
401.834	1.52
402.199	1.58
402.563	1.51
402.927	1.59
403.292	1.63
403.656	1.46
404.02	1.56
404.384	1.57
404.749	1.58
405.113	1.62
405.477	1.56
405.841	1.62
406.205	1.68
406.569	1.45
406.933	1.48
407.296	1.53
407.66	1.53
408.024	1.68
408.388	1.49
408.752	1.63
409.115	1.57
409.479	1.51
409.842	1.52
410.206	1.39
410.569	1.5
410.933	1.64
411.296	1.41
411.66	1.61
412.023	1.5
412.386	1.58
412.749	1.48
413.113	1.46
413.476	1.37
413.839	1.51
414.202	1.53
414.565	1.34
414.928	1.45
415.291	1.36
415.654	1.52
416.017	1.64
416.38	1.5
416.742	1.46
417.105	1.42
417.468	1.45
417.83	1.45
418.193	1.58
418.556	1.54
418.918	1.42
419.281	1.45
419.643	1.52
420.005	1.47
420.368	1.55
420.73	1.47
421.092	1.53
421.455	1.62
421.817	1.39
422.179	1.49
422.541	1.5
422.903	1.57
423.265	1.58
423.627	1.47
423.989	1.44
424.351	1.44
424.713	1.59
425.075	1.48
425.436	1.57
425.798	1.42
426.16	1.62
426.521	1.71
426.883	1.48
427.245	1.47
427.606	1.43
427.967	1.39
428.329	1.59
428.69	1.56
429.052	1.51
429.413	1.55
429.774	1.55
430.135	1.6
430.497	1.56
430.858	1.53
431.219	1.55
431.58	1.49
431.941	1.54
432.302	1.41
432.663	1.55
433.024	1.54
433.384	1.49
433.745	1.5
434.106	1.63
434.467	1.5
434.827	1.56
435.188	1.45
435.548	1.75
435.909	1.55
436.269	1.57
436.63	1.46
436.99	1.44
437.351	1.42
437.711	1.62
438.071	1.49
438.431	1.47
438.792	1.47
439.152	1.5
439.512	1.43
439.872	1.5
440.232	1.58
440.592	1.47
440.952	1.49
441.312	1.44
441.671	1.52
442.031	1.41
442.391	1.48
442.751	1.5
443.11	1.53
443.47	1.4
443.83	1.38
444.189	1.41
444.549	1.42
444.908	1.39
445.267	1.41
445.627	1.42
445.986	1.43
446.345	1.35
446.705	1.42
447.064	1.39
447.423	1.39
447.782	1.38
448.141	1.39
448.5	1.32
448.859	1.37
449.218	1.33
449.577	1.35
449.936	1.38
450.295	1.32
450.653	1.39
451.012	1.37
451.371	1.36
451.729	1.31
452.088	1.34
452.447	1.33
452.805	1.32
453.163	1.34
453.522	1.29
453.88	1.26
454.239	1.28
454.597	1.24
454.955	1.2
455.313	1.22
455.671	1.25
456.029	1.23
456.388	1.2
456.746	1.2
457.104	1.16
457.461	1.16
457.819	1.16
458.177	1.15
458.535	1.13
458.893	1.11
459.25	1.1
459.608	1.09
459.966	1.04
460.323	1.06
460.681	1.03
461.038	1.02
461.396	1
461.753	1
462.111	1
462.468	0.97
462.825	0.97
463.182	0.94
463.54	0.92
463.897	0.93
464.254	0.91
464.611	0.89
464.968	0.86
465.325	0.88
465.682	0.84
466.039	0.83
466.395	0.82
466.752	0.82
467.109	0.79
467.466	0.79
467.822	0.79
468.179	0.75
468.535	0.75
468.892	0.73
469.248	0.72
469.605	0.7
469.961	0.71
470.318	0.7
470.674	0.68
471.03	0.67
471.386	0.66
471.743	0.65
472.099	0.62
472.455	0.62
472.811	0.62
473.167	0.61
473.523	0.58
473.879	0.58
474.235	0.57
474.59	0.55
474.946	0.54
475.302	0.53
475.657	0.52
476.013	0.51
476.369	0.5
476.724	0.5
477.08	0.49
477.435	0.48
477.791	0.46
478.146	0.47
478.501	0.46
478.857	0.44
479.212	0.44
479.567	0.43
479.922	0.41
480.277	0.4
480.632	0.4
480.987	0.39
481.342	0.38
481.697	0.37
482.052	0.37
482.407	0.36
482.762	0.35
483.116	0.34
483.471	0.33
483.826	0.32
484.18	0.31
484.535	0.31
484.89	0.3
485.244	0.29
485.598	0.29
485.953	0.28
486.307	0.28
486.661	0.28
487.016	0.26
487.37	0.26
487.724	0.25
488.078	0.25
488.432	0.24
488.786	0.24
489.14	0.23
489.494	0.22
489.848	0.22
490.202	0.21
490.556	0.21
490.91	0.21
491.263	0.2
491.617	0.2
491.971	0.19
492.324	0.19
492.678	0.19
493.031	0.18
493.385	0.17
493.738	0.17
494.091	0.17
494.445	0.17
494.798	0.16
495.151	0.15
495.504	0.16
495.857	0.15
496.21	0.15
496.564	0.14
496.916	0.15
497.269	0.14
497.622	0.14
497.975	0.14
498.328	0.13
498.681	0.13
499.033	0.13
499.386	0.12
499.739	0.11
500.091	0.11
500.444	0.12
500.796	0.11
501.149	0.1
501.501	0.1
501.854	0.11
502.206	0.1
502.558	0.1
502.91	0.1
503.263	0.1
503.615	0.1
503.967	0.1
504.319	0.09
504.671	0.09
505.023	0.09
505.375	0.08
505.726	0.09
506.078	0.08
506.43	0.07
506.782	0.07
507.133	0.07
507.485	0.07
507.837	0.08
508.188	0.07
508.54	0.07
508.891	0.07
509.243	0.07
509.594	0.07
509.945	0.06
510.296	0.06
510.648	0.06
510.999	0.05
511.35	0.06
511.701	0.05
512.052	0.06
512.403	0.06
512.754	0.05
513.105	0.05
513.456	0.05
513.807	0.04
514.157	0.05
514.508	0.05
514.859	0.04
515.209	0.04
515.56	0.04
515.91	0.04
516.261	0.04
516.611	0.04
516.962	0.04
517.312	0.04
517.662	0.04
518.013	0.04
518.363	0.04
518.713	0.04
519.063	0.04
519.413	0.03
519.763	0.04
520.113	0.04
520.463	0.04
520.813	0.04
521.163	0.04
521.512	0.04
521.862	0.04
522.212	0.04
522.562	0.04
522.911	0.03
523.261	0.03
523.61	0.03
523.96	0.03
524.309	0.04
524.658	0.03
525.008	0.03
525.357	0.03
525.706	0.03
526.056	0.03
526.405	0.03
526.754	0.03
527.103	0.02
527.452	0.03
527.801	0.03
528.15	0.03
528.499	0.03
528.847	0.03
529.196	0.03
529.545	0.04
529.893	0.04
530.242	0.03
530.591	0.03
530.939	0.04
531.288	0.04
531.636	0.04
531.985	0.03
532.333	0.04
532.681	0.03
533.029	0.03
533.378	0.03
533.726	0.03
534.074	0.03
534.422	0.02
534.77	0.03
535.118	0.03
535.466	0.02
535.814	0.02
536.162	0.03
536.509	0.03
536.857	0.03
537.205	0.02
537.552	0.03
537.9	0.03
538.248	0.02
538.595	0.03
538.943	0.03
539.29	0.02
539.637	0.02
539.985	0.02
540.332	0.01
540.679	0.01
541.026	0.01
541.373	0.02
541.721	0.01
542.068	0.02
542.415	0.02
542.762	0.02
543.108	0.01
543.455	0.01
543.802	0.01
544.149	0.02
544.496	0.01
544.842	0.01
545.189	0
545.535	0.01
545.882	0.02
546.228	0.01
546.575	0
546.921	0.01
547.267	0.01
547.614	0.01
547.96	0.01
548.306	0.01
548.652	0.01
548.998	0.02
549.344	0.01
549.69	0.02
550.036	0.01
550.382	0.02
550.728	0.01
551.074	0.02
551.42	0.03
551.765	0.01
552.111	0.02
552.457	0.02
552.802	0.01
553.148	0.02
553.493	0.01
553.839	0.02
554.184	0.02
554.529	0
554.875	0.02
555.22	0.02
555.565	0.02
555.91	0.01
556.255	0.02
556.6	0.02
556.945	0.01
557.29	0.02
557.635	0.02
557.98	0.02
558.325	0.01
558.67	0.01
559.014	0.01
559.359	0.02
559.704	0.01
560.048	0.01
560.393	0.01
560.737	0.01
561.082	0.01
561.426	-0.01
561.77	0.01
562.115	0
562.459	0.01
562.803	0.01
563.147	0.01
563.491	0.01
563.835	0.01
564.179	0.01
564.523	0.01
564.867	0.02
565.211	0.01
565.555	0.01
565.899	0.02
566.242	0.01
566.586	0.01
566.93	0.01
567.273	0.02
567.617	0.01
567.96	0.02
568.304	0.02
568.647	0.01
568.99	0.02
569.334	0.02
569.677	0.01
570.02	0.02
570.363	0.02
570.706	0.01
571.049	0.01
571.392	0.02
571.735	0.01
572.078	0.01
572.421	0.02
572.764	0.02
573.106	0.02
573.449	0.01
573.792	0.02
574.134	0.02
574.477	0.02
574.819	0.01
575.162	0.01
575.504	0
575.847	0.01
576.189	0.01
576.531	0.01
576.873	0.01
577.215	0.01
577.558	0.01
577.9	0.01
578.242	0.01
578.584	0.01
578.926	0.01
579.267	0.01
579.609	0.01
579.951	0.01
580.293	0.01
580.634	0.01
580.976	0
581.318	0.01
581.659	-0
582.001	0.01
582.342	0.01
582.683	0.01
583.025	0
583.366	0
583.707	0.01
584.049	0.01
584.39	0.01
584.731	0
585.072	0.01
585.413	0.01
585.754	0.01
586.095	0.01
586.435	0.02
586.776	0.01
587.117	0.01
587.458	0
587.798	0.01
588.139	0.01
588.48	0.01
588.82	0.01
589.161	0
589.501	-0
589.841	0.01
590.182	0.01
590.522	-0
590.862	0
591.202	0
591.542	0.01
591.882	0
592.222	0.01
592.562	0.01
592.902	0.01
593.242	0.01
593.582	0.02
593.922	0.01
594.261	0
594.601	0.01
594.941	0.01
595.28	0.01
595.62	0.01
595.959	0.01
596.299	0.01
596.638	0.01
596.977	0
597.317	0.01
597.656	0.01
597.995	0.01
598.334	0.01
598.673	0
599.012	0.01
599.351	0
599.69	0
600.029	0.01
600.368	0.01
600.707	0.01
601.046	0.01
601.384	0.01
601.723	0.01
602.061	0
602.4	0.01
602.738	0.01
603.077	0.01
603.415	0.01
603.754	0
604.092	0
604.43	0
604.768	0.01
605.107	0.01
605.445	0
605.783	0
606.121	0
606.459	0.01
606.796	0
607.134	0.01
607.472	0
607.81	0.01
608.148	0.01
608.485	0.01
608.823	0.01
609.16	0.01
609.498	0.01
609.835	0.01
610.173	0.01
610.51	0.01
610.847	0.01
611.185	0.01
611.522	0.01
611.859	0.02
612.196	0.02
612.533	0.02
612.87	0.02
613.207	0.03
613.544	0.02
613.881	0.02
614.217	0.02
614.554	0.03
614.891	0.03
615.228	0.02
615.564	0.03
615.901	0.03
616.237	0.02
616.574	0.02
616.91	0.03
617.246	0.02
617.583	0.02
617.919	0.03
618.255	0.03
618.591	0.03
618.927	0.02
619.263	0.03
619.599	0.02
619.935	0.03
620.271	0.03
620.607	0.02
620.943	0.02
621.279	0.03
621.614	0.02
621.95	0.02
622.286	0.02
622.621	0.02
622.957	0.02
623.292	0.02
623.627	0.01
623.963	0.01
624.298	0.02
624.633	0.01
624.968	0.01
625.304	0.01
625.639	0.01
625.974	0.01
626.309	0.01
626.644	0.01
626.979	0.02
627.313	0.01
627.648	0.02
627.983	0.02
628.318	0
628.652	0.01
628.987	0.02
629.321	0.02
629.656	0.01
629.99	0.01
630.325	0.02
630.659	0.02
630.993	0.01
631.327	0.02
631.662	0.01
631.996	0.01
632.33	0.02
632.664	0.02
632.998	0.01
633.332	0.01
633.666	0.01
633.999	0.01
634.333	0.01
634.667	0.01
635.001	0
635.334	0
635.668	0
636.001	0.01
636.335	0.01
636.668	0.01
637.001	0
637.335	0.01
637.668	0.01
638.001	0
638.334	0.01
638.668	0.01
639.001	0
639.334	0
639.667	0
639.999	0.01
640.332	0.01
640.665	0
640.998	0.01
641.331	0.01
641.663	0.01
641.996	0.01
642.328	0.01
642.661	0.01
642.993	0.01
643.326	0.01
643.658	0.01
643.99	0.01
644.323	0.01
644.655	0.01
644.987	0.02
645.319	0.02
645.651	0.02
645.983	0.01
646.315	0.01
646.647	0.02
646.979	0.02
647.31	0.02
647.642	0.02
647.974	0.01
648.305	0.02
648.637	0.02
648.968	0.02
649.3	0.02
649.631	0.02
649.963	0.02
650.294	0.02
650.625	0.02
650.957	0.02
651.288	0.02
651.619	0.02
651.95	0.02
652.281	0.02
652.612	0.02
652.943	0.02
653.274	0.03
653.604	0.02
653.935	0.02
654.266	0.02
654.596	0.02
654.927	0.02
655.258	0.03
655.588	0.02
655.918	0.02
656.249	0.01
656.579	0.02
656.909	0.02
657.24	0.02
657.57	0.02
657.9	0.02
658.23	0.02
658.56	0.02
658.89	0.03
659.22	0.01
659.55	0.02
659.88	0.03
660.209	0.03
660.539	0.04
660.869	0.03
661.198	0.03
661.528	0.03
661.857	0.02
662.187	0.03
662.516	0.03
662.846	0.02
663.175	0.02
663.504	0.02
663.833	0.02
664.163	0.03
664.492	0.02
664.821	0.02
665.15	0.02
665.479	0.03
665.807	0.02
666.136	0.02
666.465	0.02
666.794	0.02
667.122	0.02
667.451	0.02
667.78	0.02
668.108	0.02
668.437	0.02
668.765	0.02
669.093	0.03
669.422	0.02
669.75	0.02
670.078	0.02
670.406	0.02
670.734	0.02
671.062	0.02
671.39	0.02
671.718	0.02
672.046	0.03
672.374	0.02
672.702	0.02
673.029	0.02
673.357	0.02
673.685	0.03
674.012	0.02
674.34	0.02
674.667	0.03
674.995	0.03
675.322	0.03
675.649	0.01
675.977	0.03
676.304	0.03
676.631	0.02
676.958	0.03
677.285	0.02
677.612	0.02
677.939	0.02
678.266	0.03
678.593	0.02
678.92	0.02
679.246	0.02
679.573	0.01
679.9	0.02
680.226	0.02
680.553	0.02
680.879	0.01
681.206	0.02
681.532	0.01
681.858	0.02
682.184	0.02
682.511	0.02
682.837	0.01
683.163	0.02
683.489	0.02
683.815	0.02
684.141	0.02
684.467	0.02
684.793	0.02
685.118	0.02
685.444	0.02
685.77	0.02
686.095	0.02
686.421	0.02
686.746	0.02
687.072	0.02
687.397	0.02
687.723	0.02
688.048	0.03
688.373	0.02
688.698	0.03
689.023	0.02
689.349	0.02
689.674	0.02
689.999	0.02
690.323	0.01
690.648	0.01
690.973	0.01
691.298	0.01
691.623	0.01
691.947	0.01
692.272	0.01
692.596	0.01
692.921	0.01
693.245	0.01
693.57	0.02
693.894	0.02
694.218	0.02
694.543	0.01
694.867	0.01
695.191	0.01
695.515	0.02
695.839	0.01
696.163	0.01
696.487	0.01
696.811	0.01
697.135	0.02
697.458	0.01
697.782	0.01
698.106	0.01
698.429	0.02
698.753	0.01
699.076	0.02
699.4	0.02
699.723	0.02
700.046	0.02
700.37	0.02
700.693	0.02
701.016	0.02
701.339	0.02
701.662	0.03
701.985	0.02
702.308	0.02
702.631	0.02
702.954	0.02
703.277	0.02
703.599	0.02
703.922	0.02
704.245	0.02
704.567	0.01
704.89	0.02
705.212	0.02
705.535	0.02
705.857	0.01
706.179	0.02
706.502	0.02
706.824	0.01
707.146	0.01
707.468	0.02
707.79	0.02
708.112	0.02
708.434	0.01
708.756	0.02
709.078	0.02
709.399	0.02
709.721	0.02
710.043	0.02
710.364	0.02
710.686	0.02
711.007	0.02
711.329	0.02
711.65	0.02
711.972	0.01
712.293	0.02
712.614	0.02
712.935	0.02
713.256	0.02
713.577	0.02
713.898	0.02
714.219	0.02
714.54	0.01
714.861	0.02
715.182	0.02
715.503	0.01
715.823	0.02
716.144	0.01
716.464	0.02
716.785	0.01
717.105	0.01
717.426	0.01
717.746	0.02
718.066	0.02
718.387	0.01
718.707	0.01
719.027	0.01
719.347	0.01
719.667	0.02
719.987	0.01
720.307	0
720.627	0
720.947	0.01
721.266	0
721.586	-0
721.906	0.01
722.225	0
722.545	0.01
722.864	0
723.184	0.01
723.503	0.01
723.823	0.01
724.142	-0
724.461	0.01
724.78	0.01
725.099	0.01
725.418	0.01
725.737	0
726.056	0.02
726.375	0.01
726.694	0.01
727.013	0.01
727.331	0.01
727.65	0.01
727.969	0.01
728.287	0.01
728.606	0.01
728.924	0
729.242	0.01
729.561	0.01
729.879	0.01
730.197	0.01
730.515	0.01
730.834	0.01
731.152	0.01
731.47	0.01
731.788	0.01
732.105	0
732.423	0.01
732.741	-0
733.059	0
733.376	0.01
733.694	0
734.012	0
734.329	0
734.647	0
734.964	0.01
735.281	0.01
735.599	0.01
735.916	0.02
736.233	0.01
736.55	0.02
736.867	0.01
737.184	0.02
737.501	0.02
737.818	0.02
738.135	0.03
738.452	0.02
738.768	0.02
739.085	0.02
739.402	0.01
739.718	0.01
740.035	0.02
740.351	0.02
740.668	0.02
740.984	0.02
741.3	0.01
741.617	0.02
741.933	0.02
742.249	0.02
742.565	0.02
742.881	0.03
743.197	0.02
743.513	0.02
743.829	0.01
744.144	0.02
744.46	0.02
744.776	0.02
745.091	0.02
745.407	0.03
745.722	0.02
746.038	0.02
746.353	0.01
746.669	0.02
746.984	0.01
747.299	0.02
747.614	0.02
747.93	0.03
748.245	0.01
748.56	0.02
748.875	0.02
749.189	0.02
749.504	0.02
749.819	0.02
750.134	0.02
750.448	0.02
750.763	0.02
751.078	0.01
751.392	0.01
751.707	0.03
752.021	0.03
752.335	0.03
752.65	0.03
752.964	0.03
753.278	0.02
753.592	0.03
753.906	0.02
754.22	0.03
754.534	0.03
754.848	0.03
755.162	0.03
755.476	0.03
755.789	0.02
756.103	0.02
756.417	0.03
756.73	0.03
757.044	0.03
757.357	0.02
757.671	0.03
757.984	0.03
758.297	0.03
758.61	0.03
758.924	0.03
759.237	0.02
759.55	0.03
759.863	0.03
760.176	0.03
760.488	0.02
760.801	0.02
761.114	0.02
761.427	0.02
761.739	0.02
762.052	0.02
762.365	0.02
762.677	0.02
762.99	0.01
763.302	0.02
763.614	0.02
763.926	0.03
764.239	0.02
764.551	0.02
764.863	0.02
765.175	0.03
765.487	0.02
765.799	0.01
766.111	0.01
766.423	0.01
766.734	0.02
767.046	0.01
767.358	0.02
767.669	0.02
767.981	0.02
768.292	0.02
768.604	0.02
768.915	0.01
769.226	0.02
769.537	0
769.849	0.02
770.16	0.02
770.471	0.01
770.782	0.01
771.093	0.02
771.404	0
771.715	0.02
772.025	0.01
772.336	0.01
772.647	0.01
772.957	0.01
773.268	0.01
773.578	0.01
773.889	0.02
774.199	0.02
774.51	0.01
774.82	0.01
775.13	0.02
775.44	0.01
775.75	0.02
776.06	0.02
776.37	0.01
776.68	0.02
776.99	0.02
777.3	0.01
777.61	0.02
777.92	0.01
778.229	0.01
778.539	0.02
778.848	0.02
779.158	0.02
779.467	0.02
779.777	0.02
780.086	0.02
780.395	0.01
780.704	0.02
781.013	0.01
781.323	0.01
781.632	0.02
781.941	0.02
782.249	0.02
782.558	0.01
782.867	0.01
783.176	0
783.485	0.01
783.793	0.02
784.102	0.02
784.41	0.02
784.719	0.01
785.027	0.02
785.335	0.01
785.644	0.02
785.952	0.01
786.26	0.02
786.568	0.01
786.876	0.01
787.184	0.01
787.492	0.02
787.8	0.02
788.108	0.01
788.416	0.01
788.723	0.02
789.031	0.01
789.338	0.01
789.646	0.01
789.953	0.02
790.261	0.02
790.568	0.03
790.876	0.01
791.183	0.02
791.49	0.01
791.797	0.02
792.104	0.01
792.411	0.02
792.718	0.02
793.025	0.02
793.332	0.02
793.639	0.02
793.945	0.03
794.252	0.02
794.559	0.02
794.865	0.03
795.172	0.02
795.478	0.02
795.784	0.03
796.091	0.03
796.397	0.03
796.703	0.03
797.009	0.03
797.315	0.02
797.622	0.03
797.927	0.02
798.233	0.02
798.539	0.03
798.845	0.03
799.151	0.03
799.456	0.03
799.762	0.02
800.068	0.02
800.373	0.03
800.679	0.02
800.984	0.02
801.289	0.02
801.595	0.02
801.9	0.02
802.205	0.01
802.51	0.01
802.815	0.02
803.12	0.02
803.425	0.01
803.73	0.02
804.035	0.02
804.339	0.01
804.644	0.01
804.949	0.02
805.253	0.02
805.558	0.02
805.862	0.01
806.167	0.02
806.471	0.02
806.775	0.03
807.08	0.02
807.384	0.02
807.688	0.02
807.992	0.03
808.296	0.03
808.6	0.03
808.904	0.02
809.207	0.04
809.511	0.03
809.815	0.04
810.119	0.03
810.422	0.04
810.726	0.04
811.029	0.04
811.332	0.03
811.636	0.04
811.939	0.03
812.242	0.03
812.546	0.04
812.849	0.03
813.152	0.04
813.455	0.03
813.758	0.03
814.06	0.04
814.363	0.03
814.666	0.04
814.969	0.03
815.271	0.03
815.574	0.03
815.877	0.03
816.179	0.02
816.481	0.03
816.784	0.03
817.086	0.02
817.388	0.02
817.69	0.01
817.993	0.02
818.295	0.02
818.597	0.01
818.899	0.02
819.2	0.01
819.502	0.01
819.804	0.01
820.106	0.02
820.407	0.01
820.709	0.02
821.01	0.02
821.312	0.02
821.613	0.02
821.915	0.02
822.216	0.01
822.517	0.02
822.818	0.02
823.119	0.02
823.42	0.02
823.721	0.01
824.022	0.02
824.323	0.03
824.624	0.02
824.925	0.02
825.226	0.03
825.526	0.02
825.827	0.02
826.127	0.02
826.428	0.02
826.728	0.02
827.028	0.02
827.329	0.01
827.629	0.01
827.929	0.01
828.229	0.02
828.529	0.02
828.829	0.02
829.129	0.01
829.429	0.02
829.729	0.02
830.029	0.01
830.328	0.02
830.628	0.01
830.927	0.01
831.227	0.01
831.526	0.01
831.826	0.01
832.125	0.01
832.424	0.01
832.724	0.01
833.023	0
833.322	0.01
833.621	0
833.92	-0
834.219	0.01
834.518	0.01
834.816	-0.01
835.115	-0
835.414	0.01
835.712	0.01
836.011	-0
836.309	0
836.608	0
836.906	-0
837.205	-0.01
837.503	-0.01
837.801	-0
838.099	-0.01
838.397	-0.02
838.695	-0.02
838.993	-0.01
839.291	-0.02
839.589	-0.02
839.887	-0.02
840.184	-0.03
840.482	-0.03
840.78	-0.03
841.077	-0.04
841.375	-0.04
841.672	-0.04
841.969	-0.05
842.267	-0.04
842.564	-0.05
842.861	-0.04
843.158	-0.04
843.455	-0.06
843.752	-0.05
844.049	-0.05
844.346	-0.05
844.643	-0.06
844.94	-0.06
845.236	-0.05
845.533	-0.05
845.83	-0.05
846.126	-0.05
846.423	-0.05
846.719	-0.07
847.015	-0.06
847.312	-0.06
847.608	-0.06
847.904	-0.07
848.2	-0.07
848.496	-0.07
848.792	-0.06
849.088	-0.05
849.384	-0.07
849.68	-0.07
849.975	-0.07
850.271	-0.07
850.567	-0.08
850.862	-0.08
851.158	-0.08
851.453	-0.08
851.748	-0.08
852.044	-0.07
852.339	-0.08
852.634	-0.09
852.929	-0.07
853.224	-0.08
853.519	-0.08
853.814	-0.08
854.109	-0.1
854.404	-0.09
854.699	-0.09
854.994	-0.09
855.288	-0.09
855.583	-0.09
855.877	-0.1
856.172	-0.09
856.466	-0.1
856.76	-0.11
857.055	-0.1
857.349	-0.1
857.643	-0.12
857.937	-0.12
858.231	-0.11
858.525	-0.11
858.819	-0.12
859.113	-0.13
859.407	-0.12
859.701	-0.13
859.994	-0.13
860.288	-0.12
860.581	-0.13
860.875	-0.13
861.168	-0.14
861.462	-0.13
861.755	-0.13
862.048	-0.14
862.341	-0.13
862.634	-0.13
862.928	-0.14
863.221	-0.13
863.513	-0.14
863.806	-0.13
864.099	-0.14
864.392	-0.13
864.685	-0.14
864.977	-0.13
865.27	-0.14
865.562	-0.14
865.855	-0.13
866.147	-0.14
866.44	-0.14
866.732	-0.15
867.024	-0.15
867.316	-0.15
867.608	-0.15
867.9	-0.15
868.192	-0.15
868.484	-0.15
868.776	-0.15
869.068	-0.14
869.359	-0.15
869.651	-0.16
869.943	-0.17
870.234	-0.16
870.526	-0.16
870.817	-0.17
871.108	-0.15
871.4	-0.16
871.691	-0.16
871.982	-0.17
872.273	-0.17
872.564	-0.16
872.855	-0.17
873.146	-0.18
873.437	-0.17
873.728	-0.19
874.019	-0.17
874.309	-0.18
874.6	-0.16
874.89	-0.17
875.181	-0.17
875.471	-0.17
875.762	-0.17
876.052	-0.16
876.342	-0.15
876.632	-0.17
876.922	-0.17
877.213	-0.17
877.503	-0.18
877.792	-0.17
878.082	-0.19
878.372	-0.17
878.662	-0.2
878.952	-0.19
879.241	-0.17
879.531	-0.17
879.82	-0.18
880.11	-0.18
880.399	-0.19
880.688	-0.17
880.978	-0.17
881.267	-0.17
