Data from 12-12-AQDScycling_Absorbance__253__00253.txt Node

Date: Tue Dec 12 12:01:59 EST 2023
User: kyuminlee
Spectrometer: FLMS00943
Trigger mode: 0
Integration Time (sec): 1.000000E-1
Scans to average: 1
Electric dark correction enabled: true
Nonlinearity correction enabled: false
Boxcar width: 0
XAxis mode: Wavelengths
Number of Pixels in Spectrum: 2048
>>>>>Begin Spectral Data<<<<<
179.651	-0.14
180.037	-0.14
180.424	-0.14
180.81	-0.51
181.197	0.17
181.583	-0
181.97	0.82
182.356	0.12
182.743	-1.26
183.129	2.24
183.515	0.64
183.901	-2.45
184.288	0.74
184.674	-0
185.06	-0
185.446	-0
185.832	-0
186.218	1.5
186.604	-0
186.99	-0
187.376	-0
187.762	-0.18
188.148	1.62
188.534	-0.33
188.92	0.08
189.305	0.18
189.691	0.12
190.077	0.22
190.463	0.08
190.848	0.18
191.234	0.09
191.619	0.18
192.005	0.09
192.391	0.1
192.776	0.17
193.161	0.12
193.547	0.21
193.932	0.09
194.318	0.18
194.703	0.1
195.088	0.28
195.473	0.36
195.859	0.36
196.244	0.21
196.629	0.11
197.014	0.11
197.399	0.3
197.784	0.19
198.169	0.37
198.554	0.26
198.939	0.17
199.324	0.16
199.709	0.08
200.094	0.05
200.478	0.12
200.863	0.27
201.248	0.19
201.633	0.18
202.017	0.18
202.402	0.24
202.787	0.09
203.171	0.22
203.556	0.22
203.94	0.48
204.325	0.29
204.709	0.43
205.093	0.11
205.478	0.15
205.862	0.2
206.246	0.3
206.631	0.29
207.015	0.15
207.399	0.14
207.783	0.25
208.167	0.14
208.551	0.23
208.935	0.11
209.319	0.23
209.703	0.19
210.087	0.35
210.471	0.11
210.855	0.15
211.239	0.28
211.623	0.18
212.007	0.5
212.39	0.4
212.774	0.21
213.158	0.13
213.541	0.25
213.925	0.18
214.309	0.4
214.692	0.45
215.076	0.27
215.459	0.3
215.842	0.19
216.226	0.26
216.609	0.27
216.993	0.31
217.376	0.53
217.759	0.21
218.142	0.28
218.525	0.59
218.909	0.46
219.292	0.41
219.675	0.73
220.058	0.59
220.441	0.51
220.824	0.44
221.207	0.51
221.59	0.5
221.973	0.51
222.355	0.62
222.738	0.83
223.121	0.61
223.504	0.61
223.886	0.75
224.269	0.72
224.652	0.69
225.034	0.88
225.417	0.78
225.799	0.79
226.182	0.86
226.564	0.96
226.947	0.76
227.329	0.98
227.711	1.02
228.094	1.23
228.476	0.98
228.858	0.91
229.24	0.9
229.623	0.97
230.005	0.97
230.387	0.91
230.769	0.8
231.151	0.85
231.533	0.96
231.915	0.92
232.297	1.01
232.679	1.07
233.061	1.15
233.442	1.08
233.824	1.19
234.206	1.07
234.588	0.93
234.969	1.09
235.351	1.14
235.733	1.16
236.114	1.07
236.496	1.16
236.877	1.22
237.259	1.09
237.64	1.18
238.022	0.98
238.403	1.07
238.784	1.08
239.165	1.1
239.547	1.13
239.928	1.13
240.309	1.12
240.69	1.09
241.071	1.08
241.452	1.22
241.834	1.12
242.215	0.99
242.595	1.09
242.976	1.3
243.357	1.15
243.738	1.08
244.119	1.26
244.5	1.18
244.881	1.29
245.261	1.23
245.642	1.3
246.023	1.14
246.403	1.25
246.784	1.28
247.164	1.4
247.545	1.3
247.925	1.33
248.306	1.2
248.686	1.41
249.067	1.35
249.447	1.4
249.827	1.66
250.207	1.57
250.588	1.36
250.968	1.51
251.348	1.43
251.728	1.45
252.108	1.42
252.488	1.46
252.868	1.35
253.248	1.38
253.628	1.51
254.008	1.56
254.388	1.42
254.768	1.55
255.147	1.46
255.527	1.45
255.907	1.39
256.287	1.37
256.666	1.48
257.046	1.62
257.425	1.46
257.805	1.34
258.184	1.44
258.564	1.44
258.943	1.38
259.323	1.53
259.702	1.52
260.081	1.5
260.461	1.54
260.84	1.51
261.219	1.66
261.598	1.59
261.977	1.59
262.356	1.63
262.736	1.5
263.115	1.58
263.494	1.5
263.873	1.49
264.251	1.39
264.63	1.7
265.009	1.34
265.388	1.47
265.767	1.43
266.145	1.47
266.524	1.42
266.903	1.52
267.281	1.44
267.66	1.63
268.039	1.4
268.417	1.46
268.796	1.38
269.174	1.41
269.552	1.63
269.931	1.37
270.309	1.39
270.687	1.95
271.066	1.79
271.444	1.38
271.822	1.32
272.2	1.35
272.578	1.57
272.956	1.5
273.334	1.56
273.712	1.59
274.09	1.4
274.468	1.49
274.846	1.32
275.224	1.41
275.602	1.51
275.98	1.66
276.357	1.57
276.735	1.54
277.113	1.39
277.49	1.3
277.868	1.32
278.246	1.43
278.623	1.39
279.001	1.37
279.378	1.49
279.756	1.42
280.133	1.7
280.51	1.69
280.888	1.58
281.265	1.41
281.642	1.49
282.019	1.48
282.396	1.58
282.773	1.57
283.151	1.6
283.528	1.54
283.905	1.43
284.282	1.67
284.659	1.6
285.035	1.41
285.412	1.53
285.789	1.74
286.166	1.5
286.543	1.49
286.919	1.52
287.296	1.44
287.673	1.88
288.049	1.67
288.426	1.65
288.802	1.64
289.179	1.5
289.555	1.9
289.932	1.64
290.308	1.48
290.684	1.42
291.061	1.49
291.437	1.7
291.813	1.37
292.189	1.37
292.565	1.3
292.942	1.41
293.318	1.5
293.694	1.41
294.07	1.39
294.446	1.41
294.822	1.67
295.197	1.41
295.573	1.59
295.949	1.4
296.325	1.59
296.701	1.6
297.076	1.57
297.452	1.54
297.828	1.44
298.203	1.49
298.579	1.53
298.954	1.47
299.33	1.44
299.705	1.43
300.081	1.55
300.456	1.58
300.831	1.49
301.206	1.46
301.582	1.74
301.957	1.62
302.332	1.61
302.707	1.52
303.082	1.39
303.457	1.5
303.832	1.46
304.207	1.52
304.582	1.54
304.957	1.55
305.332	1.59
305.707	1.49
306.082	1.56
306.456	1.87
306.831	1.43
307.206	1.51
307.58	1.54
307.955	1.46
308.33	1.5
308.704	1.49
309.079	1.45
309.453	1.83
309.828	1.55
310.202	1.54
310.576	1.47
310.951	1.43
311.325	1.58
311.699	1.51
312.073	1.48
312.447	1.45
312.821	1.4
313.196	1.62
313.57	1.35
313.944	1.56
314.317	1.45
314.691	1.52
315.065	1.54
315.439	1.59
315.813	1.54
316.187	1.51
316.56	1.54
316.934	1.64
317.308	1.43
317.681	1.53
318.055	1.6
318.428	1.59
318.802	1.85
319.175	1.5
319.549	1.51
319.922	1.44
320.295	1.43
320.669	1.59
321.042	1.52
321.415	1.58
321.788	1.58
322.162	1.51
322.535	1.56
322.908	1.66
323.281	1.5
323.654	1.74
324.027	1.55
324.4	1.53
324.773	1.5
325.145	1.73
325.518	1.5
325.891	1.49
326.264	1.63
326.636	1.33
327.009	1.43
327.382	1.46
327.754	1.71
328.127	1.74
328.499	1.58
328.872	1.61
329.244	1.51
329.616	1.41
329.989	1.59
330.361	1.78
330.733	1.51
331.106	1.4
331.478	1.63
331.85	1.53
332.222	1.52
332.594	1.54
332.966	1.53
333.338	1.61
333.71	1.52
334.082	1.71
334.454	1.4
334.826	1.48
335.197	1.67
335.569	1.55
335.941	1.42
336.312	1.63
336.684	1.39
337.056	1.56
337.427	1.75
337.799	1.61
338.17	1.45
338.542	1.52
338.913	1.58
339.284	1.62
339.656	1.56
340.027	1.6
340.398	1.57
340.769	1.51
341.141	1.73
341.512	1.64
341.883	1.66
342.254	1.64
342.625	1.59
342.996	1.66
343.367	1.59
343.738	1.46
344.108	1.58
344.479	1.66
344.85	1.63
345.221	1.56
345.591	1.3
345.962	1.52
346.333	1.42
346.703	1.37
347.074	1.38
347.444	1.46
347.815	1.63
348.185	1.34
348.556	1.35
348.926	1.4
349.296	1.53
349.666	1.34
350.037	1.33
350.407	1.29
350.777	1.33
351.147	1.44
351.517	1.52
351.887	1.36
352.257	1.5
352.627	1.4
352.997	1.27
353.367	1.38
353.737	1.54
354.106	1.38
354.476	1.3
354.846	1.36
355.216	1.32
355.585	1.39
355.955	1.36
356.324	1.36
356.694	1.31
357.063	1.31
357.433	1.31
357.802	1.32
358.171	1.33
358.541	1.31
358.91	1.31
359.279	1.32
359.648	1.23
360.017	1.29
360.387	1.24
360.756	1.13
361.125	1.21
361.494	1.25
361.863	1.17
362.231	1.19
362.6	1.2
362.969	1.16
363.338	1.09
363.707	1.18
364.075	1.17
364.444	1.08
364.813	1.06
365.181	1.12
365.55	1.08
365.918	1.14
366.287	1.05
366.655	1.11
367.024	1.03
367.392	1.07
367.76	1.05
368.128	1.04
368.497	1
368.865	1.02
369.233	1.01
369.601	1.02
369.969	0.98
370.337	1.02
370.705	1.02
371.073	0.98
371.441	1.05
371.809	0.99
372.177	0.97
372.544	0.96
372.912	1.03
373.28	0.95
373.647	1.04
374.015	1.02
374.383	1.02
374.75	1.04
375.118	0.97
375.485	1
375.853	0.99
376.22	0.96
376.587	0.98
376.955	0.96
377.322	0.97
377.689	0.95
378.056	0.97
378.423	0.94
378.79	1.03
379.157	1.01
379.524	0.99
379.891	0.99
380.258	1.04
380.625	0.96
380.992	0.96
381.359	0.99
381.726	1.06
382.092	1.04
382.459	0.98
382.826	1
383.192	1.01
383.559	1.06
383.925	1.04
384.292	1
384.658	1.07
385.025	1.04
385.391	1.06
385.757	1.09
386.123	1.07
386.49	1.09
386.856	1.06
387.222	1.11
387.588	1.11
387.954	1.13
388.32	1.14
388.686	1.12
389.052	1.07
389.418	1.13
389.784	1.07
390.15	1.11
390.515	1.03
390.881	1.08
391.247	1.06
391.613	1.15
391.978	1.07
392.344	1.12
392.709	1.06
393.075	1.12
393.44	1.11
393.806	1.11
394.171	1.09
394.536	1.07
394.902	1.09
395.267	1.06
395.632	1.13
395.997	1.07
396.362	1.06
396.727	1.09
397.092	1.09
397.457	1.13
397.822	1.05
398.187	1.11
398.552	1.01
398.917	1.04
399.282	1.05
399.646	1
400.011	1.09
400.376	0.97
400.74	1.02
401.105	0.98
401.47	1.01
401.834	1
402.199	0.99
402.563	0.92
402.927	0.97
403.292	0.97
403.656	0.99
404.02	0.98
404.384	0.93
404.749	0.92
405.113	0.96
405.477	0.93
405.841	0.94
406.205	0.93
406.569	0.88
406.933	0.88
407.296	0.89
407.66	0.87
408.024	0.86
408.388	0.9
408.752	0.86
409.115	0.87
409.479	0.85
409.842	0.85
410.206	0.83
410.569	0.83
410.933	0.81
411.296	0.8
411.66	0.83
412.023	0.78
412.386	0.83
412.749	0.78
413.113	0.82
413.476	0.76
413.839	0.78
414.202	0.79
414.565	0.74
414.928	0.78
415.291	0.74
415.654	0.76
416.017	0.73
416.38	0.73
416.742	0.7
417.105	0.73
417.468	0.73
417.83	0.73
418.193	0.79
418.556	0.76
418.918	0.73
419.281	0.73
419.643	0.75
420.005	0.74
420.368	0.75
420.73	0.69
421.092	0.74
421.455	0.71
421.817	0.7
422.179	0.71
422.541	0.72
422.903	0.73
423.265	0.71
423.627	0.7
423.989	0.69
424.351	0.67
424.713	0.72
425.075	0.67
425.436	0.65
425.798	0.67
426.16	0.7
426.521	0.69
426.883	0.69
427.245	0.66
427.606	0.66
427.967	0.67
428.329	0.66
428.69	0.67
429.052	0.67
429.413	0.66
429.774	0.66
430.135	0.67
430.497	0.65
430.858	0.64
431.219	0.64
431.58	0.65
431.941	0.67
432.302	0.66
432.663	0.63
433.024	0.64
433.384	0.65
433.745	0.63
434.106	0.63
434.467	0.65
434.827	0.63
435.188	0.61
435.548	0.63
435.909	0.62
436.269	0.63
436.63	0.61
436.99	0.62
437.351	0.61
437.711	0.61
438.071	0.6
438.431	0.63
438.792	0.61
439.152	0.62
439.512	0.6
439.872	0.59
440.232	0.62
440.592	0.58
440.952	0.6
441.312	0.6
441.671	0.58
442.031	0.58
442.391	0.57
442.751	0.58
443.11	0.58
443.47	0.56
443.83	0.56
444.189	0.57
444.549	0.56
444.908	0.55
445.267	0.55
445.627	0.55
445.986	0.54
446.345	0.54
446.705	0.53
447.064	0.54
447.423	0.54
447.782	0.53
448.141	0.54
448.5	0.51
448.859	0.53
449.218	0.52
449.577	0.51
449.936	0.53
450.295	0.52
450.653	0.49
451.012	0.51
451.371	0.52
451.729	0.5
452.088	0.51
452.447	0.51
452.805	0.49
453.163	0.49
453.522	0.5
453.88	0.49
454.239	0.48
454.597	0.48
454.955	0.45
455.313	0.47
455.671	0.47
456.029	0.46
456.388	0.46
456.746	0.46
457.104	0.45
457.461	0.43
457.819	0.44
458.177	0.43
458.535	0.43
458.893	0.42
459.25	0.42
459.608	0.41
459.966	0.42
460.323	0.4
460.681	0.39
461.038	0.41
461.396	0.39
461.753	0.39
462.111	0.38
462.468	0.38
462.825	0.38
463.182	0.38
463.54	0.37
463.897	0.37
464.254	0.37
464.611	0.36
464.968	0.35
465.325	0.36
465.682	0.35
466.039	0.35
466.395	0.35
466.752	0.34
467.109	0.33
467.466	0.33
467.822	0.34
468.179	0.32
468.535	0.32
468.892	0.32
469.248	0.31
469.605	0.31
469.961	0.31
470.318	0.31
470.674	0.31
471.03	0.31
471.386	0.3
471.743	0.29
472.099	0.3
472.455	0.3
472.811	0.29
473.167	0.28
473.523	0.27
473.879	0.27
474.235	0.26
474.59	0.26
474.946	0.26
475.302	0.26
475.657	0.26
476.013	0.25
476.369	0.24
476.724	0.25
477.08	0.25
477.435	0.24
477.791	0.24
478.146	0.24
478.501	0.24
478.857	0.24
479.212	0.23
479.567	0.24
479.922	0.22
480.277	0.22
480.632	0.22
480.987	0.22
481.342	0.22
481.697	0.21
482.052	0.21
482.407	0.2
482.762	0.21
483.116	0.2
483.471	0.19
483.826	0.2
484.18	0.19
484.535	0.18
484.89	0.19
485.244	0.19
485.598	0.19
485.953	0.18
486.307	0.18
486.661	0.19
487.016	0.18
487.37	0.18
487.724	0.18
488.078	0.18
488.432	0.17
488.786	0.18
489.14	0.17
489.494	0.17
489.848	0.16
490.202	0.17
490.556	0.17
490.91	0.17
491.263	0.16
491.617	0.16
491.971	0.17
492.324	0.16
492.678	0.16
493.031	0.16
493.385	0.16
493.738	0.16
494.091	0.16
494.445	0.16
494.798	0.16
495.151	0.15
495.504	0.16
495.857	0.15
496.21	0.15
496.564	0.15
496.916	0.15
497.269	0.15
497.622	0.15
497.975	0.15
498.328	0.15
498.681	0.15
499.033	0.15
499.386	0.14
499.739	0.14
500.091	0.14
500.444	0.14
500.796	0.14
501.149	0.14
501.501	0.15
501.854	0.13
502.206	0.14
502.558	0.13
502.91	0.14
503.263	0.13
503.615	0.14
503.967	0.13
504.319	0.14
504.671	0.13
505.023	0.12
505.375	0.13
505.726	0.13
506.078	0.13
506.43	0.13
506.782	0.13
507.133	0.13
507.485	0.13
507.837	0.14
508.188	0.13
508.54	0.12
508.891	0.13
509.243	0.13
509.594	0.13
509.945	0.13
510.296	0.13
510.648	0.13
510.999	0.12
511.35	0.12
511.701	0.13
512.052	0.13
512.403	0.13
512.754	0.12
513.105	0.13
513.456	0.12
513.807	0.12
514.157	0.13
514.508	0.12
514.859	0.11
515.209	0.12
515.56	0.13
515.91	0.11
516.261	0.12
516.611	0.11
516.962	0.11
517.312	0.11
517.662	0.12
518.013	0.12
518.363	0.12
518.713	0.12
519.063	0.12
519.413	0.12
519.763	0.12
520.113	0.12
520.463	0.12
520.813	0.12
521.163	0.12
521.512	0.12
521.862	0.12
522.212	0.12
522.562	0.12
522.911	0.12
523.261	0.12
523.61	0.12
523.96	0.12
524.309	0.12
524.658	0.12
525.008	0.12
525.357	0.12
525.706	0.12
526.056	0.12
526.405	0.12
526.754	0.12
527.103	0.12
527.452	0.12
527.801	0.12
528.15	0.12
528.499	0.12
528.847	0.12
529.196	0.13
529.545	0.13
529.893	0.13
530.242	0.12
530.591	0.13
530.939	0.13
531.288	0.13
531.636	0.13
531.985	0.13
532.333	0.13
532.681	0.13
533.029	0.13
533.378	0.14
533.726	0.13
534.074	0.14
534.422	0.13
534.77	0.14
535.118	0.12
535.466	0.12
535.814	0.13
536.162	0.13
536.509	0.13
536.857	0.13
537.205	0.13
537.552	0.13
537.9	0.13
538.248	0.12
538.595	0.14
538.943	0.13
539.29	0.13
539.637	0.13
539.985	0.13
540.332	0.13
540.679	0.13
541.026	0.12
541.373	0.13
541.721	0.12
542.068	0.12
542.415	0.12
542.762	0.12
543.108	0.11
543.455	0.1
543.802	0.12
544.149	0.12
544.496	0.11
544.842	0.12
545.189	0.11
545.535	0.12
545.882	0.12
546.228	0.12
546.575	0.11
546.921	0.12
547.267	0.11
547.614	0.11
547.96	0.11
548.306	0.11
548.652	0.11
548.998	0.11
549.344	0.11
549.69	0.12
550.036	0.12
550.382	0.12
550.728	0.12
551.074	0.13
551.42	0.12
551.765	0.12
552.111	0.13
552.457	0.13
552.802	0.13
553.148	0.13
553.493	0.12
553.839	0.13
554.184	0.14
554.529	0.12
554.875	0.13
555.22	0.13
555.565	0.13
555.91	0.13
556.255	0.13
556.6	0.13
556.945	0.12
557.29	0.12
557.635	0.13
557.98	0.13
558.325	0.13
558.67	0.13
559.014	0.13
559.359	0.13
559.704	0.12
560.048	0.12
560.393	0.13
560.737	0.11
561.082	0.12
561.426	0.12
561.77	0.12
562.115	0.11
562.459	0.12
562.803	0.12
563.147	0.12
563.491	0.12
563.835	0.12
564.179	0.12
564.523	0.12
564.867	0.12
565.211	0.12
565.555	0.13
565.899	0.13
566.242	0.12
566.586	0.12
566.93	0.13
567.273	0.13
567.617	0.12
567.96	0.13
568.304	0.13
568.647	0.12
568.99	0.12
569.334	0.14
569.677	0.13
570.02	0.13
570.363	0.13
570.706	0.13
571.049	0.13
571.392	0.13
571.735	0.12
572.078	0.13
572.421	0.14
572.764	0.12
573.106	0.12
573.449	0.12
573.792	0.11
574.134	0.12
574.477	0.13
574.819	0.13
575.162	0.12
575.504	0.12
575.847	0.13
576.189	0.12
576.531	0.12
576.873	0.12
577.215	0.12
577.558	0.13
577.9	0.12
578.242	0.12
578.584	0.13
578.926	0.13
579.267	0.13
579.609	0.13
579.951	0.13
580.293	0.12
580.634	0.13
580.976	0.12
581.318	0.12
581.659	0.12
582.001	0.12
582.342	0.12
582.683	0.13
583.025	0.12
583.366	0.12
583.707	0.12
584.049	0.12
584.39	0.12
584.731	0.12
585.072	0.11
585.413	0.13
585.754	0.12
586.095	0.12
586.435	0.13
586.776	0.13
587.117	0.13
587.458	0.12
587.798	0.13
588.139	0.13
588.48	0.12
588.82	0.12
589.161	0.12
589.501	0.11
589.841	0.12
590.182	0.12
590.522	0.12
590.862	0.12
591.202	0.13
591.542	0.12
591.882	0.12
592.222	0.12
592.562	0.12
592.902	0.12
593.242	0.12
593.582	0.12
593.922	0.12
594.261	0.11
594.601	0.12
594.941	0.13
595.28	0.12
595.62	0.12
595.959	0.12
596.299	0.12
596.638	0.12
596.977	0.13
597.317	0.13
597.656	0.13
597.995	0.12
598.334	0.13
598.673	0.12
599.012	0.12
599.351	0.12
599.69	0.12
600.029	0.12
600.368	0.12
600.707	0.12
601.046	0.12
601.384	0.12
601.723	0.12
602.061	0.12
602.4	0.12
602.738	0.12
603.077	0.12
603.415	0.12
603.754	0.12
604.092	0.12
604.43	0.12
604.768	0.13
605.107	0.13
605.445	0.12
605.783	0.11
606.121	0.11
606.459	0.12
606.796	0.13
607.134	0.12
607.472	0.12
607.81	0.13
608.148	0.12
608.485	0.12
608.823	0.12
609.16	0.12
609.498	0.12
609.835	0.12
610.173	0.12
610.51	0.13
610.847	0.13
611.185	0.13
611.522	0.12
611.859	0.12
612.196	0.13
612.533	0.13
612.87	0.13
613.207	0.13
613.544	0.13
613.881	0.14
614.217	0.13
614.554	0.12
614.891	0.13
615.228	0.13
615.564	0.13
615.901	0.13
616.237	0.13
616.574	0.13
616.91	0.13
617.246	0.13
617.583	0.13
617.919	0.14
618.255	0.14
618.591	0.13
618.927	0.13
619.263	0.14
619.599	0.14
619.935	0.13
620.271	0.13
620.607	0.13
620.943	0.13
621.279	0.13
621.614	0.13
621.95	0.13
622.286	0.12
622.621	0.12
622.957	0.12
623.292	0.12
623.627	0.12
623.963	0.12
624.298	0.12
624.633	0.12
624.968	0.12
625.304	0.12
625.639	0.11
625.974	0.12
626.309	0.11
626.644	0.12
626.979	0.12
627.313	0.12
627.648	0.11
627.983	0.12
628.318	0.11
628.652	0.11
628.987	0.11
629.321	0.12
629.656	0.11
629.99	0.11
630.325	0.11
630.659	0.12
630.993	0.11
631.327	0.11
631.662	0.11
631.996	0.11
632.33	0.11
632.664	0.12
632.998	0.11
633.332	0.11
633.666	0.11
633.999	0.12
634.333	0.11
634.667	0.11
635.001	0.11
635.334	0.11
635.668	0.11
636.001	0.11
636.335	0.11
636.668	0.1
637.001	0.1
637.335	0.11
637.668	0.11
638.001	0.1
638.334	0.11
638.668	0.1
639.001	0.1
639.334	0.1
639.667	0.1
639.999	0.1
640.332	0.1
640.665	0.1
640.998	0.1
641.331	0.1
641.663	0.09
641.996	0.09
642.328	0.1
642.661	0.1
642.993	0.1
643.326	0.1
643.658	0.1
643.99	0.1
644.323	0.09
644.655	0.1
644.987	0.1
645.319	0.1
645.651	0.1
645.983	0.1
646.315	0.1
646.647	0.1
646.979	0.11
647.31	0.11
647.642	0.11
647.974	0.11
648.305	0.12
648.637	0.1
648.968	0.11
649.3	0.11
649.631	0.11
649.963	0.11
650.294	0.11
650.625	0.11
650.957	0.11
651.288	0.11
651.619	0.12
651.95	0.11
652.281	0.11
652.612	0.11
652.943	0.12
653.274	0.12
653.604	0.11
653.935	0.11
654.266	0.11
654.596	0.11
654.927	0.11
655.258	0.11
655.588	0.12
655.918	0.11
656.249	0.09
656.579	0.1
656.909	0.1
657.24	0.11
657.57	0.11
657.9	0.1
658.23	0.11
658.56	0.12
658.89	0.11
659.22	0.11
659.55	0.11
659.88	0.11
660.209	0.11
660.539	0.13
660.869	0.12
661.198	0.12
661.528	0.12
661.857	0.11
662.187	0.12
662.516	0.11
662.846	0.11
663.175	0.11
663.504	0.11
663.833	0.11
664.163	0.11
664.492	0.1
664.821	0.11
665.15	0.11
665.479	0.1
665.807	0.1
666.136	0.11
666.465	0.1
666.794	0.1
667.122	0.1
667.451	0.1
667.78	0.1
668.108	0.11
668.437	0.1
668.765	0.1
669.093	0.11
669.422	0.1
669.75	0.1
670.078	0.1
670.406	0.11
670.734	0.11
671.062	0.11
671.39	0.11
671.718	0.1
672.046	0.1
672.374	0.1
672.702	0.1
673.029	0.1
673.357	0.11
673.685	0.11
674.012	0.1
674.34	0.1
674.667	0.11
674.995	0.1
675.322	0.11
675.649	0.1
675.977	0.1
676.304	0.1
676.631	0.1
676.958	0.1
677.285	0.09
677.612	0.09
677.939	0.1
678.266	0.1
678.593	0.1
678.92	0.1
679.246	0.09
679.573	0.09
679.9	0.09
680.226	0.1
680.553	0.09
680.879	0.1
681.206	0.09
681.532	0.09
681.858	0.09
682.184	0.09
682.511	0.09
682.837	0.09
683.163	0.09
683.489	0.09
683.815	0.09
684.141	0.09
684.467	0.09
684.793	0.08
685.118	0.08
685.444	0.09
685.77	0.09
686.095	0.09
686.421	0.09
686.746	0.1
687.072	0.09
687.397	0.09
687.723	0.1
688.048	0.09
688.373	0.09
688.698	0.1
689.023	0.1
689.349	0.09
689.674	0.1
689.999	0.1
690.323	0.09
690.648	0.08
690.973	0.09
691.298	0.09
691.623	0.08
691.947	0.09
692.272	0.09
692.596	0.08
692.921	0.08
693.245	0.08
693.57	0.08
693.894	0.08
694.218	0.08
694.543	0.08
694.867	0.09
695.191	0.08
695.515	0.1
695.839	0.08
696.163	0.08
696.487	0.08
696.811	0.08
697.135	0.08
697.458	0.08
697.782	0.08
698.106	0.08
698.429	0.09
698.753	0.08
699.076	0.09
699.4	0.08
699.723	0.08
700.046	0.07
700.37	0.08
700.693	0.08
701.016	0.08
701.339	0.08
701.662	0.09
701.985	0.08
702.308	0.08
702.631	0.09
702.954	0.09
703.277	0.08
703.599	0.09
703.922	0.07
704.245	0.08
704.567	0.07
704.89	0.07
705.212	0.08
705.535	0.07
705.857	0.07
706.179	0.07
706.502	0.07
706.824	0.07
707.146	0.07
707.468	0.07
707.79	0.07
708.112	0.08
708.434	0.07
708.756	0.08
709.078	0.07
709.399	0.07
709.721	0.08
710.043	0.08
710.364	0.08
710.686	0.08
711.007	0.07
711.329	0.08
711.65	0.07
711.972	0.08
712.293	0.08
712.614	0.07
712.935	0.08
713.256	0.07
713.577	0.08
713.898	0.07
714.219	0.07
714.54	0.07
714.861	0.07
715.182	0.07
715.503	0.06
715.823	0.07
716.144	0.06
716.464	0.06
716.785	0.06
717.105	0.07
717.426	0.07
717.746	0.06
718.066	0.06
718.387	0.07
718.707	0.06
719.027	0.07
719.347	0.06
719.667	0.06
719.987	0.06
720.307	0.06
720.627	0.06
720.947	0.06
721.266	0.06
721.586	0.06
721.906	0.06
722.225	0.05
722.545	0.05
722.864	0.05
723.184	0.05
723.503	0.05
723.823	0.06
724.142	0.05
724.461	0.05
724.78	0.05
725.099	0.06
725.418	0.05
725.737	0.05
726.056	0.06
726.375	0.06
726.694	0.06
727.013	0.06
727.331	0.06
727.65	0.05
727.969	0.06
728.287	0.05
728.606	0.06
728.924	0.06
729.242	0.05
729.561	0.06
729.879	0.06
730.197	0.06
730.515	0.05
730.834	0.05
731.152	0.05
731.47	0.06
731.788	0.06
732.105	0.05
732.423	0.05
732.741	0.05
733.059	0.05
733.376	0.06
733.694	0.05
734.012	0.05
734.329	0.06
734.647	0.05
734.964	0.06
735.281	0.05
735.599	0.05
735.916	0.05
736.233	0.05
736.55	0.05
736.867	0.06
737.184	0.07
737.501	0.05
737.818	0.06
738.135	0.06
738.452	0.06
738.768	0.06
739.085	0.06
739.402	0.05
739.718	0.06
740.035	0.06
740.351	0.06
740.668	0.06
740.984	0.06
741.3	0.05
741.617	0.06
741.933	0.05
742.249	0.06
742.565	0.06
742.881	0.07
743.197	0.06
743.513	0.05
743.829	0.05
744.144	0.06
744.46	0.06
744.776	0.07
745.091	0.06
745.407	0.06
745.722	0.05
746.038	0.06
746.353	0.05
746.669	0.06
746.984	0.05
747.299	0.06
747.614	0.07
747.93	0.06
748.245	0.06
748.56	0.06
748.875	0.05
749.189	0.06
749.504	0.06
749.819	0.06
750.134	0.06
750.448	0.06
750.763	0.06
751.078	0.06
751.392	0.06
751.707	0.07
752.021	0.07
752.335	0.06
752.65	0.06
752.964	0.05
753.278	0.05
753.592	0.05
753.906	0.05
754.22	0.05
754.534	0.06
754.848	0.06
755.162	0.06
755.476	0.06
755.789	0.06
756.103	0.05
756.417	0.06
756.73	0.06
757.044	0.06
757.357	0.05
757.671	0.06
757.984	0.06
758.297	0.06
758.61	0.06
758.924	0.06
759.237	0.05
759.55	0.06
759.863	0.06
760.176	0.06
760.488	0.06
760.801	0.05
761.114	0.06
761.427	0.05
761.739	0.06
762.052	0.05
762.365	0.06
762.677	0.06
762.99	0.04
763.302	0.05
763.614	0.05
763.926	0.06
764.239	0.05
764.551	0.05
764.863	0.05
765.175	0.05
765.487	0.05
765.799	0.04
766.111	0.05
766.423	0.05
766.734	0.05
767.046	0.05
767.358	0.05
767.669	0.05
767.981	0.05
768.292	0.04
768.604	0.05
768.915	0.05
769.226	0.05
769.537	0.04
769.849	0.05
770.16	0.05
770.471	0.04
770.782	0.04
771.093	0.04
771.404	0.03
771.715	0.04
772.025	0.04
772.336	0.03
772.647	0.04
772.957	0.04
773.268	0.04
773.578	0.04
773.889	0.04
774.199	0.05
774.51	0.04
774.82	0.04
775.13	0.05
775.44	0.04
775.75	0.05
776.06	0.05
776.37	0.04
776.68	0.05
776.99	0.04
777.3	0.05
777.61	0.05
777.92	0.05
778.229	0.04
778.539	0.05
778.848	0.04
779.158	0.05
779.467	0.06
779.777	0.04
780.086	0.05
780.395	0.04
780.704	0.04
781.013	0.04
781.323	0.04
781.632	0.04
781.941	0.05
782.249	0.04
782.558	0.04
782.867	0.05
783.176	0.04
783.485	0.04
783.793	0.04
784.102	0.05
784.41	0.05
784.719	0.04
785.027	0.04
785.335	0.04
785.644	0.04
785.952	0.04
786.26	0.04
786.568	0.03
786.876	0.03
787.184	0.04
787.492	0.04
787.8	0.04
788.108	0.04
788.416	0.03
788.723	0.04
789.031	0.03
789.338	0.04
789.646	0.04
789.953	0.05
790.261	0.04
790.568	0.04
790.876	0.04
791.183	0.04
791.49	0.04
791.797	0.03
792.104	0.04
792.411	0.04
792.718	0.03
793.025	0.04
793.332	0.04
793.639	0.05
793.945	0.06
794.252	0.04
794.559	0.04
794.865	0.05
795.172	0.05
795.478	0.04
795.784	0.05
796.091	0.06
796.397	0.06
796.703	0.05
797.009	0.06
797.315	0.05
797.622	0.05
797.927	0.04
798.233	0.04
798.539	0.06
798.845	0.05
799.151	0.05
799.456	0.05
799.762	0.05
800.068	0.04
800.373	0.05
800.679	0.04
800.984	0.05
801.289	0.04
801.595	0.04
801.9	0.05
802.205	0.05
802.51	0.05
802.815	0.04
803.12	0.04
803.425	0.05
803.73	0.04
804.035	0.05
804.339	0.04
804.644	0.04
804.949	0.04
805.253	0.05
805.558	0.04
805.862	0.04
806.167	0.04
806.471	0.05
806.775	0.05
807.08	0.04
807.384	0.04
807.688	0.04
807.992	0.05
808.296	0.05
808.6	0.05
808.904	0.05
809.207	0.04
809.511	0.05
809.815	0.05
810.119	0.05
810.422	0.05
810.726	0.05
811.029	0.06
811.332	0.05
811.636	0.05
811.939	0.04
812.242	0.05
812.546	0.05
812.849	0.05
813.152	0.06
813.455	0.05
813.758	0.05
814.06	0.05
814.363	0.05
814.666	0.05
814.969	0.05
815.271	0.05
815.574	0.05
815.877	0.05
816.179	0.05
816.481	0.04
816.784	0.04
817.086	0.03
817.388	0.03
817.69	0.04
817.993	0.03
818.295	0.04
818.597	0.03
818.899	0.03
819.2	0.04
819.502	0.03
819.804	0.03
820.106	0.04
820.407	0.02
820.709	0.03
821.01	0.03
821.312	0.04
821.613	0.02
821.915	0.02
822.216	0.03
822.517	0.02
822.818	0.02
823.119	0.02
823.42	0.04
823.721	0.02
824.022	0.02
824.323	0.03
824.624	0.02
824.925	0.04
825.226	0.04
825.526	0.03
825.827	0.03
826.127	0.04
826.428	0.04
826.728	0.03
827.028	0.03
827.329	0.04
827.629	0.03
827.929	0.03
828.229	0.03
828.529	0.03
828.829	0.03
829.129	0.03
829.429	0.04
829.729	0.03
830.029	0.03
830.328	0.03
830.628	0.02
830.927	0.02
831.227	0.02
831.526	0.03
831.826	0.03
832.125	0.03
832.424	0.02
832.724	0.03
833.023	0.03
833.322	0.03
833.621	0.02
833.92	0.02
834.219	0.02
834.518	0.02
834.816	0.02
835.115	0.02
835.414	0.02
835.712	0.02
836.011	0.02
836.309	0.02
836.608	0.02
836.906	0.01
837.205	0
837.503	0.01
837.801	0.01
838.099	0
838.397	-0.01
838.695	0
838.993	0.01
839.291	-0
839.589	0
839.887	0
840.184	-0.01
840.482	-0.01
840.78	-0
841.077	-0.01
841.375	-0.01
841.672	-0.01
841.969	-0.02
842.267	-0.02
842.564	-0.02
842.861	-0.01
843.158	-0.03
843.455	-0.04
843.752	-0.03
844.049	-0.03
844.346	-0.04
844.643	-0.04
844.94	-0.04
845.236	-0.03
845.533	-0.04
845.83	-0.04
846.126	-0.04
846.423	-0.04
846.719	-0.06
847.015	-0.05
847.312	-0.06
847.608	-0.06
847.904	-0.07
848.2	-0.06
848.496	-0.06
848.792	-0.05
849.088	-0.04
849.384	-0.06
849.68	-0.07
849.975	-0.05
850.271	-0.07
850.567	-0.06
850.862	-0.08
851.158	-0.07
851.453	-0.06
851.748	-0.07
852.044	-0.06
852.339	-0.07
852.634	-0.08
852.929	-0.07
853.224	-0.07
853.519	-0.07
853.814	-0.07
854.109	-0.08
854.404	-0.07
854.699	-0.07
854.994	-0.07
855.288	-0.08
855.583	-0.07
855.877	-0.08
856.172	-0.08
856.466	-0.09
856.76	-0.08
857.055	-0.08
857.349	-0.09
857.643	-0.08
857.937	-0.1
858.231	-0.09
858.525	-0.1
858.819	-0.1
859.113	-0.11
859.407	-0.1
859.701	-0.11
859.994	-0.11
860.288	-0.09
860.581	-0.11
860.875	-0.12
861.168	-0.12
861.462	-0.11
861.755	-0.1
862.048	-0.12
862.341	-0.11
862.634	-0.13
862.928	-0.11
863.221	-0.11
863.513	-0.12
863.806	-0.12
864.099	-0.13
864.392	-0.13
864.685	-0.12
864.977	-0.12
865.27	-0.13
865.562	-0.12
865.855	-0.12
866.147	-0.14
866.44	-0.12
866.732	-0.13
867.024	-0.14
867.316	-0.14
867.608	-0.13
867.9	-0.14
868.192	-0.15
868.484	-0.14
868.776	-0.15
869.068	-0.14
869.359	-0.14
869.651	-0.14
869.943	-0.17
870.234	-0.16
870.526	-0.16
870.817	-0.16
871.108	-0.15
871.4	-0.15
871.691	-0.16
871.982	-0.17
872.273	-0.17
872.564	-0.17
872.855	-0.16
873.146	-0.17
873.437	-0.17
873.728	-0.18
874.019	-0.18
874.309	-0.17
874.6	-0.17
874.89	-0.17
875.181	-0.18
875.471	-0.17
875.762	-0.16
876.052	-0.16
876.342	-0.16
876.632	-0.17
876.922	-0.18
877.213	-0.17
877.503	-0.19
877.792	-0.17
878.082	-0.19
878.372	-0.17
878.662	-0.19
878.952	-0.19
879.241	-0.18
879.531	-0.16
879.82	-0.18
880.11	-0.17
880.399	-0.19
880.688	-0.18
880.978	-0.18
881.267	-0.18
