Data from 12-12-AQDScycling_Absorbance__741__00741.txt Node

Date: Tue Dec 12 14:01:59 EST 2023
User: kyuminlee
Spectrometer: FLMS00943
Trigger mode: 0
Integration Time (sec): 1.000000E-1
Scans to average: 1
Electric dark correction enabled: true
Nonlinearity correction enabled: false
Boxcar width: 0
XAxis mode: Wavelengths
Number of Pixels in Spectrum: 2048
>>>>>Begin Spectral Data<<<<<
179.651	1.43
180.037	1.43
180.424	1.43
180.81	-0.29
181.197	0.4
181.583	-0
181.97	-0.34
182.356	0.28
182.743	-1.09
183.129	1.88
183.515	0.22
183.901	-2.54
184.288	0.39
184.674	-0
185.06	-0.71
185.446	-0
185.832	-1.12
186.218	0.48
186.604	-0.32
186.99	-0
187.376	-0
187.762	-0
188.148	0.15
188.534	-0
188.92	0.23
189.305	0.12
189.691	0.19
190.077	0.21
190.463	0.13
190.848	0.16
191.234	0.05
191.619	0.05
192.005	0.07
192.391	0.28
192.776	0.18
193.161	0.2
193.547	0.02
193.932	0.05
194.318	0.08
194.703	0.24
195.088	0.23
195.473	0.19
195.859	0.21
196.244	0.14
196.629	0.12
197.014	0.06
197.399	0.12
197.784	0.14
198.169	0.19
198.554	0.44
198.939	0.17
199.324	0.15
199.709	0.05
200.094	0.12
200.478	0.19
200.863	0.23
201.248	0.37
201.633	0.16
202.017	0.07
202.402	0.23
202.787	0.2
203.171	0.2
203.556	0.25
203.94	0.24
204.325	0.28
204.709	0.17
205.093	0.1
205.478	0.15
205.862	0.21
206.246	0.17
206.631	0.13
207.015	0.24
207.399	0.19
207.783	0.18
208.167	0.21
208.551	0.25
208.935	0.22
209.319	0.27
209.703	0.08
210.087	0.49
210.471	0.09
210.855	0.08
211.239	0.22
211.623	0.37
212.007	0.13
212.39	0.14
212.774	0.15
213.158	0.24
213.541	0.29
213.925	0.25
214.309	0.28
214.692	0.32
215.076	0.37
215.459	0.37
215.842	0.17
216.226	0.29
216.609	0.39
216.993	0.21
217.376	0.51
217.759	0.4
218.142	0.5
218.525	0.53
218.909	0.49
219.292	0.53
219.675	0.44
220.058	0.63
220.441	0.52
220.824	0.43
221.207	0.51
221.59	0.46
221.973	0.53
222.355	0.62
222.738	0.72
223.121	0.63
223.504	0.56
223.886	0.64
224.269	0.77
224.652	0.67
225.034	0.74
225.417	0.7
225.799	0.75
226.182	0.97
226.564	1
226.947	0.77
227.329	0.96
227.711	0.94
228.094	1.02
228.476	1.01
228.858	0.84
229.24	0.9
229.623	0.94
230.005	0.81
230.387	0.88
230.769	0.79
231.151	1.01
231.533	0.96
231.915	0.99
232.297	1.14
232.679	0.96
233.061	1.07
233.442	1.02
233.824	1.13
234.206	1.14
234.588	1.14
234.969	1.04
235.351	1.07
235.733	1.18
236.114	1.27
236.496	1.02
236.877	1.17
237.259	1.11
237.64	1.12
238.022	1.06
238.403	1.1
238.784	1.07
239.165	1.08
239.547	1.14
239.928	1.16
240.309	1.02
240.69	1.19
241.071	1.11
241.452	1.26
241.834	1.14
242.215	1.2
242.595	1.01
242.976	1.16
243.357	1.1
243.738	1.12
244.119	1.13
244.5	1.04
244.881	1.15
245.261	1.2
245.642	1.12
246.023	1.2
246.403	1.25
246.784	1.22
247.164	1.17
247.545	1.2
247.925	1.38
248.306	1.28
248.686	1.41
249.067	1.37
249.447	1.45
249.827	1.5
250.207	1.46
250.588	1.29
250.968	1.42
251.348	1.33
251.728	1.46
252.108	1.32
252.488	1.4
252.868	1.32
253.248	1.36
253.628	1.41
254.008	1.34
254.388	1.29
254.768	1.27
255.147	1.4
255.527	1.45
255.907	1.35
256.287	1.5
256.666	1.64
257.046	1.54
257.425	1.75
257.805	1.31
258.184	1.38
258.564	1.43
258.943	1.36
259.323	1.52
259.702	1.43
260.081	1.46
260.461	1.41
260.84	1.53
261.219	1.7
261.598	1.52
261.977	1.5
262.356	1.46
262.736	1.63
263.115	1.61
263.494	1.5
263.873	1.5
264.251	1.57
264.63	1.49
265.009	1.45
265.388	1.56
265.767	1.4
266.145	1.38
266.524	1.56
266.903	1.48
267.281	1.44
267.66	1.45
268.039	1.35
268.417	1.36
268.796	1.48
269.174	1.4
269.552	1.32
269.931	1.46
270.309	1.52
270.687	1.58
271.066	1.7
271.444	1.36
271.822	1.51
272.2	1.65
272.578	1.41
272.956	1.43
273.334	1.52
273.712	1.47
274.09	1.69
274.468	1.49
274.846	1.54
275.224	1.43
275.602	1.47
275.98	1.51
276.357	1.46
276.735	1.66
277.113	1.53
277.49	1.33
277.868	1.29
278.246	1.53
278.623	1.38
279.001	1.42
279.378	1.51
279.756	1.33
280.133	1.54
280.51	1.44
280.888	1.56
281.265	1.42
281.642	1.46
282.019	1.45
282.396	1.52
282.773	1.47
283.151	1.52
283.528	1.58
283.905	1.44
284.282	1.43
284.659	1.45
285.035	1.38
285.412	1.35
285.789	1.5
286.166	1.45
286.543	1.53
286.919	1.44
287.296	1.41
287.673	1.71
288.049	1.57
288.426	1.6
288.802	1.57
289.179	1.49
289.555	1.6
289.932	1.46
290.308	1.39
290.684	1.4
291.061	1.42
291.437	1.49
291.813	1.45
292.189	1.29
292.565	1.28
292.942	1.34
293.318	1.41
293.694	1.46
294.07	1.33
294.446	1.4
294.822	1.62
295.197	1.45
295.573	1.77
295.949	1.95
296.325	1.55
296.701	1.57
297.076	1.62
297.452	1.52
297.828	1.46
298.203	1.76
298.579	1.47
298.954	1.44
299.33	1.48
299.705	1.52
300.081	1.65
300.456	1.49
300.831	1.49
301.206	1.5
301.582	1.6
301.957	1.46
302.332	1.68
302.707	1.51
303.082	1.49
303.457	1.55
303.832	1.65
304.207	1.45
304.582	1.52
304.957	1.53
305.332	1.5
305.707	1.56
306.082	1.46
306.456	1.57
306.831	1.53
307.206	1.5
307.58	1.6
307.955	1.42
308.33	1.49
308.704	1.59
309.079	1.41
309.453	1.73
309.828	1.61
310.202	1.5
310.576	1.46
310.951	1.59
311.325	1.48
311.699	1.48
312.073	1.49
312.447	1.43
312.821	1.54
313.196	1.58
313.57	1.41
313.944	1.48
314.317	1.46
314.691	1.52
315.065	1.62
315.439	1.61
315.813	1.54
316.187	1.52
316.56	1.59
316.934	1.56
317.308	1.58
317.681	1.6
318.055	1.37
318.428	1.61
318.802	1.6
319.175	1.57
319.549	1.51
319.922	1.41
320.295	1.48
320.669	1.7
321.042	1.57
321.415	1.83
321.788	1.49
322.162	1.58
322.535	1.59
322.908	1.55
323.281	1.51
323.654	1.68
324.027	1.42
324.4	1.95
324.773	1.56
325.145	1.49
325.518	1.43
325.891	1.45
326.264	1.54
326.636	1.47
327.009	1.49
327.382	1.61
327.754	1.52
328.127	1.48
328.499	1.84
328.872	1.61
329.244	1.52
329.616	1.48
329.989	1.53
330.361	1.53
330.733	1.61
331.106	1.57
331.478	1.59
331.85	1.44
332.222	1.44
332.594	1.57
332.966	1.54
333.338	1.86
333.71	1.6
334.082	1.65
334.454	1.42
334.826	1.63
335.197	1.56
335.569	1.58
335.941	1.42
336.312	1.51
336.684	1.47
337.056	1.5
337.427	1.55
337.799	1.64
338.17	1.57
338.542	1.58
338.913	1.51
339.284	1.64
339.656	1.48
340.027	1.59
340.398	1.59
340.769	1.55
341.141	1.65
341.512	1.62
341.883	1.69
342.254	1.52
342.625	1.58
342.996	1.53
343.367	1.52
343.738	1.67
344.108	1.53
344.479	1.63
344.85	1.41
345.221	1.59
345.591	1.37
345.962	1.53
346.333	1.48
346.703	1.33
347.074	1.46
347.444	1.37
347.815	1.52
348.185	1.52
348.556	1.5
348.926	1.47
349.296	1.35
349.666	1.33
350.037	1.43
350.407	1.27
350.777	1.39
351.147	1.47
351.517	1.39
351.887	1.47
352.257	1.39
352.627	1.32
352.997	1.36
353.367	1.36
353.737	1.46
354.106	1.4
354.476	1.31
354.846	1.49
355.216	1.44
355.585	1.46
355.955	1.44
356.324	1.43
356.694	1.4
357.063	1.33
357.433	1.33
357.802	1.31
358.171	1.37
358.541	1.32
358.91	1.37
359.279	1.37
359.648	1.27
360.017	1.28
360.387	1.3
360.756	1.23
361.125	1.3
361.494	1.32
361.863	1.27
362.231	1.24
362.6	1.18
362.969	1.22
363.338	1.18
363.707	1.26
364.075	1.18
364.444	1.21
364.813	1.17
365.181	1.26
365.55	1.2
365.918	1.2
366.287	1.17
366.655	1.17
367.024	1.25
367.392	1.15
367.76	1.2
368.128	1.17
368.497	1.18
368.865	1.15
369.233	1.13
369.601	1.17
369.969	1.17
370.337	1.17
370.705	1.12
371.073	1.19
371.441	1.16
371.809	1.14
372.177	1.15
372.544	1.13
372.912	1.21
373.28	1.16
373.647	1.11
374.015	1.19
374.383	1.25
374.75	1.21
375.118	1.17
375.485	1.18
375.853	1.2
376.22	1.12
376.587	1.17
376.955	1.2
377.322	1.16
377.689	1.1
378.056	1.24
378.423	1.1
378.79	1.16
379.157	1.18
379.524	1.18
379.891	1.2
380.258	1.16
380.625	1.18
380.992	1.18
381.359	1.24
381.726	1.23
382.092	1.18
382.459	1.17
382.826	1.2
383.192	1.21
383.559	1.25
383.925	1.23
384.292	1.17
384.658	1.22
385.025	1.23
385.391	1.26
385.757	1.27
386.123	1.27
386.49	1.27
386.856	1.32
387.222	1.32
387.588	1.27
387.954	1.39
388.32	1.38
388.686	1.38
389.052	1.37
389.418	1.31
389.784	1.33
390.15	1.26
390.515	1.19
390.881	1.34
391.247	1.34
391.613	1.3
391.978	1.29
392.344	1.41
392.709	1.3
393.075	1.3
393.44	1.25
393.806	1.41
394.171	1.22
394.536	1.23
394.902	1.33
395.267	1.23
395.632	1.32
395.997	1.24
396.362	1.23
396.727	1.34
397.092	1.37
397.457	1.31
397.822	1.24
398.187	1.29
398.552	1.23
398.917	1.26
399.282	1.18
399.646	1.2
400.011	1.24
400.376	1.2
400.74	1.2
401.105	1.23
401.47	1.25
401.834	1.17
402.199	1.21
402.563	1.2
402.927	1.14
403.292	1.17
403.656	1.15
404.02	1.17
404.384	1.2
404.749	1.16
405.113	1.16
405.477	1.13
405.841	1.12
406.205	1.12
406.569	1.09
406.933	1.09
407.296	1.1
407.66	1.08
408.024	1.07
408.388	1.11
408.752	1.05
409.115	1.11
409.479	1.05
409.842	0.99
410.206	1.01
410.569	1.03
410.933	1.01
411.296	0.97
411.66	1.03
412.023	0.99
412.386	1.03
412.749	0.97
413.113	0.99
413.476	0.95
413.839	0.94
414.202	0.96
414.565	0.96
414.928	0.98
415.291	0.92
415.654	0.95
416.017	0.99
416.38	0.92
416.742	0.91
417.105	0.89
417.468	0.93
417.83	0.92
418.193	0.96
418.556	0.92
418.918	0.88
419.281	0.9
419.643	0.91
420.005	0.93
420.368	0.94
420.73	0.92
421.092	0.93
421.455	0.92
421.817	0.88
422.179	0.87
422.541	0.89
422.903	0.91
423.265	0.93
423.627	0.87
423.989	0.91
424.351	0.84
424.713	0.87
425.075	0.86
425.436	0.85
425.798	0.87
426.16	0.88
426.521	0.84
426.883	0.85
427.245	0.85
427.606	0.81
427.967	0.83
428.329	0.82
428.69	0.85
429.052	0.82
429.413	0.83
429.774	0.83
430.135	0.82
430.497	0.83
430.858	0.81
431.219	0.83
431.58	0.81
431.941	0.81
432.302	0.83
432.663	0.78
433.024	0.82
433.384	0.8
433.745	0.8
434.106	0.81
434.467	0.81
434.827	0.81
435.188	0.8
435.548	0.83
435.909	0.79
436.269	0.81
436.63	0.75
436.99	0.78
437.351	0.77
437.711	0.78
438.071	0.79
438.431	0.74
438.792	0.76
439.152	0.73
439.512	0.72
439.872	0.77
440.232	0.73
440.592	0.74
440.952	0.74
441.312	0.73
441.671	0.72
442.031	0.71
442.391	0.72
442.751	0.73
443.11	0.7
443.47	0.69
443.83	0.71
444.189	0.71
444.549	0.71
444.908	0.69
445.267	0.68
445.627	0.69
445.986	0.67
446.345	0.64
446.705	0.67
447.064	0.65
447.423	0.65
447.782	0.68
448.141	0.66
448.5	0.64
448.859	0.63
449.218	0.64
449.577	0.64
449.936	0.65
450.295	0.64
450.653	0.63
451.012	0.63
451.371	0.62
451.729	0.62
452.088	0.63
452.447	0.63
452.805	0.61
453.163	0.61
453.522	0.62
453.88	0.6
454.239	0.59
454.597	0.58
454.955	0.58
455.313	0.57
455.671	0.58
456.029	0.56
456.388	0.56
456.746	0.56
457.104	0.55
457.461	0.54
457.819	0.56
458.177	0.53
458.535	0.53
458.893	0.53
459.25	0.52
459.608	0.53
459.966	0.5
460.323	0.5
460.681	0.49
461.038	0.49
461.396	0.5
461.753	0.48
462.111	0.47
462.468	0.47
462.825	0.47
463.182	0.46
463.54	0.45
463.897	0.46
464.254	0.45
464.611	0.45
464.968	0.44
465.325	0.45
465.682	0.43
466.039	0.42
466.395	0.41
466.752	0.42
467.109	0.41
467.466	0.41
467.822	0.41
468.179	0.4
468.535	0.39
468.892	0.4
469.248	0.39
469.605	0.38
469.961	0.39
470.318	0.39
470.674	0.38
471.03	0.37
471.386	0.37
471.743	0.36
472.099	0.35
472.455	0.35
472.811	0.35
473.167	0.35
473.523	0.33
473.879	0.34
474.235	0.34
474.59	0.32
474.946	0.33
475.302	0.32
475.657	0.32
476.013	0.31
476.369	0.3
476.724	0.31
477.08	0.31
477.435	0.29
477.791	0.3
478.146	0.3
478.501	0.28
478.857	0.29
479.212	0.28
479.567	0.28
479.922	0.27
480.277	0.27
480.632	0.26
480.987	0.27
481.342	0.26
481.697	0.26
482.052	0.25
482.407	0.25
482.762	0.24
483.116	0.24
483.471	0.24
483.826	0.23
484.18	0.23
484.535	0.24
484.89	0.23
485.244	0.23
485.598	0.23
485.953	0.22
486.307	0.22
486.661	0.23
487.016	0.22
487.37	0.21
487.724	0.22
488.078	0.22
488.432	0.21
488.786	0.2
489.14	0.21
489.494	0.2
489.848	0.2
490.202	0.2
490.556	0.2
490.91	0.19
491.263	0.19
491.617	0.19
491.971	0.19
492.324	0.19
492.678	0.19
493.031	0.19
493.385	0.19
493.738	0.18
494.091	0.19
494.445	0.18
494.798	0.18
495.151	0.18
495.504	0.18
495.857	0.18
496.21	0.18
496.564	0.17
496.916	0.18
497.269	0.17
497.622	0.18
497.975	0.17
498.328	0.17
498.681	0.17
499.033	0.16
499.386	0.16
499.739	0.16
500.091	0.16
500.444	0.16
500.796	0.16
501.149	0.15
501.501	0.16
501.854	0.16
502.206	0.16
502.558	0.16
502.91	0.16
503.263	0.15
503.615	0.16
503.967	0.15
504.319	0.16
504.671	0.16
505.023	0.16
505.375	0.15
505.726	0.16
506.078	0.15
506.43	0.15
506.782	0.15
507.133	0.15
507.485	0.16
507.837	0.17
508.188	0.16
508.54	0.15
508.891	0.16
509.243	0.16
509.594	0.16
509.945	0.14
510.296	0.14
510.648	0.15
510.999	0.15
511.35	0.15
511.701	0.15
512.052	0.16
512.403	0.15
512.754	0.15
513.105	0.15
513.456	0.15
513.807	0.14
514.157	0.15
514.508	0.15
514.859	0.14
515.209	0.14
515.56	0.15
515.91	0.15
516.261	0.15
516.611	0.14
516.962	0.15
517.312	0.15
517.662	0.14
518.013	0.15
518.363	0.15
518.713	0.16
519.063	0.15
519.413	0.15
519.763	0.15
520.113	0.16
520.463	0.15
520.813	0.16
521.163	0.16
521.512	0.15
521.862	0.15
522.212	0.15
522.562	0.16
522.911	0.15
523.261	0.15
523.61	0.16
523.96	0.16
524.309	0.16
524.658	0.15
525.008	0.15
525.357	0.15
525.706	0.16
526.056	0.15
526.405	0.15
526.754	0.15
527.103	0.15
527.452	0.15
527.801	0.15
528.15	0.15
528.499	0.16
528.847	0.16
529.196	0.16
529.545	0.16
529.893	0.16
530.242	0.16
530.591	0.16
530.939	0.17
531.288	0.16
531.636	0.17
531.985	0.16
532.333	0.16
532.681	0.17
533.029	0.16
533.378	0.16
533.726	0.16
534.074	0.16
534.422	0.16
534.77	0.16
535.118	0.16
535.466	0.16
535.814	0.15
536.162	0.17
536.509	0.17
536.857	0.16
537.205	0.16
537.552	0.17
537.9	0.16
538.248	0.16
538.595	0.17
538.943	0.16
539.29	0.16
539.637	0.16
539.985	0.16
540.332	0.16
540.679	0.16
541.026	0.16
541.373	0.17
541.721	0.16
542.068	0.16
542.415	0.16
542.762	0.16
543.108	0.15
543.455	0.16
543.802	0.16
544.149	0.15
544.496	0.16
544.842	0.15
545.189	0.15
545.535	0.15
545.882	0.15
546.228	0.15
546.575	0.14
546.921	0.14
547.267	0.15
547.614	0.15
547.96	0.15
548.306	0.15
548.652	0.15
548.998	0.16
549.344	0.15
549.69	0.15
550.036	0.15
550.382	0.15
550.728	0.15
551.074	0.16
551.42	0.16
551.765	0.16
552.111	0.17
552.457	0.16
552.802	0.15
553.148	0.16
553.493	0.16
553.839	0.17
554.184	0.17
554.529	0.15
554.875	0.17
555.22	0.17
555.565	0.16
555.91	0.16
556.255	0.17
556.6	0.17
556.945	0.16
557.29	0.16
557.635	0.17
557.98	0.16
558.325	0.17
558.67	0.16
559.014	0.17
559.359	0.16
559.704	0.17
560.048	0.15
560.393	0.16
560.737	0.15
561.082	0.16
561.426	0.16
561.77	0.15
562.115	0.14
562.459	0.16
562.803	0.16
563.147	0.16
563.491	0.16
563.835	0.17
564.179	0.16
564.523	0.16
564.867	0.15
565.211	0.16
565.555	0.16
565.899	0.17
566.242	0.17
566.586	0.15
566.93	0.17
567.273	0.17
567.617	0.17
567.96	0.16
568.304	0.17
568.647	0.16
568.99	0.16
569.334	0.17
569.677	0.16
570.02	0.17
570.363	0.17
570.706	0.17
571.049	0.17
571.392	0.17
571.735	0.16
572.078	0.17
572.421	0.18
572.764	0.17
573.106	0.17
573.449	0.16
573.792	0.16
574.134	0.17
574.477	0.17
574.819	0.16
575.162	0.17
575.504	0.15
575.847	0.17
576.189	0.16
576.531	0.16
576.873	0.16
577.215	0.17
577.558	0.16
577.9	0.16
578.242	0.17
578.584	0.16
578.926	0.16
579.267	0.16
579.609	0.17
579.951	0.16
580.293	0.16
580.634	0.16
580.976	0.17
581.318	0.17
581.659	0.16
582.001	0.17
582.342	0.17
582.683	0.16
583.025	0.15
583.366	0.15
583.707	0.16
584.049	0.16
584.39	0.16
584.731	0.15
585.072	0.16
585.413	0.17
585.754	0.17
586.095	0.16
586.435	0.16
586.776	0.16
587.117	0.15
587.458	0.17
587.798	0.16
588.139	0.16
588.48	0.16
588.82	0.16
589.161	0.16
589.501	0.16
589.841	0.16
590.182	0.16
590.522	0.16
590.862	0.16
591.202	0.16
591.542	0.16
591.882	0.15
592.222	0.16
592.562	0.16
592.902	0.16
593.242	0.15
593.582	0.17
593.922	0.16
594.261	0.15
594.601	0.16
594.941	0.15
595.28	0.16
595.62	0.16
595.959	0.15
596.299	0.16
596.638	0.15
596.977	0.16
597.317	0.17
597.656	0.16
597.995	0.16
598.334	0.17
598.673	0.17
599.012	0.17
599.351	0.17
599.69	0.17
600.029	0.17
600.368	0.17
600.707	0.17
601.046	0.16
601.384	0.17
601.723	0.16
602.061	0.16
602.4	0.17
602.738	0.17
603.077	0.16
603.415	0.16
603.754	0.17
604.092	0.16
604.43	0.16
604.768	0.16
605.107	0.16
605.445	0.16
605.783	0.16
606.121	0.16
606.459	0.16
606.796	0.16
607.134	0.15
607.472	0.16
607.81	0.16
608.148	0.15
608.485	0.17
608.823	0.16
609.16	0.15
609.498	0.16
609.835	0.15
610.173	0.16
610.51	0.16
610.847	0.16
611.185	0.16
611.522	0.16
611.859	0.16
612.196	0.16
612.533	0.16
612.87	0.16
613.207	0.17
613.544	0.16
613.881	0.17
614.217	0.18
614.554	0.16
614.891	0.17
615.228	0.17
615.564	0.17
615.901	0.17
616.237	0.17
616.574	0.16
616.91	0.17
617.246	0.16
617.583	0.16
617.919	0.17
618.255	0.17
618.591	0.17
618.927	0.16
619.263	0.17
619.599	0.17
619.935	0.17
620.271	0.17
620.607	0.17
620.943	0.16
621.279	0.16
621.614	0.16
621.95	0.17
622.286	0.16
622.621	0.16
622.957	0.17
623.292	0.16
623.627	0.16
623.963	0.16
624.298	0.16
624.633	0.16
624.968	0.16
625.304	0.16
625.639	0.16
625.974	0.16
626.309	0.15
626.644	0.15
626.979	0.16
627.313	0.16
627.648	0.16
627.983	0.16
628.318	0.15
628.652	0.15
628.987	0.15
629.321	0.16
629.656	0.15
629.99	0.15
630.325	0.15
630.659	0.15
630.993	0.14
631.327	0.15
631.662	0.14
631.996	0.14
632.33	0.14
632.664	0.14
632.998	0.14
633.332	0.13
633.666	0.14
633.999	0.14
634.333	0.14
634.667	0.14
635.001	0.13
635.334	0.14
635.668	0.14
636.001	0.14
636.335	0.14
636.668	0.14
637.001	0.14
637.335	0.14
637.668	0.13
638.001	0.13
638.334	0.13
638.668	0.14
639.001	0.13
639.334	0.13
639.667	0.13
639.999	0.14
640.332	0.14
640.665	0.14
640.998	0.14
641.331	0.14
641.663	0.13
641.996	0.14
642.328	0.14
642.661	0.14
642.993	0.14
643.326	0.15
643.658	0.14
643.99	0.14
644.323	0.14
644.655	0.14
644.987	0.14
645.319	0.15
645.651	0.15
645.983	0.14
646.315	0.14
646.647	0.14
646.979	0.15
647.31	0.15
647.642	0.14
647.974	0.14
648.305	0.14
648.637	0.14
648.968	0.14
649.3	0.13
649.631	0.14
649.963	0.14
650.294	0.14
650.625	0.14
650.957	0.14
651.288	0.14
651.619	0.14
651.95	0.14
652.281	0.14
652.612	0.14
652.943	0.14
653.274	0.14
653.604	0.14
653.935	0.13
654.266	0.14
654.596	0.14
654.927	0.14
655.258	0.14
655.588	0.14
655.918	0.14
656.249	0.12
656.579	0.13
656.909	0.14
657.24	0.13
657.57	0.14
657.9	0.14
658.23	0.14
658.56	0.14
658.89	0.14
659.22	0.13
659.55	0.14
659.88	0.13
660.209	0.13
660.539	0.15
660.869	0.13
661.198	0.14
661.528	0.14
661.857	0.13
662.187	0.13
662.516	0.13
662.846	0.12
663.175	0.13
663.504	0.13
663.833	0.12
664.163	0.13
664.492	0.13
664.821	0.13
665.15	0.13
665.479	0.13
665.807	0.12
666.136	0.13
666.465	0.13
666.794	0.14
667.122	0.13
667.451	0.13
667.78	0.14
668.108	0.14
668.437	0.13
668.765	0.13
669.093	0.14
669.422	0.13
669.75	0.13
670.078	0.13
670.406	0.14
670.734	0.13
671.062	0.13
671.39	0.13
671.718	0.13
672.046	0.13
672.374	0.12
672.702	0.13
673.029	0.12
673.357	0.13
673.685	0.13
674.012	0.12
674.34	0.13
674.667	0.13
674.995	0.12
675.322	0.13
675.649	0.12
675.977	0.12
676.304	0.13
676.631	0.12
676.958	0.13
677.285	0.12
677.612	0.11
677.939	0.12
678.266	0.12
678.593	0.12
678.92	0.12
679.246	0.12
679.573	0.12
679.9	0.11
680.226	0.12
680.553	0.11
680.879	0.12
681.206	0.12
681.532	0.12
681.858	0.12
682.184	0.11
682.511	0.12
682.837	0.12
683.163	0.13
683.489	0.12
683.815	0.12
684.141	0.12
684.467	0.12
684.793	0.12
685.118	0.12
685.444	0.12
685.77	0.12
686.095	0.11
686.421	0.11
686.746	0.12
687.072	0.12
687.397	0.11
687.723	0.12
688.048	0.12
688.373	0.11
688.698	0.12
689.023	0.11
689.349	0.11
689.674	0.11
689.999	0.11
690.323	0.1
690.648	0.1
690.973	0.1
691.298	0.11
691.623	0.1
691.947	0.12
692.272	0.11
692.596	0.11
692.921	0.12
693.245	0.11
693.57	0.12
693.894	0.11
694.218	0.12
694.543	0.12
694.867	0.11
695.191	0.11
695.515	0.12
695.839	0.11
696.163	0.11
696.487	0.11
696.811	0.12
697.135	0.12
697.458	0.12
697.782	0.12
698.106	0.11
698.429	0.12
698.753	0.11
699.076	0.11
699.4	0.1
699.723	0.11
700.046	0.1
700.37	0.11
700.693	0.11
701.016	0.1
701.339	0.12
701.662	0.12
701.985	0.11
702.308	0.11
702.631	0.11
702.954	0.11
703.277	0.11
703.599	0.11
703.922	0.1
704.245	0.1
704.567	0.1
704.89	0.1
705.212	0.1
705.535	0.09
705.857	0.09
706.179	0.1
706.502	0.1
706.824	0.09
707.146	0.09
707.468	0.1
707.79	0.1
708.112	0.1
708.434	0.09
708.756	0.1
709.078	0.1
709.399	0.1
709.721	0.1
710.043	0.1
710.364	0.1
710.686	0.11
711.007	0.1
711.329	0.11
711.65	0.1
711.972	0.1
712.293	0.11
712.614	0.1
712.935	0.11
713.256	0.1
713.577	0.11
713.898	0.1
714.219	0.1
714.54	0.1
714.861	0.09
715.182	0.1
715.503	0.09
715.823	0.1
716.144	0.09
716.464	0.08
716.785	0.09
717.105	0.1
717.426	0.09
717.746	0.09
718.066	0.09
718.387	0.09
718.707	0.08
719.027	0.1
719.347	0.08
719.667	0.09
719.987	0.08
720.307	0.08
720.627	0.08
720.947	0.08
721.266	0.09
721.586	0.08
721.906	0.09
722.225	0.07
722.545	0.08
722.864	0.08
723.184	0.09
723.503	0.09
723.823	0.09
724.142	0.09
724.461	0.09
724.78	0.09
725.099	0.09
725.418	0.09
725.737	0.08
726.056	0.09
726.375	0.09
726.694	0.09
727.013	0.09
727.331	0.08
727.65	0.08
727.969	0.09
728.287	0.09
728.606	0.09
728.924	0.08
729.242	0.08
729.561	0.09
729.879	0.08
730.197	0.09
730.515	0.08
730.834	0.08
731.152	0.08
731.47	0.08
731.788	0.08
732.105	0.08
732.423	0.09
732.741	0.08
733.059	0.09
733.376	0.1
733.694	0.08
734.012	0.08
734.329	0.09
734.647	0.09
734.964	0.09
735.281	0.08
735.599	0.09
735.916	0.09
736.233	0.08
736.55	0.09
736.867	0.09
737.184	0.1
737.501	0.08
737.818	0.09
738.135	0.09
738.452	0.08
738.768	0.08
739.085	0.08
739.402	0.07
739.718	0.08
740.035	0.08
740.351	0.08
740.668	0.08
740.984	0.08
741.3	0.08
741.617	0.08
741.933	0.08
742.249	0.09
742.565	0.08
742.881	0.09
743.197	0.08
743.513	0.08
743.829	0.08
744.144	0.08
744.46	0.08
744.776	0.08
745.091	0.08
745.407	0.07
745.722	0.07
746.038	0.07
746.353	0.07
746.669	0.08
746.984	0.07
747.299	0.07
747.614	0.08
747.93	0.08
748.245	0.07
748.56	0.07
748.875	0.07
749.189	0.07
749.504	0.07
749.819	0.08
750.134	0.06
750.448	0.07
750.763	0.07
751.078	0.05
751.392	0.07
751.707	0.07
752.021	0.08
752.335	0.08
752.65	0.07
752.964	0.07
753.278	0.08
753.592	0.07
753.906	0.07
754.22	0.07
754.534	0.07
754.848	0.07
755.162	0.07
755.476	0.07
755.789	0.08
756.103	0.07
756.417	0.08
756.73	0.08
757.044	0.07
757.357	0.07
757.671	0.08
757.984	0.07
758.297	0.08
758.61	0.08
758.924	0.08
759.237	0.07
759.55	0.07
759.863	0.07
760.176	0.07
760.488	0.08
760.801	0.07
761.114	0.07
761.427	0.06
761.739	0.07
762.052	0.07
762.365	0.06
762.677	0.06
762.99	0.06
763.302	0.06
763.614	0.07
763.926	0.07
764.239	0.06
764.551	0.06
764.863	0.06
765.175	0.07
765.487	0.07
765.799	0.06
766.111	0.06
766.423	0.07
766.734	0.07
767.046	0.06
767.358	0.07
767.669	0.07
767.981	0.06
768.292	0.07
768.604	0.07
768.915	0.06
769.226	0.06
769.537	0.06
769.849	0.07
770.16	0.06
770.471	0.06
770.782	0.06
771.093	0.06
771.404	0.05
771.715	0.06
772.025	0.06
772.336	0.06
772.647	0.05
772.957	0.07
773.268	0.07
773.578	0.06
773.889	0.07
774.199	0.07
774.51	0.06
774.82	0.06
775.13	0.07
775.44	0.07
775.75	0.07
776.06	0.06
776.37	0.06
776.68	0.07
776.99	0.08
777.3	0.06
777.61	0.07
777.92	0.06
778.229	0.06
778.539	0.07
778.848	0.07
779.158	0.07
779.467	0.07
779.777	0.06
780.086	0.07
780.395	0.05
780.704	0.06
781.013	0.05
781.323	0.06
781.632	0.06
781.941	0.06
782.249	0.06
782.558	0.06
782.867	0.06
783.176	0.05
783.485	0.05
783.793	0.06
784.102	0.06
784.41	0.06
784.719	0.06
785.027	0.06
785.335	0.05
785.644	0.07
785.952	0.05
786.26	0.06
786.568	0.05
786.876	0.05
787.184	0.06
787.492	0.06
787.8	0.06
788.108	0.06
788.416	0.06
788.723	0.06
789.031	0.05
789.338	0.06
789.646	0.06
789.953	0.06
790.261	0.07
790.568	0.06
790.876	0.06
791.183	0.06
791.49	0.05
791.797	0.06
792.104	0.05
792.411	0.06
792.718	0.05
793.025	0.06
793.332	0.06
793.639	0.07
793.945	0.07
794.252	0.06
794.559	0.07
794.865	0.06
795.172	0.06
795.478	0.06
795.784	0.06
796.091	0.06
796.397	0.07
796.703	0.07
797.009	0.07
797.315	0.07
797.622	0.07
797.927	0.07
798.233	0.06
798.539	0.07
798.845	0.07
799.151	0.06
799.456	0.07
799.762	0.07
800.068	0.06
800.373	0.08
800.679	0.06
800.984	0.07
801.289	0.07
801.595	0.07
801.9	0.06
802.205	0.07
802.51	0.06
802.815	0.07
803.12	0.06
803.425	0.06
803.73	0.06
804.035	0.06
804.339	0.07
804.644	0.07
804.949	0.07
805.253	0.07
805.558	0.06
805.862	0.06
806.167	0.06
806.471	0.06
806.775	0.06
807.08	0.06
807.384	0.06
807.688	0.06
807.992	0.06
808.296	0.06
808.6	0.06
808.904	0.07
809.207	0.06
809.511	0.07
809.815	0.07
810.119	0.06
810.422	0.07
810.726	0.08
811.029	0.07
811.332	0.07
811.636	0.07
811.939	0.06
812.242	0.07
812.546	0.07
812.849	0.07
813.152	0.07
813.455	0.07
813.758	0.07
814.06	0.07
814.363	0.07
814.666	0.07
814.969	0.07
815.271	0.07
815.574	0.06
815.877	0.07
816.179	0.07
816.481	0.06
816.784	0.06
817.086	0.06
817.388	0.05
817.69	0.05
817.993	0.05
818.295	0.06
818.597	0.05
818.899	0.05
819.2	0.05
819.502	0.05
819.804	0.05
820.106	0.05
820.407	0.05
820.709	0.05
821.01	0.05
821.312	0.06
821.613	0.04
821.915	0.05
822.216	0.05
822.517	0.04
822.818	0.04
823.119	0.05
823.42	0.05
823.721	0.04
824.022	0.04
824.323	0.05
824.624	0.05
824.925	0.05
825.226	0.05
825.526	0.04
825.827	0.04
826.127	0.05
826.428	0.05
826.728	0.04
827.028	0.04
827.329	0.04
827.629	0.03
827.929	0.04
828.229	0.04
828.529	0.04
828.829	0.04
829.129	0.04
829.429	0.04
829.729	0.04
830.029	0.04
830.328	0.04
830.628	0.03
830.927	0.04
831.227	0.03
831.526	0.03
831.826	0.04
832.125	0.04
832.424	0.03
832.724	0.04
833.023	0.04
833.322	0.04
833.621	0.03
833.92	0.02
834.219	0.03
834.518	0.03
834.816	0.02
835.115	0.03
835.414	0.03
835.712	0.02
836.011	0.01
836.309	0.02
836.608	0.02
836.906	0.02
837.205	0
837.503	0.01
837.801	0.01
838.099	-0
838.397	-0.01
838.695	0
838.993	0
839.291	-0
839.589	0
839.887	-0
840.184	-0
840.482	-0
840.78	-0
841.077	-0
841.375	-0.01
841.672	0
841.969	-0
842.267	-0.01
842.564	-0
842.861	0
843.158	-0.01
843.455	-0.02
843.752	-0.01
844.049	-0.01
844.346	-0.01
844.643	-0.02
844.94	-0.02
845.236	-0.01
845.533	-0.01
845.83	-0.02
846.126	-0.02
846.423	-0.02
846.719	-0.03
847.015	-0.02
847.312	-0.02
847.608	-0.03
847.904	-0.04
848.2	-0.04
848.496	-0.03
848.792	-0.02
849.088	-0.01
849.384	-0.04
849.68	-0.04
849.975	-0.04
850.271	-0.04
850.567	-0.04
850.862	-0.04
851.158	-0.04
851.453	-0.03
851.748	-0.06
852.044	-0.04
852.339	-0.04
852.634	-0.05
852.929	-0.04
853.224	-0.05
853.519	-0.05
853.814	-0.05
854.109	-0.05
854.404	-0.05
854.699	-0.06
854.994	-0.05
855.288	-0.05
855.583	-0.05
855.877	-0.06
856.172	-0.06
856.466	-0.06
856.76	-0.06
857.055	-0.06
857.349	-0.08
857.643	-0.07
857.937	-0.08
858.231	-0.08
858.525	-0.08
858.819	-0.09
859.113	-0.09
859.407	-0.09
859.701	-0.09
859.994	-0.1
860.288	-0.09
860.581	-0.1
860.875	-0.1
861.168	-0.1
861.462	-0.1
861.755	-0.1
862.048	-0.11
862.341	-0.1
862.634	-0.1
862.928	-0.1
863.221	-0.1
863.513	-0.11
863.806	-0.11
864.099	-0.11
864.392	-0.11
864.685	-0.1
864.977	-0.11
865.27	-0.11
865.562	-0.11
865.855	-0.11
866.147	-0.12
866.44	-0.1
866.732	-0.12
867.024	-0.12
867.316	-0.11
867.608	-0.12
867.9	-0.12
868.192	-0.12
868.484	-0.13
868.776	-0.14
869.068	-0.13
869.359	-0.12
869.651	-0.14
869.943	-0.14
870.234	-0.14
870.526	-0.14
870.817	-0.14
871.108	-0.12
871.4	-0.13
871.691	-0.14
871.982	-0.15
872.273	-0.15
872.564	-0.14
872.855	-0.14
873.146	-0.15
873.437	-0.15
873.728	-0.16
874.019	-0.16
874.309	-0.15
874.6	-0.15
874.89	-0.16
875.181	-0.16
875.471	-0.15
875.762	-0.15
876.052	-0.16
876.342	-0.15
876.632	-0.14
876.922	-0.17
877.213	-0.17
877.503	-0.18
877.792	-0.16
878.082	-0.17
878.372	-0.16
878.662	-0.18
878.952	-0.17
879.241	-0.17
879.531	-0.16
879.82	-0.17
880.11	-0.16
880.399	-0.16
880.688	-0.15
880.978	-0.15
881.267	-0.15
