Data from 12-12-AQDScycling_Absorbance__254__00254.txt Node

Date: Tue Dec 12 12:01:59 EST 2023
User: kyuminlee
Spectrometer: FLMS00943
Trigger mode: 0
Integration Time (sec): 1.000000E-1
Scans to average: 1
Electric dark correction enabled: true
Nonlinearity correction enabled: false
Boxcar width: 0
XAxis mode: Wavelengths
Number of Pixels in Spectrum: 2048
>>>>>Begin Spectral Data<<<<<
179.651	-0
180.037	-0
180.424	-0
180.81	-0
181.197	0.12
181.583	-0
181.97	-0.51
182.356	-0
182.743	-0
183.129	2.24
183.515	0.7
183.901	-2.15
184.288	0.41
184.674	0.49
185.06	-0.76
185.446	-0
185.832	-1.04
186.218	0.16
186.604	0.04
186.99	-0
187.376	-0
187.762	-0
188.148	0.58
188.534	-0.24
188.92	0.18
189.305	0.19
189.691	0.28
190.077	0.27
190.463	0.18
190.848	0.16
191.234	0.12
191.619	0.06
192.005	0.19
192.391	0.17
192.776	0.16
193.161	0.11
193.547	0.08
193.932	0.06
194.318	0.06
194.703	0.42
195.088	0.19
195.473	0.22
195.859	0.18
196.244	0.25
196.629	0.2
197.014	0.14
197.399	0.12
197.784	0.07
198.169	0.45
198.554	0.21
198.939	0.13
199.324	0.05
199.709	0.07
200.094	0.03
200.478	0.05
200.863	0.2
201.248	0.11
201.633	0.07
202.017	0.09
202.402	0.19
202.787	0.02
203.171	0.21
203.556	0.31
203.94	0.12
204.325	0.19
204.709	0.28
205.093	0.07
205.478	0.03
205.862	0.01
206.246	0.2
206.631	0.13
207.015	0.11
207.399	0.11
207.783	0.39
208.167	0.31
208.551	0.38
208.935	0.15
209.319	0.2
209.703	0.13
210.087	0.22
210.471	0.02
210.855	0.11
211.239	0.22
211.623	0.31
212.007	0.13
212.39	0.38
212.774	0.17
213.158	0.11
213.541	0.27
213.925	0.26
214.309	0.41
214.692	0.43
215.076	0.14
215.459	0.16
215.842	0.14
216.226	0.21
216.609	0.21
216.993	0.14
217.376	0.41
217.759	0.14
218.142	0.29
218.525	0.6
218.909	0.32
219.292	0.35
219.675	0.48
220.058	0.48
220.441	0.47
220.824	0.42
221.207	0.65
221.59	0.5
221.973	0.55
222.355	0.48
222.738	0.76
223.121	0.66
223.504	0.46
223.886	0.68
224.269	0.72
224.652	0.67
225.034	0.72
225.417	0.72
225.799	0.7
226.182	0.89
226.564	0.79
226.947	0.76
227.329	0.88
227.711	0.94
228.094	0.85
228.476	1.03
228.858	0.84
229.24	0.82
229.623	1.03
230.005	0.97
230.387	0.83
230.769	0.82
231.151	0.89
231.533	0.99
231.915	0.85
232.297	1.02
232.679	1.03
233.061	0.94
233.442	1.03
233.824	0.89
234.206	1.23
234.588	0.99
234.969	1.07
235.351	1.14
235.733	1.03
236.114	1.14
236.496	1.11
236.877	1.14
237.259	1.17
237.64	1.01
238.022	1.09
238.403	1.03
238.784	1.12
239.165	0.94
239.547	1.06
239.928	1.06
240.309	1.14
240.69	1.12
241.071	1.05
241.452	1.16
241.834	1.02
242.215	1.11
242.595	1.21
242.976	1.17
243.357	1.17
243.738	1.06
244.119	1.5
244.5	1.11
244.881	1.2
245.261	1.19
245.642	1.18
246.023	1.22
246.403	1.2
246.784	1.27
247.164	1.24
247.545	1.31
247.925	1.3
248.306	1.22
248.686	1.36
249.067	1.33
249.447	1.28
249.827	1.55
250.207	1.43
250.588	1.26
250.968	1.48
251.348	1.31
251.728	1.47
252.108	1.31
252.488	1.38
252.868	1.25
253.248	1.36
253.628	1.53
254.008	1.57
254.388	1.29
254.768	1.28
255.147	1.38
255.527	1.45
255.907	1.39
256.287	1.33
256.666	1.52
257.046	1.45
257.425	1.43
257.805	1.36
258.184	1.27
258.564	1.36
258.943	1.25
259.323	1.56
259.702	1.52
260.081	1.39
260.461	1.43
260.84	1.39
261.219	1.62
261.598	1.54
261.977	1.45
262.356	1.5
262.736	1.57
263.115	1.64
263.494	1.51
263.873	1.49
264.251	1.58
264.63	1.61
265.009	1.33
265.388	1.42
265.767	1.34
266.145	1.4
266.524	1.46
266.903	1.36
267.281	1.32
267.66	1.54
268.039	1.51
268.417	1.39
268.796	1.43
269.174	1.36
269.552	1.36
269.931	1.5
270.309	1.49
270.687	1.63
271.066	1.64
271.444	1.39
271.822	1.62
272.2	1.39
272.578	1.53
272.956	1.51
273.334	1.37
273.712	1.56
274.09	1.46
274.468	1.32
274.846	1.27
275.224	1.3
275.602	1.37
275.98	1.47
276.357	1.36
276.735	1.37
277.113	1.38
277.49	1.31
277.868	1.23
278.246	1.52
278.623	1.37
279.001	1.42
279.378	1.39
279.756	1.39
280.133	1.5
280.51	1.42
280.888	1.46
281.265	1.37
281.642	1.44
282.019	1.57
282.396	1.53
282.773	1.43
283.151	1.4
283.528	1.44
283.905	1.37
284.282	1.45
284.659	1.6
285.035	1.43
285.412	1.49
285.789	1.57
286.166	1.46
286.543	1.46
286.919	1.65
287.296	1.46
287.673	1.51
288.049	1.44
288.426	1.51
288.802	1.58
289.179	1.43
289.555	1.44
289.932	1.41
290.308	1.38
290.684	1.49
291.061	1.44
291.437	1.48
291.813	1.35
292.189	1.34
292.565	1.3
292.942	1.37
293.318	1.32
293.694	1.37
294.07	1.45
294.446	1.35
294.822	1.48
295.197	1.34
295.573	1.54
295.949	1.51
296.325	1.43
296.701	1.64
297.076	1.53
297.452	1.57
297.828	1.4
298.203	1.52
298.579	1.48
298.954	1.42
299.33	1.43
299.705	1.61
300.081	1.44
300.456	1.53
300.831	1.57
301.206	1.44
301.582	1.54
301.957	1.47
302.332	1.55
302.707	1.48
303.082	1.47
303.457	1.59
303.832	1.53
304.207	1.41
304.582	1.5
304.957	1.44
305.332	1.53
305.707	1.51
306.082	1.46
306.456	1.57
306.831	1.49
307.206	1.62
307.58	1.52
307.955	1.51
308.33	1.45
308.704	1.44
309.079	1.48
309.453	1.69
309.828	1.57
310.202	1.39
310.576	1.39
310.951	1.57
311.325	1.53
311.699	1.56
312.073	1.44
312.447	1.47
312.821	1.46
313.196	1.53
313.57	1.41
313.944	1.42
314.317	1.39
314.691	1.54
315.065	1.56
315.439	1.58
315.813	1.37
316.187	1.45
316.56	1.72
316.934	1.6
317.308	1.43
317.681	1.59
318.055	1.51
318.428	1.51
318.802	1.57
319.175	1.53
319.549	1.61
319.922	1.4
320.295	1.45
320.669	1.64
321.042	1.52
321.415	1.61
321.788	1.54
322.162	1.41
322.535	1.55
322.908	1.49
323.281	1.48
323.654	1.56
324.027	1.43
324.4	1.59
324.773	1.46
325.145	1.47
325.518	1.33
325.891	1.46
326.264	1.52
326.636	1.55
327.009	1.42
327.382	1.37
327.754	1.51
328.127	1.43
328.499	1.55
328.872	1.5
329.244	1.61
329.616	1.51
329.989	1.56
330.361	1.52
330.733	1.45
331.106	1.49
331.478	1.59
331.85	1.42
332.222	1.47
332.594	1.5
332.966	1.53
333.338	1.53
333.71	1.59
334.082	1.75
334.454	1.51
334.826	1.56
335.197	1.75
335.569	1.56
335.941	1.41
336.312	1.56
336.684	1.41
337.056	1.44
337.427	1.71
337.799	1.54
338.17	1.65
338.542	1.5
338.913	1.65
339.284	1.56
339.656	1.53
340.027	1.59
340.398	1.53
340.769	1.58
341.141	1.71
341.512	1.6
341.883	1.55
342.254	1.51
342.625	1.56
342.996	1.37
343.367	1.54
343.738	1.45
344.108	1.42
344.479	1.6
344.85	1.27
345.221	1.62
345.591	1.39
345.962	1.5
346.333	1.49
346.703	1.41
347.074	1.39
347.444	1.43
347.815	1.44
348.185	1.31
348.556	1.31
348.926	1.29
349.296	1.46
349.666	1.36
350.037	1.21
350.407	1.31
350.777	1.34
351.147	1.44
351.517	1.25
351.887	1.35
352.257	1.44
352.627	1.34
352.997	1.4
353.367	1.51
353.737	1.43
354.106	1.37
354.476	1.3
354.846	1.45
355.216	1.34
355.585	1.36
355.955	1.33
356.324	1.36
356.694	1.29
357.063	1.28
357.433	1.27
357.802	1.21
358.171	1.34
358.541	1.26
358.91	1.32
359.279	1.29
359.648	1.22
360.017	1.23
360.387	1.17
360.756	1.15
361.125	1.2
361.494	1.25
361.863	1.23
362.231	1.12
362.6	1.16
362.969	1.15
363.338	1.11
363.707	1.13
364.075	1.1
364.444	1.03
364.813	1.09
365.181	1.08
365.55	1.09
365.918	1.1
366.287	1.07
366.655	1.1
367.024	1.07
367.392	1.1
367.76	1.07
368.128	1.03
368.497	1
368.865	1.02
369.233	1.01
369.601	0.99
369.969	1
370.337	1.02
370.705	0.99
371.073	0.99
371.441	0.92
371.809	0.95
372.177	0.99
372.544	1.03
372.912	0.97
373.28	1
373.647	1.03
374.015	1.02
374.383	1.03
374.75	1.04
375.118	0.98
375.485	0.99
375.853	0.98
376.22	0.98
376.587	0.94
376.955	0.97
377.322	0.94
377.689	0.95
378.056	0.95
378.423	0.97
378.79	1.02
379.157	0.96
379.524	1
379.891	0.98
380.258	1
380.625	0.95
380.992	0.99
381.359	1.01
381.726	1.04
382.092	0.97
382.459	1.01
382.826	0.99
383.192	1.02
383.559	1
383.925	1.04
384.292	1.02
384.658	1.1
385.025	1.01
385.391	1.06
385.757	1.04
386.123	1.07
386.49	1.08
386.856	1.06
387.222	1.11
387.588	1.11
387.954	1.09
388.32	1.1
388.686	1.1
389.052	1.09
389.418	1.15
389.784	1.09
390.15	1.09
390.515	1.04
390.881	1.12
391.247	1.02
391.613	1.17
391.978	1.08
392.344	1.15
392.709	1.14
393.075	1.08
393.44	1.13
393.806	1.11
394.171	1.07
394.536	1.12
394.902	1.11
395.267	1.06
395.632	1.04
395.997	1.09
396.362	1.12
396.727	1
397.092	1.05
397.457	1.06
397.822	1.07
398.187	1.07
398.552	1.07
398.917	1.05
399.282	1.03
399.646	1.01
400.011	1.05
400.376	0.99
400.74	0.99
401.105	0.97
401.47	1
401.834	0.99
402.199	0.94
402.563	0.99
402.927	0.94
403.292	0.97
403.656	0.96
404.02	0.99
404.384	0.98
404.749	0.91
405.113	0.95
405.477	0.89
405.841	0.88
406.205	0.89
406.569	0.87
406.933	0.85
407.296	0.88
407.66	0.89
408.024	0.86
408.388	0.86
408.752	0.86
409.115	0.91
409.479	0.86
409.842	0.81
410.206	0.81
410.569	0.84
410.933	0.84
411.296	0.79
411.66	0.82
412.023	0.77
412.386	0.84
412.749	0.79
413.113	0.79
413.476	0.77
413.839	0.79
414.202	0.78
414.565	0.77
414.928	0.76
415.291	0.76
415.654	0.77
416.017	0.75
416.38	0.75
416.742	0.72
417.105	0.72
417.468	0.75
417.83	0.76
418.193	0.75
418.556	0.72
418.918	0.74
419.281	0.72
419.643	0.73
420.005	0.72
420.368	0.7
420.73	0.73
421.092	0.75
421.455	0.73
421.817	0.68
422.179	0.69
422.541	0.7
422.903	0.7
423.265	0.71
423.627	0.71
423.989	0.7
424.351	0.66
424.713	0.66
425.075	0.68
425.436	0.67
425.798	0.68
426.16	0.69
426.521	0.69
426.883	0.69
427.245	0.68
427.606	0.64
427.967	0.66
428.329	0.68
428.69	0.66
429.052	0.65
429.413	0.66
429.774	0.66
430.135	0.66
430.497	0.66
430.858	0.64
431.219	0.64
431.58	0.65
431.941	0.64
432.302	0.65
432.663	0.64
433.024	0.68
433.384	0.65
433.745	0.64
434.106	0.63
434.467	0.63
434.827	0.64
435.188	0.65
435.548	0.63
435.909	0.62
436.269	0.64
436.63	0.6
436.99	0.62
437.351	0.6
437.711	0.6
438.071	0.6
438.431	0.6
438.792	0.6
439.152	0.59
439.512	0.61
439.872	0.6
440.232	0.6
440.592	0.6
440.952	0.61
441.312	0.57
441.671	0.58
442.031	0.56
442.391	0.57
442.751	0.59
443.11	0.58
443.47	0.56
443.83	0.56
444.189	0.55
444.549	0.56
444.908	0.56
445.267	0.54
445.627	0.55
445.986	0.53
446.345	0.53
446.705	0.55
447.064	0.55
447.423	0.51
447.782	0.51
448.141	0.52
448.5	0.51
448.859	0.52
449.218	0.52
449.577	0.53
449.936	0.51
450.295	0.52
450.653	0.5
451.012	0.51
451.371	0.5
451.729	0.5
452.088	0.51
452.447	0.5
452.805	0.5
453.163	0.5
453.522	0.48
453.88	0.49
454.239	0.49
454.597	0.47
454.955	0.48
455.313	0.46
455.671	0.46
456.029	0.46
456.388	0.45
456.746	0.46
457.104	0.45
457.461	0.44
457.819	0.45
458.177	0.43
458.535	0.43
458.893	0.42
459.25	0.42
459.608	0.41
459.966	0.41
460.323	0.4
460.681	0.39
461.038	0.39
461.396	0.39
461.753	0.39
462.111	0.38
462.468	0.37
462.825	0.38
463.182	0.37
463.54	0.36
463.897	0.37
464.254	0.36
464.611	0.36
464.968	0.36
465.325	0.36
465.682	0.35
466.039	0.35
466.395	0.34
466.752	0.34
467.109	0.33
467.466	0.33
467.822	0.33
468.179	0.32
468.535	0.32
468.892	0.32
469.248	0.31
469.605	0.31
469.961	0.31
470.318	0.32
470.674	0.31
471.03	0.3
471.386	0.31
471.743	0.3
472.099	0.29
472.455	0.28
472.811	0.28
473.167	0.29
473.523	0.27
473.879	0.27
474.235	0.27
474.59	0.26
474.946	0.26
475.302	0.27
475.657	0.26
476.013	0.26
476.369	0.25
476.724	0.25
477.08	0.25
477.435	0.24
477.791	0.24
478.146	0.24
478.501	0.23
478.857	0.24
479.212	0.23
479.567	0.23
479.922	0.22
480.277	0.23
480.632	0.21
480.987	0.22
481.342	0.21
481.697	0.21
482.052	0.21
482.407	0.21
482.762	0.21
483.116	0.2
483.471	0.2
483.826	0.19
484.18	0.19
484.535	0.19
484.89	0.19
485.244	0.19
485.598	0.19
485.953	0.18
486.307	0.19
486.661	0.18
487.016	0.18
487.37	0.19
487.724	0.18
488.078	0.18
488.432	0.17
488.786	0.18
489.14	0.17
489.494	0.17
489.848	0.17
490.202	0.17
490.556	0.17
490.91	0.17
491.263	0.16
491.617	0.16
491.971	0.16
492.324	0.15
492.678	0.17
493.031	0.16
493.385	0.16
493.738	0.16
494.091	0.16
494.445	0.15
494.798	0.15
495.151	0.15
495.504	0.15
495.857	0.15
496.21	0.16
496.564	0.14
496.916	0.16
497.269	0.14
497.622	0.15
497.975	0.15
498.328	0.15
498.681	0.15
499.033	0.14
499.386	0.15
499.739	0.15
500.091	0.14
500.444	0.14
500.796	0.14
501.149	0.13
501.501	0.14
501.854	0.14
502.206	0.14
502.558	0.14
502.91	0.14
503.263	0.13
503.615	0.13
503.967	0.13
504.319	0.13
504.671	0.13
505.023	0.13
505.375	0.12
505.726	0.13
506.078	0.12
506.43	0.13
506.782	0.13
507.133	0.13
507.485	0.13
507.837	0.14
508.188	0.13
508.54	0.13
508.891	0.13
509.243	0.13
509.594	0.13
509.945	0.12
510.296	0.13
510.648	0.13
510.999	0.12
511.35	0.12
511.701	0.13
512.052	0.13
512.403	0.13
512.754	0.13
513.105	0.11
513.456	0.12
513.807	0.12
514.157	0.13
514.508	0.13
514.859	0.11
515.209	0.12
515.56	0.12
515.91	0.12
516.261	0.12
516.611	0.11
516.962	0.12
517.312	0.11
517.662	0.11
518.013	0.11
518.363	0.12
518.713	0.12
519.063	0.12
519.413	0.12
519.763	0.11
520.113	0.12
520.463	0.12
520.813	0.12
521.163	0.12
521.512	0.12
521.862	0.12
522.212	0.12
522.562	0.12
522.911	0.12
523.261	0.12
523.61	0.12
523.96	0.12
524.309	0.13
524.658	0.12
525.008	0.12
525.357	0.12
525.706	0.12
526.056	0.12
526.405	0.12
526.754	0.12
527.103	0.11
527.452	0.12
527.801	0.12
528.15	0.12
528.499	0.12
528.847	0.12
529.196	0.13
529.545	0.12
529.893	0.13
530.242	0.13
530.591	0.13
530.939	0.13
531.288	0.13
531.636	0.14
531.985	0.13
532.333	0.13
532.681	0.13
533.029	0.12
533.378	0.13
533.726	0.13
534.074	0.14
534.422	0.13
534.77	0.13
535.118	0.13
535.466	0.13
535.814	0.13
536.162	0.13
536.509	0.14
536.857	0.13
537.205	0.13
537.552	0.14
537.9	0.13
538.248	0.12
538.595	0.13
538.943	0.13
539.29	0.13
539.637	0.13
539.985	0.13
540.332	0.12
540.679	0.12
541.026	0.12
541.373	0.13
541.721	0.12
542.068	0.12
542.415	0.12
542.762	0.12
543.108	0.11
543.455	0.12
543.802	0.12
544.149	0.11
544.496	0.11
544.842	0.12
545.189	0.11
545.535	0.11
545.882	0.12
546.228	0.11
546.575	0.11
546.921	0.11
547.267	0.11
547.614	0.11
547.96	0.12
548.306	0.11
548.652	0.11
548.998	0.12
549.344	0.12
549.69	0.12
550.036	0.12
550.382	0.12
550.728	0.12
551.074	0.13
551.42	0.12
551.765	0.12
552.111	0.13
552.457	0.14
552.802	0.12
553.148	0.12
553.493	0.13
553.839	0.13
554.184	0.13
554.529	0.12
554.875	0.13
555.22	0.13
555.565	0.13
555.91	0.12
556.255	0.14
556.6	0.13
556.945	0.13
557.29	0.12
557.635	0.13
557.98	0.12
558.325	0.12
558.67	0.13
559.014	0.13
559.359	0.13
559.704	0.13
560.048	0.12
560.393	0.12
560.737	0.11
561.082	0.12
561.426	0.11
561.77	0.12
562.115	0.11
562.459	0.13
562.803	0.12
563.147	0.12
563.491	0.12
563.835	0.13
564.179	0.12
564.523	0.12
564.867	0.12
565.211	0.13
565.555	0.12
565.899	0.13
566.242	0.13
566.586	0.12
566.93	0.13
567.273	0.13
567.617	0.13
567.96	0.13
568.304	0.13
568.647	0.13
568.99	0.13
569.334	0.13
569.677	0.12
570.02	0.13
570.363	0.13
570.706	0.12
571.049	0.13
571.392	0.13
571.735	0.13
572.078	0.12
572.421	0.13
572.764	0.13
573.106	0.12
573.449	0.12
573.792	0.13
574.134	0.12
574.477	0.13
574.819	0.13
575.162	0.13
575.504	0.12
575.847	0.12
576.189	0.13
576.531	0.12
576.873	0.12
577.215	0.13
577.558	0.13
577.9	0.12
578.242	0.12
578.584	0.13
578.926	0.12
579.267	0.13
579.609	0.12
579.951	0.12
580.293	0.12
580.634	0.12
580.976	0.13
581.318	0.12
581.659	0.12
582.001	0.12
582.342	0.12
582.683	0.13
583.025	0.12
583.366	0.12
583.707	0.13
584.049	0.12
584.39	0.12
584.731	0.13
585.072	0.12
585.413	0.13
585.754	0.12
586.095	0.12
586.435	0.12
586.776	0.13
587.117	0.13
587.458	0.13
587.798	0.12
588.139	0.12
588.48	0.12
588.82	0.12
589.161	0.12
589.501	0.12
589.841	0.12
590.182	0.12
590.522	0.12
590.862	0.12
591.202	0.12
591.542	0.12
591.882	0.12
592.222	0.12
592.562	0.12
592.902	0.12
593.242	0.12
593.582	0.13
593.922	0.12
594.261	0.12
594.601	0.12
594.941	0.13
595.28	0.12
595.62	0.12
595.959	0.12
596.299	0.12
596.638	0.12
596.977	0.12
597.317	0.13
597.656	0.12
597.995	0.12
598.334	0.13
598.673	0.12
599.012	0.12
599.351	0.12
599.69	0.11
600.029	0.12
600.368	0.12
600.707	0.12
601.046	0.12
601.384	0.12
601.723	0.12
602.061	0.12
602.4	0.13
602.738	0.13
603.077	0.12
603.415	0.11
603.754	0.13
604.092	0.12
604.43	0.12
604.768	0.12
605.107	0.13
605.445	0.12
605.783	0.12
606.121	0.11
606.459	0.12
606.796	0.13
607.134	0.12
607.472	0.11
607.81	0.12
608.148	0.11
608.485	0.12
608.823	0.12
609.16	0.11
609.498	0.12
609.835	0.12
610.173	0.12
610.51	0.12
610.847	0.12
611.185	0.12
611.522	0.12
611.859	0.13
612.196	0.13
612.533	0.13
612.87	0.13
613.207	0.13
613.544	0.13
613.881	0.14
614.217	0.13
614.554	0.13
614.891	0.13
615.228	0.13
615.564	0.13
615.901	0.13
616.237	0.13
616.574	0.13
616.91	0.13
617.246	0.13
617.583	0.14
617.919	0.13
618.255	0.13
618.591	0.13
618.927	0.13
619.263	0.14
619.599	0.14
619.935	0.13
620.271	0.13
620.607	0.13
620.943	0.13
621.279	0.13
621.614	0.13
621.95	0.13
622.286	0.12
622.621	0.12
622.957	0.12
623.292	0.12
623.627	0.11
623.963	0.12
624.298	0.12
624.633	0.12
624.968	0.12
625.304	0.12
625.639	0.12
625.974	0.12
626.309	0.12
626.644	0.12
626.979	0.12
627.313	0.12
627.648	0.11
627.983	0.12
628.318	0.11
628.652	0.11
628.987	0.11
629.321	0.12
629.656	0.11
629.99	0.11
630.325	0.11
630.659	0.12
630.993	0.11
631.327	0.11
631.662	0.11
631.996	0.11
632.33	0.11
632.664	0.11
632.998	0.11
633.332	0.11
633.666	0.11
633.999	0.11
634.333	0.1
634.667	0.11
635.001	0.11
635.334	0.11
635.668	0.11
636.001	0.11
636.335	0.11
636.668	0.11
637.001	0.11
637.335	0.11
637.668	0.11
638.001	0.1
638.334	0.11
638.668	0.1
639.001	0.11
639.334	0.1
639.667	0.1
639.999	0.1
640.332	0.1
640.665	0.09
640.998	0.1
641.331	0.1
641.663	0.1
641.996	0.1
642.328	0.1
642.661	0.11
642.993	0.1
643.326	0.1
643.658	0.09
643.99	0.1
644.323	0.1
644.655	0.1
644.987	0.1
645.319	0.11
645.651	0.1
645.983	0.1
646.315	0.1
646.647	0.1
646.979	0.11
647.31	0.11
647.642	0.11
647.974	0.1
648.305	0.12
648.637	0.1
648.968	0.11
649.3	0.11
649.631	0.11
649.963	0.11
650.294	0.11
650.625	0.11
650.957	0.11
651.288	0.11
651.619	0.11
651.95	0.11
652.281	0.12
652.612	0.11
652.943	0.11
653.274	0.11
653.604	0.11
653.935	0.11
654.266	0.12
654.596	0.11
654.927	0.1
655.258	0.11
655.588	0.11
655.918	0.12
656.249	0.1
656.579	0.1
656.909	0.11
657.24	0.1
657.57	0.11
657.9	0.11
658.23	0.11
658.56	0.11
658.89	0.12
659.22	0.11
659.55	0.11
659.88	0.11
660.209	0.11
660.539	0.12
660.869	0.12
661.198	0.12
661.528	0.11
661.857	0.11
662.187	0.11
662.516	0.11
662.846	0.11
663.175	0.11
663.504	0.11
663.833	0.11
664.163	0.11
664.492	0.11
664.821	0.1
665.15	0.11
665.479	0.11
665.807	0.1
666.136	0.11
666.465	0.1
666.794	0.1
667.122	0.1
667.451	0.09
667.78	0.09
668.108	0.1
668.437	0.1
668.765	0.1
669.093	0.11
669.422	0.1
669.75	0.1
670.078	0.1
670.406	0.11
670.734	0.1
671.062	0.1
671.39	0.1
671.718	0.11
672.046	0.11
672.374	0.1
672.702	0.11
673.029	0.1
673.357	0.11
673.685	0.11
674.012	0.1
674.34	0.1
674.667	0.11
674.995	0.11
675.322	0.1
675.649	0.1
675.977	0.1
676.304	0.1
676.631	0.1
676.958	0.1
677.285	0.09
677.612	0.1
677.939	0.1
678.266	0.1
678.593	0.09
678.92	0.1
679.246	0.1
679.573	0.1
679.9	0.09
680.226	0.1
680.553	0.08
680.879	0.09
681.206	0.09
681.532	0.09
681.858	0.09
682.184	0.08
682.511	0.1
682.837	0.09
683.163	0.09
683.489	0.09
683.815	0.08
684.141	0.09
684.467	0.09
684.793	0.08
685.118	0.08
685.444	0.09
685.77	0.08
686.095	0.09
686.421	0.09
686.746	0.09
687.072	0.09
687.397	0.09
687.723	0.1
688.048	0.1
688.373	0.09
688.698	0.1
689.023	0.09
689.349	0.1
689.674	0.1
689.999	0.09
690.323	0.09
690.648	0.08
690.973	0.08
691.298	0.09
691.623	0.08
691.947	0.08
692.272	0.08
692.596	0.08
692.921	0.08
693.245	0.08
693.57	0.09
693.894	0.08
694.218	0.09
694.543	0.09
694.867	0.08
695.191	0.08
695.515	0.08
695.839	0.08
696.163	0.08
696.487	0.08
696.811	0.08
697.135	0.08
697.458	0.08
697.782	0.08
698.106	0.08
698.429	0.08
698.753	0.08
699.076	0.09
699.4	0.08
699.723	0.08
700.046	0.08
700.37	0.09
700.693	0.09
701.016	0.08
701.339	0.09
701.662	0.09
701.985	0.09
702.308	0.08
702.631	0.08
702.954	0.08
703.277	0.08
703.599	0.09
703.922	0.08
704.245	0.07
704.567	0.07
704.89	0.07
705.212	0.08
705.535	0.07
705.857	0.07
706.179	0.07
706.502	0.07
706.824	0.07
707.146	0.07
707.468	0.08
707.79	0.07
708.112	0.08
708.434	0.08
708.756	0.08
709.078	0.08
709.399	0.07
709.721	0.07
710.043	0.08
710.364	0.08
710.686	0.08
711.007	0.07
711.329	0.08
711.65	0.08
711.972	0.08
712.293	0.08
712.614	0.08
712.935	0.07
713.256	0.08
713.577	0.08
713.898	0.07
714.219	0.07
714.54	0.08
714.861	0.07
715.182	0.06
715.503	0.07
715.823	0.07
716.144	0.07
716.464	0.06
716.785	0.07
717.105	0.07
717.426	0.07
717.746	0.06
718.066	0.06
718.387	0.06
718.707	0.06
719.027	0.07
719.347	0.05
719.667	0.07
719.987	0.06
720.307	0.05
720.627	0.06
720.947	0.06
721.266	0.06
721.586	0.04
721.906	0.06
722.225	0.05
722.545	0.05
722.864	0.05
723.184	0.06
723.503	0.06
723.823	0.06
724.142	0.05
724.461	0.05
724.78	0.05
725.099	0.05
725.418	0.06
725.737	0.05
726.056	0.06
726.375	0.06
726.694	0.06
727.013	0.06
727.331	0.05
727.65	0.06
727.969	0.06
728.287	0.06
728.606	0.05
728.924	0.05
729.242	0.05
729.561	0.06
729.879	0.05
730.197	0.06
730.515	0.05
730.834	0.06
731.152	0.05
731.47	0.05
731.788	0.05
732.105	0.05
732.423	0.05
732.741	0.05
733.059	0.05
733.376	0.05
733.694	0.06
734.012	0.05
734.329	0.05
734.647	0.05
734.964	0.06
735.281	0.05
735.599	0.06
735.916	0.06
736.233	0.05
736.55	0.05
736.867	0.06
737.184	0.07
737.501	0.06
737.818	0.05
738.135	0.06
738.452	0.05
738.768	0.06
739.085	0.06
739.402	0.05
739.718	0.06
740.035	0.05
740.351	0.06
740.668	0.06
740.984	0.05
741.3	0.05
741.617	0.06
741.933	0.05
742.249	0.07
742.565	0.06
742.881	0.07
743.197	0.06
743.513	0.05
743.829	0.05
744.144	0.05
744.46	0.06
744.776	0.06
745.091	0.06
745.407	0.06
745.722	0.06
746.038	0.05
746.353	0.05
746.669	0.06
746.984	0.05
747.299	0.06
747.614	0.06
747.93	0.06
748.245	0.05
748.56	0.06
748.875	0.05
749.189	0.06
749.504	0.05
749.819	0.06
750.134	0.05
750.448	0.06
750.763	0.06
751.078	0.05
751.392	0.06
751.707	0.06
752.021	0.06
752.335	0.06
752.65	0.06
752.964	0.05
753.278	0.07
753.592	0.06
753.906	0.05
754.22	0.06
754.534	0.05
754.848	0.05
755.162	0.05
755.476	0.06
755.789	0.06
756.103	0.05
756.417	0.06
756.73	0.06
757.044	0.06
757.357	0.06
757.671	0.06
757.984	0.07
758.297	0.07
758.61	0.06
758.924	0.06
759.237	0.06
759.55	0.06
759.863	0.06
760.176	0.06
760.488	0.06
760.801	0.06
761.114	0.05
761.427	0.05
761.739	0.05
762.052	0.05
762.365	0.05
762.677	0.06
762.99	0.05
763.302	0.05
763.614	0.06
763.926	0.05
764.239	0.05
764.551	0.05
764.863	0.05
765.175	0.06
765.487	0.05
765.799	0.05
766.111	0.04
766.423	0.05
766.734	0.06
767.046	0.04
767.358	0.06
767.669	0.05
767.981	0.05
768.292	0.05
768.604	0.05
768.915	0.05
769.226	0.05
769.537	0.05
769.849	0.05
770.16	0.04
770.471	0.04
770.782	0.04
771.093	0.04
771.404	0.03
771.715	0.04
772.025	0.04
772.336	0.05
772.647	0.04
772.957	0.05
773.268	0.04
773.578	0.04
773.889	0.05
774.199	0.05
774.51	0.04
774.82	0.05
775.13	0.04
775.44	0.04
775.75	0.05
776.06	0.05
776.37	0.04
776.68	0.04
776.99	0.05
777.3	0.04
777.61	0.05
777.92	0.05
778.229	0.04
778.539	0.05
778.848	0.04
779.158	0.05
779.467	0.05
779.777	0.05
780.086	0.05
780.395	0.04
780.704	0.04
781.013	0.04
781.323	0.05
781.632	0.04
781.941	0.05
782.249	0.05
782.558	0.04
782.867	0.05
783.176	0.04
783.485	0.04
783.793	0.05
784.102	0.05
784.41	0.04
784.719	0.04
785.027	0.04
785.335	0.04
785.644	0.05
785.952	0.04
786.26	0.04
786.568	0.04
786.876	0.03
787.184	0.04
787.492	0.04
787.8	0.04
788.108	0.04
788.416	0.04
788.723	0.04
789.031	0.04
789.338	0.04
789.646	0.04
789.953	0.04
790.261	0.04
790.568	0.05
790.876	0.03
791.183	0.05
791.49	0.04
791.797	0.04
792.104	0.03
792.411	0.04
792.718	0.03
793.025	0.04
793.332	0.03
793.639	0.05
793.945	0.05
794.252	0.05
794.559	0.04
794.865	0.04
795.172	0.05
795.478	0.04
795.784	0.05
796.091	0.05
796.397	0.04
796.703	0.05
797.009	0.06
797.315	0.05
797.622	0.05
797.927	0.05
798.233	0.04
798.539	0.05
798.845	0.05
799.151	0.05
799.456	0.05
799.762	0.04
800.068	0.05
800.373	0.05
800.679	0.04
800.984	0.04
801.289	0.04
801.595	0.04
801.9	0.04
802.205	0.04
802.51	0.04
802.815	0.04
803.12	0.04
803.425	0.04
803.73	0.04
804.035	0.04
804.339	0.04
804.644	0.04
804.949	0.04
805.253	0.04
805.558	0.04
805.862	0.04
806.167	0.04
806.471	0.04
806.775	0.04
807.08	0.05
807.384	0.05
807.688	0.05
807.992	0.05
808.296	0.05
808.6	0.05
808.904	0.05
809.207	0.05
809.511	0.05
809.815	0.05
810.119	0.04
810.422	0.04
810.726	0.05
811.029	0.05
811.332	0.05
811.636	0.06
811.939	0.05
812.242	0.05
812.546	0.05
812.849	0.04
813.152	0.05
813.455	0.06
813.758	0.05
814.06	0.05
814.363	0.06
814.666	0.05
814.969	0.05
815.271	0.05
815.574	0.05
815.877	0.05
816.179	0.04
816.481	0.05
816.784	0.05
817.086	0.04
817.388	0.03
817.69	0.03
817.993	0.03
818.295	0.04
818.597	0.03
818.899	0.03
819.2	0.03
819.502	0.03
819.804	0.03
820.106	0.03
820.407	0.02
820.709	0.03
821.01	0.02
821.312	0.03
821.613	0.02
821.915	0.03
822.216	0.03
822.517	0.02
822.818	0.02
823.119	0.03
823.42	0.04
823.721	0.03
824.022	0.03
824.323	0.03
824.624	0.03
824.925	0.04
825.226	0.04
825.526	0.03
825.827	0.03
826.127	0.02
826.428	0.04
826.728	0.03
827.028	0.03
827.329	0.03
827.629	0.02
827.929	0.03
828.229	0.04
828.529	0.04
828.829	0.03
829.129	0.03
829.429	0.03
829.729	0.03
830.029	0.03
830.328	0.03
830.628	0.02
830.927	0.02
831.227	0.02
831.526	0.03
831.826	0.03
832.125	0.02
832.424	0.02
832.724	0.03
833.023	0.03
833.322	0.03
833.621	0.03
833.92	0.02
834.219	0.01
834.518	0.03
834.816	0.02
835.115	0.03
835.414	0.02
835.712	0.02
836.011	0.02
836.309	0.02
836.608	0.01
836.906	0.02
837.205	0
837.503	0.01
837.801	0.01
838.099	0
838.397	-0
838.695	0
838.993	0.01
839.291	-0
839.589	0
839.887	-0
840.184	-0
840.482	-0.01
840.78	-0.01
841.077	-0.01
841.375	-0.01
841.672	-0.01
841.969	-0.02
842.267	-0.02
842.564	-0.03
842.861	-0.01
843.158	-0.03
843.455	-0.03
843.752	-0.03
844.049	-0.03
844.346	-0.03
844.643	-0.04
844.94	-0.04
845.236	-0.03
845.533	-0.04
845.83	-0.03
846.126	-0.04
846.423	-0.04
846.719	-0.06
847.015	-0.05
847.312	-0.05
847.608	-0.06
847.904	-0.06
848.2	-0.06
848.496	-0.05
848.792	-0.05
849.088	-0.05
849.384	-0.06
849.68	-0.07
849.975	-0.06
850.271	-0.06
850.567	-0.07
850.862	-0.07
851.158	-0.07
851.453	-0.07
851.748	-0.08
852.044	-0.07
852.339	-0.07
852.634	-0.08
852.929	-0.07
853.224	-0.08
853.519	-0.07
853.814	-0.07
854.109	-0.08
854.404	-0.08
854.699	-0.08
854.994	-0.08
855.288	-0.07
855.583	-0.08
855.877	-0.08
856.172	-0.07
856.466	-0.08
856.76	-0.07
857.055	-0.09
857.349	-0.1
857.643	-0.1
857.937	-0.1
858.231	-0.09
858.525	-0.09
858.819	-0.1
859.113	-0.11
859.407	-0.11
859.701	-0.11
859.994	-0.11
860.288	-0.1
860.581	-0.1
860.875	-0.11
861.168	-0.11
861.462	-0.11
861.755	-0.11
862.048	-0.12
862.341	-0.11
862.634	-0.12
862.928	-0.12
863.221	-0.12
863.513	-0.13
863.806	-0.13
864.099	-0.13
864.392	-0.13
864.685	-0.12
864.977	-0.12
865.27	-0.13
865.562	-0.13
865.855	-0.11
866.147	-0.13
866.44	-0.13
866.732	-0.14
867.024	-0.13
867.316	-0.14
867.608	-0.15
867.9	-0.14
868.192	-0.14
868.484	-0.15
868.776	-0.15
869.068	-0.15
869.359	-0.15
869.651	-0.15
869.943	-0.16
870.234	-0.16
870.526	-0.16
870.817	-0.17
871.108	-0.15
871.4	-0.15
871.691	-0.16
871.982	-0.16
872.273	-0.18
872.564	-0.17
872.855	-0.17
873.146	-0.17
873.437	-0.16
873.728	-0.18
874.019	-0.17
874.309	-0.18
874.6	-0.18
874.89	-0.18
875.181	-0.18
875.471	-0.17
875.762	-0.17
876.052	-0.17
876.342	-0.16
876.632	-0.17
876.922	-0.18
877.213	-0.17
877.503	-0.19
877.792	-0.17
878.082	-0.18
878.372	-0.16
878.662	-0.2
878.952	-0.19
879.241	-0.19
879.531	-0.17
879.82	-0.19
880.11	-0.19
880.399	-0.17
880.688	-0.16
880.978	-0.16
881.267	-0.16
